consentMouse1.x,consentMouse1.y,consentMouse1.leftButton,consentMouse1.midButton,consentMouse1.rightButton,consentMouse1.clicked_name,consent_Mouse.x,consent_Mouse.y,consent_Mouse.leftButton,consent_Mouse.midButton,consent_Mouse.rightButton,consent_Mouse.clicked_name,startMouse.x,startMouse.y,startMouse.leftButton,startMouse.midButton,startMouse.rightButton,startMouse_2.x,startMouse_2.y,startMouse_2.leftButton,startMouse_2.midButton,startMouse_2.rightButton,start_distance,fixedOri,minimalDistance,maxOri,this_ori,accuracy,presented_accuracy,presented_this_ori,submitMouse.x,submitMouse.y,submitMouse.leftButton,submitMouse.midButton,submitMouse.rightButton,submitMouse.time,submitMouse.clicked_name,pauseMouse.x,pauseMouse.y,pauseMouse.leftButton,pauseMouse.midButton,pauseMouse.rightButton,trials.thisRepN,trials.thisTrialN,trials.thisN,trials.thisIndex,trials.ran,startOri,participant,condition,nTrials,date,expName,psychopyVersion,OS,frameRate,pauseMouse.clicked_name,EndButtonMouse.x,EndButtonMouse.y,EndButtonMouse.leftButton,EndButtonMouse.midButton,EndButtonMouse.rightButton,EndButtonMouse.clicked_name
0.327277625,-0.404866382,1,0,0,consent_button1,0.41024877,-0.400851212,1,0,0,consent_button,0.315035628,-0.31969333,1,0,0,0.315035628,-0.31969333,1,0,0,-64.44444444,-45,20,75,-177.4444444,47.55555556,38.04444444,-173.0444444,0.389716203,-0.291946933,1,0,0,4.4041,submitButton,0.104975982,-0.029273822,0,0,0,0,0,0,29,1,45,68872,2,180,2022-02-09_22h06.46.506,orientation adjustment 2,2021.2.3,MacIntel,60.0024001,,,,,,,
,,,,,,,,,,,,,,,,,,,,,,-21.11111111,-33,20,75,-5.111111111,27.88888889,18.12777778,-104.8722222,0.205067063,-0.291824012,1,0,0,0.9834,submitButton,0.036411377,-0.14902418,0,0,0,0,1,1,17,1,33,68872,2,180,2022-02-09_22h06.46.506,orientation adjustment 2,2021.2.3,MacIntel,60.0024001,,,,,,,
,,,,,,,,,,,,,,,,,,,,,,73.33333333,-39,20,75,-18.66666667,20.33333333,13.21666667,-115.7833333,0.390230012,-0.33656518,1,0,0,0.317,submitButton,0.175906219,0.435682258,0,0,0,0,2,2,23,1,39,68872,2,180,2022-02-09_22h06.46.506,orientation adjustment 2,2021.2.3,MacIntel,60.0024001,,,,,,,
,,,,,,,,,,,,,,,,,,,,,,-22.22222222,-63,20,75,-96.22222222,33.22222222,26.57777778,-179.5777778,-0.178002342,-0.425715573,1,0,0,1.1342,submitButton,0.016292519,-0.292610352,0,0,0,0,3,3,47,1,63,68872,2,180,2022-02-09_22h06.46.506,orientation adjustment 2,2021.2.3,MacIntel,60.0024001,,,,,,,
,,,,,,,,,,,,,,,,,,,,,,-70,-40,20,75,-90,50,40,-170,0.182433541,-0.299869436,1,0,0,0.9831,submitButton,0.09597906,0.014265517,0,0,0,0,4,4,24,1,40,68872,2,180,2022-02-09_22h06.46.506,orientation adjustment 2,2021.2.3,MacIntel,60.0024001,,,,,,,
,,,,,,,,,,,,,,,,,,,,,,66.66666667,20,20,75,-3.333333333,23.33333333,15.16666667,-85.16666667,0.402826152,-0.285917062,1,0,0,0.8757,submitButton,0.212031182,-0.190636542,0,0,0,0,5,5,4,1,20,68872,2,180,2022-02-09_22h06.46.506,orientation adjustment 2,2021.2.3,MacIntel,60.0024001,,,,,,,
,,,,,,,,,,,,,,,,,,,,,,33.88888889,59,20,75,174.8888889,64.11111111,51.28888889,20.28888889,0.235069594,-0.311089461,1,0,0,0.7681,submitButton,0.17051281,0.054195351,0,0,0,0,6,6,43,1,59,68872,2,180,2022-02-09_22h06.46.506,orientation adjustment 2,2021.2.3,MacIntel,60.0024001,,,,,,,
,,,,,,,,,,,,,,,,,,,,,,-37.22222222,-72,20,75,-165.2222222,86.77777778,69.42222222,-231.4222222,-0.191963147,-0.402409349,1,0,0,1.1107,submitButton,0.195316987,-0.369451138,0,0,0,0,7,7,56,1,72,68872,2,180,2022-02-09_22h06.46.506,orientation adjustment 2,2021.2.3,MacIntel,60.0024001,,,,,,,
,,,,,,,,,,,,,,,,,,,,,,-48.33333333,70,20,75,87.66666667,17.66666667,11.48333333,-8.516666667,0.221046051,-0.28118092,1,0,0,0.5339,submitButton,0.319994405,-0.257350366,0,0,0,0,8,8,54,1,70,68872,2,180,2022-02-09_22h06.46.506,orientation adjustment 2,2021.2.3,MacIntel,60.0024001,,,,,,,
,,,,,,,,,,,,,,,,,,,,,,-61.66666667,-34,20,75,-86.66666667,52.66666667,42.13333333,-166.1333333,0.195282949,-0.2819497,1,0,0,3.9277,submitButton,0.330436755,-0.117947384,0,0,0,0,9,9,18,1,34,68872,2,180,2022-02-09_22h06.46.506,orientation adjustment 2,2021.2.3,MacIntel,60.0024001,,,,,,,
,,,,,,,,,,,,,,,,,,,,,,58.33333333,-18,20,75,-3.666666667,14.33333333,5.733333333,-102.2666667,0.405052659,-0.304237279,1,0,0,1.1022,submitButton,0.101401519,-0.146090625,0,0,0,0,10,10,2,1,18,68872,2,180,2022-02-09_22h06.46.506,orientation adjustment 2,2021.2.3,MacIntel,60.0024001,,,,,,,
,,,,,,,,,,,,,,,,,,,,,,-22.77777778,62,20,75,-0.777777778,62.77777778,50.22222222,-78.22222222,-0.235573734,-0.421159287,1,0,0,1.1369,submitButton,0.159632075,-0.137985636,0,0,0,0,11,11,46,1,62,68872,2,180,2022-02-09_22h06.46.506,orientation adjustment 2,2021.2.3,MacIntel,60.0024001,,,,,,,
,,,,,,,,,,,,,,,,,,,,,,69.44444444,73,20,75,93.44444444,20.44444444,13.28888889,-3.711111111,0.382677511,-0.301217392,1,0,0,0.6157,submitButton,0.102377617,-0.331651579,0,0,0,0,12,12,57,1,73,68872,2,180,2022-02-09_22h06.46.506,orientation adjustment 2,2021.2.3,MacIntel,60.0024001,,,,,,,
,,,,,,,,,,,,,,,,,,,,,,50.55555556,41,20,75,2.555555556,38.44444444,30.75555556,-79.75555556,0.393715591,-0.309649295,1,0,0,0.8603,submitButton,0.38923674,-0.294614146,0,0,0,0,13,13,25,1,41,68872,2,180,2022-02-09_22h06.46.506,orientation adjustment 2,2021.2.3,MacIntel,60.0024001,,,,,,,
,,,,,,,,,,,,,,,,,,,,,,-24.44444444,-44,20,75,-174.4444444,49.55555556,39.64444444,-173.6444444,0.40454148,-0.283850995,1,0,0,0.3997,submitButton,0.332335265,-0.398982716,1,0,0,0,14,14,28,1,44,68872,2,180,2022-02-09_22h06.46.506,orientation adjustment 2,2021.2.3,MacIntel,60.0024001,pause_continueButton,,,,,,
,,,,,,,,,,,,,,,,,,,,,,30,46,20,75,88,42,33.6,-10.4,0.409011976,-0.280169159,1,0,0,0.0976,submitButton,0.070647768,-0.159253023,0,0,0,0,15,15,30,1,46,68872,2,180,2022-02-09_22h06.46.506,orientation adjustment 2,2021.2.3,MacIntel,60.0024001,,,,,,,
,,,,,,,,,,,,,,,,,,,,,,-49.44444444,25,20,75,50.55555556,25.55555556,16.61111111,-48.38888889,-0.266277821,-0.412079515,1,0,0,1.1663,submitButton,0.075836684,-0.263880973,0,0,0,0,16,16,9,1,25,68872,2,180,2022-02-09_22h06.46.506,orientation adjustment 2,2021.2.3,MacIntel,60.0024001,,,,,,,
,,,,,,,,,,,,,,,,,,,,,,-20.55555556,-53,20,75,2.444444444,55.44444444,44.35555556,-98.64444444,0.227668018,-0.293382381,1,0,0,1.1274,submitButton,0.15519345,-0.241327902,0,0,0,0,17,17,37,1,53,68872,2,180,2022-02-09_22h06.46.506,orientation adjustment 2,2021.2.3,MacIntel,60.0024001,,,,,,,
,,,,,,,,,,,,,,,,,,,,,,-33.88888889,-21,20,75,-0.888888889,20.11111111,13.07222222,-97.92777778,-0.152200406,-0.412372932,1,0,0,0.9088,submitButton,0.137622442,-0.281907849,0,0,0,0,18,18,5,1,21,68872,2,180,2022-02-09_22h06.46.506,orientation adjustment 2,2021.2.3,MacIntel,60.0024001,,,,,,,
,,,,,,,,,,,,,,,,,,,,,,-57.77777778,42,20,75,94.22222222,52.22222222,41.77777778,-6.222222222,0.199593393,-0.290459037,1,0,0,0.8656,submitButton,-0.146417074,-0.391826286,0,0,0,0,19,19,26,1,42,68872,2,180,2022-02-09_22h06.46.506,orientation adjustment 2,2021.2.3,MacIntel,60.0024001,,,,,,,
,,,,,,,,,,,,,,,,,,,,,,-58.88888889,27,20,75,-31.88888889,58.88888889,47.11111111,-110.1111111,-0.424251929,-0.415558906,1,0,0,6.018,submitButton,0.199324111,-0.296753626,0,0,0,0,20,20,11,1,27,68872,2,180,2022-02-09_22h06.46.506,orientation adjustment 2,2021.2.3,MacIntel,60.0024001,,,,,,,
,,,,,,,,,,,,,,,,,,,,,,71.11111111,29,20,75,46.11111111,17.11111111,11.12222222,-49.87777778,-0.276025847,-0.396934751,1,0,0,1.8996,submitButton,0.159569493,-0.267632198,0,0,0,0,21,21,13,1,29,68872,2,180,2022-02-09_22h06.46.506,orientation adjustment 2,2021.2.3,MacIntel,60.0024001,,,,,,,
,,,,,,,,,,,,,,,,,,,,,,31.11111111,67,20,75,39.11111111,27.88888889,18.12777778,-41.12777778,0.410605698,-0.294455795,1,0,0,0.7838,submitButton,0.126654447,-0.175690277,0,0,0,0,22,22,51,1,67,68872,2,180,2022-02-09_22h06.46.506,orientation adjustment 2,2021.2.3,MacIntel,60.0024001,,,,,,,
,,,,,,,,,,,,,,,,,,,,,,-25.55555556,-16,20,75,-138.5555556,57.44444444,45.95555556,-151.9555556,0.390128055,-0.298586537,1,0,0,1.0491,submitButton,0.313174558,-0.206518988,0,0,0,0,23,23,0,1,16,68872,2,180,2022-02-09_22h06.46.506,orientation adjustment 2,2021.2.3,MacIntel,60.0024001,,,,,,,
,,,,,,,,,,,,,,,,,,,,,,41.11111111,-56,20,75,-42.88888889,13.11111111,5.244444444,-140.7555556,-0.169814193,-0.431828913,1,0,0,3.2647,submitButton,0.157127932,-0.153070602,0,0,0,0,24,24,40,1,56,68872,2,180,2022-02-09_22h06.46.506,orientation adjustment 2,2021.2.3,MacIntel,60.0024001,,,,,,,
,,,,,,,,,,,,,,,,,,,,,,-52.22222222,50,20,75,-43.22222222,86.77777778,69.42222222,-109.4222222,-0.234758694,-0.40602752,1,0,0,0.8725,submitButton,0.227296624,-0.288163372,0,0,0,0,25,25,34,1,50,68872,2,180,2022-02-09_22h06.46.506,orientation adjustment 2,2021.2.3,MacIntel,60.0024001,,,,,,,
,,,,,,,,,,,,,,,,,,,,,,-70.55555556,-64,20,75,26.44444444,89.55555556,71.64444444,-82.35555556,-0.202375173,-0.432782191,1,0,0,2.269,submitButton,-0.215390436,-0.403146103,0,0,0,0,26,26,48,1,64,68872,2,180,2022-02-09_22h06.46.506,orientation adjustment 2,2021.2.3,MacIntel,60.0024001,,,,,,,
,,,,,,,,,,,,,,,,,,,,,,-36.66666667,-74,20,75,-84.66666667,10.66666667,4.266666667,-168.2666667,-0.324127545,-0.379401958,1,0,0,0.4701,submitButton,0.226343269,-0.245506142,0,0,0,0,27,27,58,1,74,68872,2,180,2022-02-09_22h06.46.506,orientation adjustment 2,2021.2.3,MacIntel,60.0024001,,,,,,,
,,,,,,,,,,,,,,,,,,,,,,45,31,20,75,143,68,54.4,-4.6,-0.159426071,-0.412333789,1,0,0,0.6503,submitButton,0.17997001,-0.240615207,0,0,0,0,28,28,15,1,31,68872,2,180,2022-02-09_22h06.46.506,orientation adjustment 2,2021.2.3,MacIntel,60.0024001,,,,,,,
,,,,,,,,,,,,,,,,,,,,,,37.77777778,-43,20,75,135.7777778,1.222222222,0.488888889,-132.5111111,-0.292075888,-0.415636727,1,0,0,1.8097,submitButton,0.28022331,-0.409958911,1,0,0,0,29,29,27,1,43,68872,2,180,2022-02-09_22h06.46.506,orientation adjustment 2,2021.2.3,MacIntel,60.0024001,pause_continueButton,,,,,,
,,,,,,,,,,,,,,,,,,,,,,21.11111111,57,20,75,144.1111111,87.11111111,69.68888889,36.68888889,0.220081557,-0.292187361,1,0,0,0.5944,submitButton,0.198781679,-0.251775744,0,0,0,0,30,30,41,1,57,68872,2,180,2022-02-09_22h06.46.506,orientation adjustment 2,2021.2.3,MacIntel,60.0024001,,,,,,,
,,,,,,,,,,,,,,,,,,,,,,61.11111111,-60,20,75,-37.88888889,22.11111111,14.37222222,-135.6277778,-0.270512067,-0.408387546,1,0,0,0.814,submitButton,0.340159988,-0.187005917,0,0,0,0,31,31,44,1,60,68872,2,180,2022-02-09_22h06.46.506,orientation adjustment 2,2021.2.3,MacIntel,60.0024001,,,,,,,
,,,,,,,,,,,,,,,,,,,,,,60,-19,20,75,-44,25,16.25,-125.25,-0.191286965,-0.390490398,1,0,0,2.0041,submitButton,0.267844777,-0.211001011,0,0,0,0,32,32,3,1,19,68872,2,180,2022-02-09_22h06.46.506,orientation adjustment 2,2021.2.3,MacIntel,60.0024001,,,,,,,
,,,,,,,,,,,,,,,,,,,,,,-24.44444444,-32,20,75,-140.4444444,71.55555556,57.24444444,-179.2444444,-0.272195446,-0.393004211,1,0,0,1.9844,submitButton,0.3392228,0.003300849,0,0,0,0,33,33,16,1,32,68872,2,180,2022-02-09_22h06.46.506,orientation adjustment 2,2021.2.3,MacIntel,60.0024001,,,,,,,
,,,,,,,,,,,,,,,,,,,,,,67.22222222,-37,20,75,-41.77777778,4.777777778,1.911111111,-128.9111111,0.395871703,-0.346897372,1,0,0,0.1073,submitButton,0.2955822,-0.160016233,0,0,0,0,34,34,21,1,37,68872,2,180,2022-02-09_22h06.46.506,orientation adjustment 2,2021.2.3,MacIntel,60.0024001,,,,,,,
,,,,,,,,,,,,,,,,,,,,,,40.55555556,49,20,75,230.5555556,1.555555556,0.622222222,-40.37777778,-0.174307742,-0.400863512,1,0,0,2.0834,submitButton,0.240437439,-0.142020995,0,0,0,0,35,35,33,1,49,68872,2,180,2022-02-09_22h06.46.506,orientation adjustment 2,2021.2.3,MacIntel,60.0024001,,,,,,,
,,,,,,,,,,,,,,,,,,,,,,37.22222222,35,20,75,155.2222222,59.77777778,47.82222222,-7.177777778,-0.186283242,-0.423917241,1,0,0,1.3058,submitButton,0.343383248,-0.217012703,0,0,0,0,36,36,19,1,35,68872,2,180,2022-02-09_22h06.46.506,orientation adjustment 2,2021.2.3,MacIntel,60.0024001,,,,,,,
,,,,,,,,,,,,,,,,,,,,,,-75,58,20,75,-135,13,5.2,-37.2,-0.346794215,-0.371132197,1,0,0,1.5424,submitButton,0.071350639,-0.081019877,0,0,0,0,37,37,42,1,58,68872,2,180,2022-02-09_22h06.46.506,orientation adjustment 2,2021.2.3,MacIntel,60.0024001,,,,,,,
,,,,,,,,,,,,,,,,,,,,,,-45.55555556,26,20,75,-135.5555556,18.44444444,11.98888889,-75.98888889,-0.158972446,-0.379575857,1,0,0,2.0687,submitButton,0.143053255,-0.229767735,0,0,0,0,38,38,10,1,26,68872,2,180,2022-02-09_22h06.46.506,orientation adjustment 2,2021.2.3,MacIntel,60.0024001,,,,,,,
,,,,,,,,,,,,,,,,,,,,,,-47.22222222,61,20,75,-130.2222222,11.22222222,4.488888889,-33.48888889,-0.258528677,-0.401291454,1,0,0,2.4539,submitButton,0.202859354,-0.208872748,0,0,0,0,39,39,45,1,61,68872,2,180,2022-02-09_22h06.46.506,orientation adjustment 2,2021.2.3,MacIntel,60.0024001,,,,,,,
,,,,,,,,,,,,,,,,,,,,,,75,75,20,75,39,36,28.8,-43.8,-0.054397873,-0.45353809,1,0,0,2.1218,submitButton,0.088968758,-0.277471081,0,0,0,0,40,40,59,1,75,68872,2,180,2022-02-09_22h06.46.506,orientation adjustment 2,2021.2.3,MacIntel,60.0024001,,,,,,,
,,,,,,,,,,,,,,,,,,,,,,-39.44444444,38,20,75,30.55555556,7.444444444,2.977777778,-54.97777778,-0.115429161,-0.429742114,1,0,0,0.7665,submitButton,0.122584663,-0.154727061,0,0,0,0,41,41,22,1,38,68872,2,180,2022-02-09_22h06.46.506,orientation adjustment 2,2021.2.3,MacIntel,60.0024001,,,,,,,
,,,,,,,,,,,,,,,,,,,,,,35.55555556,-52,20,75,52.55555556,75.44444444,60.35555556,-81.64444444,0.000651661,-0.443269795,1,0,0,1.3762,submitButton,0.004229295,-0.282688852,0,0,0,0,42,42,36,1,52,68872,2,180,2022-02-09_22h06.46.506,orientation adjustment 2,2021.2.3,MacIntel,60.0024001,,,,,,,
,,,,,,,,,,,,,,,,,,,,,,36.11111111,-55,20,75,-142.8888889,87.88888889,70.31111111,-215.3111111,-0.288986419,-0.397777872,1,0,0,2.4324,submitButton,0.016753802,-0.071267402,0,0,0,0,43,43,39,1,55,68872,2,180,2022-02-09_22h06.46.506,orientation adjustment 2,2021.2.3,MacIntel,60.0024001,,,,,,,
,,,,,,,,,,,,,,,,,,,,,,73.88888889,-51,20,75,-33.11111111,17.88888889,11.62777778,-129.3722222,0.37956379,-0.291290863,1,0,0,0.2164,submitButton,0.277446017,-0.419615075,1,0,0,0,44,44,35,1,51,68872,2,180,2022-02-09_22h06.46.506,orientation adjustment 2,2021.2.3,MacIntel,60.0024001,pause_continueButton,,,,,,
,,,,,,,,,,,,,,,,,,,,,,-42.22222222,-30,20,75,-33.22222222,3.222222222,1.288888889,-121.2888889,0.21451908,-0.311698343,1,0,0,0.8535,submitButton,0.031393034,-0.270700897,0,0,0,0,45,45,14,1,30,68872,2,180,2022-02-09_22h06.46.506,orientation adjustment 2,2021.2.3,MacIntel,60.0024001,,,,,,,
,,,,,,,,,,,,,,,,,,,,,,48.88888889,-66,20,75,-124.1111111,58.11111111,46.48888889,-202.4888889,-0.191353569,-0.395794036,1,0,0,1.7732,submitButton,0.191781976,-0.198337569,0,0,0,0,46,46,50,1,66,68872,2,180,2022-02-09_22h06.46.506,orientation adjustment 2,2021.2.3,MacIntel,60.0024001,,,,,,,
,,,,,,,,,,,,,,,,,,,,,,51.66666667,69,20,75,220.6666667,28.33333333,18.41666667,-2.583333333,-0.280687688,-0.408114086,1,0,0,1.7651,submitButton,0.127189143,-0.260039935,0,0,0,0,47,47,53,1,69,68872,2,180,2022-02-09_22h06.46.506,orientation adjustment 2,2021.2.3,MacIntel,60.0024001,,,,,,,
,,,,,,,,,,,,,,,,,,,,,,61.11111111,54,20,75,45.11111111,8.888888889,3.555555556,-39.55555556,-0.156904755,-0.38324052,1,0,0,1.59,submitButton,0.133656781,-0.225948745,0,0,0,0,48,48,38,1,54,68872,2,180,2022-02-09_22h06.46.506,orientation adjustment 2,2021.2.3,MacIntel,60.0024001,,,,,,,
,,,,,,,,,,,,,,,,,,,,,,37.22222222,22,20,75,121.2222222,80.77777778,64.62222222,-3.377777778,0.214602394,-0.293346719,1,0,0,0.3022,submitButton,0.138532863,-0.150174024,0,0,0,0,49,49,6,1,22,68872,2,180,2022-02-09_22h06.46.506,orientation adjustment 2,2021.2.3,MacIntel,60.0024001,,,,,,,
,,,,,,,,,,,,,,,,,,,,,,-20,-28,20,75,-137,71,56.8,-174.8,0.430901241,-0.289232377,1,0,0,1.3,submitButton,0.29898168,-0.117410677,0,0,0,0,50,50,12,1,28,68872,2,180,2022-02-09_22h06.46.506,orientation adjustment 2,2021.2.3,MacIntel,60.0024001,,,,,,,
,,,,,,,,,,,,,,,,,,,,,,-47.77777778,-65,20,75,-42.77777778,22.22222222,14.44444444,-140.5555556,0.189222135,-0.297511344,1,0,0,0.0386,submitButton,0.091572461,-0.243931527,0,0,0,0,51,51,49,1,65,68872,2,180,2022-02-09_22h06.46.506,orientation adjustment 2,2021.2.3,MacIntel,60.0024001,,,,,,,
,,,,,,,,,,,,,,,,,,,,,,25.55555556,-47,20,75,42.55555556,89.55555556,71.64444444,-65.35555556,-0.255115195,-0.420496565,1,0,0,1.0535,submitButton,0.163540336,-0.198093042,0,0,0,0,52,52,31,1,47,68872,2,180,2022-02-09_22h06.46.506,orientation adjustment 2,2021.2.3,MacIntel,60.0024001,,,,,,,
,,,,,,,,,,,,,,,,,,,,,,47.77777778,71,20,75,226.7777778,24.22222222,15.74444444,-3.255555556,-0.258807938,-0.386928931,1,0,0,2.172,submitButton,0.050065769,-0.142820486,0,0,0,0,53,53,55,1,71,68872,2,180,2022-02-09_22h06.46.506,orientation adjustment 2,2021.2.3,MacIntel,60.0024001,,,,,,,
,,,,,,,,,,,,,,,,,,,,,,-45,-68,20,75,-221,27,17.55,-175.55,0.402413836,-0.322319853,1,0,0,1.1202,submitButton,0.072824921,-0.2237456,0,0,0,0,54,54,52,1,68,68872,2,180,2022-02-09_22h06.46.506,orientation adjustment 2,2021.2.3,MacIntel,60.0024001,,,,,,,
,,,,,,,,,,,,,,,,,,,,,,33.88888889,24,20,75,142.8888889,61.11111111,48.88888889,-17.11111111,-0.239626422,-0.379357554,1,0,0,1.4578,submitButton,0.09061663,-0.158704944,0,0,0,0,55,55,8,1,24,68872,2,180,2022-02-09_22h06.46.506,orientation adjustment 2,2021.2.3,MacIntel,60.0024001,,,,,,,
,,,,,,,,,,,,,,,,,,,,,,40,17,20,75,-41,58,46.4,-119.4,-0.181014415,-0.42801147,1,0,0,1.7495,submitButton,0.04082254,-0.319201026,0,0,0,0,56,56,1,1,17,68872,2,180,2022-02-09_22h06.46.506,orientation adjustment 2,2021.2.3,MacIntel,60.0024001,,,,,,,
,,,,,,,,,,,,,,,,,,,,,,-68.88888889,36,20,75,8.111111111,27.88888889,18.12777778,-72.12777778,-0.225798439,-0.360238311,1,0,0,0.2668,submitButton,0.185953389,-0.235406564,0,0,0,0,57,57,20,1,36,68872,2,180,2022-02-09_22h06.46.506,orientation adjustment 2,2021.2.3,MacIntel,60.0024001,,,,,,,
,,,,,,,,,,,,,,,,,,,,,,-72.77777778,-23,20,75,-146.7777778,56.22222222,44.97777778,-157.9777778,-0.176785584,-0.40627166,1,0,0,0.9219,submitButton,-0.007760052,-0.275514088,0,0,0,0,58,58,7,1,23,68872,2,180,2022-02-09_22h06.46.506,orientation adjustment 2,2021.2.3,MacIntel,60.0024001,,,,,,,
,,,,,,,,,,,,,,,,,,,,,,31.66666667,-48,20,75,16.66666667,64.66666667,51.73333333,-86.26666667,-0.331927939,-0.426157904,1,0,0,0.4478,submitButton,0.375251799,-0.421651127,1,0,0,0,59,59,32,1,48,68872,2,180,2022-02-09_22h06.46.506,orientation adjustment 2,2021.2.3,MacIntel,60.0024001,pause_continueButton,,,,,,
,,,,,,,,,,,,,,,,,,,,,,-26.66666667,46,20,75,-33.66666667,79.66666667,63.73333333,-107.7333333,-0.116345617,-0.416929915,1,0,0,1.2434,submitButton,0.249063354,-0.22560899,0,0,0,1,0,60,30,1,46,68872,2,180,2022-02-09_22h06.46.506,orientation adjustment 2,2021.2.3,MacIntel,60.0024001,,,,,,,
,,,,,,,,,,,,,,,,,,,,,,-40,42,20,75,45,3,1.2,-46.8,-0.211544912,-0.365844649,1,0,0,0.5867,submitButton,0.201906076,-0.134004813,0,0,0,1,1,61,26,1,42,68872,2,180,2022-02-09_22h06.46.506,orientation adjustment 2,2021.2.3,MacIntel,60.0024001,,,,,,,
,,,,,,,,,,,,,,,,,,,,,,62.22222222,60,20,75,226.2222222,13.77777778,5.511111111,-24.48888889,-0.177049373,-0.379815821,1,0,0,1.7357,submitButton,0.154380808,-0.165513342,0,0,0,1,2,62,44,1,60,68872,2,180,2022-02-09_22h06.46.506,orientation adjustment 2,2021.2.3,MacIntel,60.0024001,,,,,,,
,,,,,,,,,,,,,,,,,,,,,,-21.66666667,68,20,75,47.33333333,20.66666667,13.43333333,-35.43333333,0.438609463,-0.286024125,1,0,0,1.2016,submitButton,0.233873104,-0.144580604,0,0,0,1,3,63,52,1,68,68872,2,180,2022-02-09_22h06.46.506,orientation adjustment 2,2021.2.3,MacIntel,60.0024001,,,,,,,
,,,,,,,,,,,,,,,,,,,,,,-46.11111111,-53,20,75,-125.1111111,72.11111111,57.68888889,-200.6888889,0.369926192,-0.291770867,1,0,0,1.1862,submitButton,0.361025038,-0.288974467,0,0,0,1,4,64,37,1,53,68872,2,180,2022-02-09_22h06.46.506,orientation adjustment 2,2021.2.3,MacIntel,60.0024001,,,,,,,
,,,,,,,,,,,,,,,,,,,,,,-72.22222222,-23,20,75,-209.2222222,6.222222222,2.488888889,-115.4888889,-0.206957915,-0.413198106,1,0,0,2.1653,submitButton,0.271424191,-0.123365124,0,0,0,1,5,65,7,1,23,68872,2,180,2022-02-09_22h06.46.506,orientation adjustment 2,2021.2.3,MacIntel,60.0024001,,,,,,,
,,,,,,,,,,,,,,,,,,,,,,35,-72,20,75,43,65,52,-110,0.235900337,-0.297092762,1,0,0,0.2164,submitButton,0.584808079,0.0099707,0,0,0,1,6,66,56,1,72,68872,2,180,2022-02-09_22h06.46.506,orientation adjustment 2,2021.2.3,MacIntel,60.0024001,,,,,,,
,,,,,,,,,,,,,,,,,,,,,,51.11111111,-52,20,75,-8.888888889,43.11111111,34.48888889,-107.5111111,-0.174486284,-0.401039191,1,0,0,0.3896,submitButton,0.35117022,-0.224040332,0,0,0,1,7,67,36,1,52,68872,2,180,2022-02-09_22h06.46.506,orientation adjustment 2,2021.2.3,MacIntel,60.0024001,,,,,,,
,,,,,,,,,,,,,,,,,,,,,,66.11111111,-26,20,75,-31.88888889,5.888888889,2.355555556,-118.3555556,-0.289196251,-0.414780224,1,0,0,1.0869,submitButton,0.299554049,-0.206251408,0,0,0,1,8,68,10,1,26,68872,2,180,2022-02-09_22h06.46.506,orientation adjustment 2,2021.2.3,MacIntel,60.0024001,,,,,,,
,,,,,,,,,,,,,,,,,,,,,,-23.33333333,54,20,75,128.6666667,74.66666667,59.73333333,23.73333333,-0.284085466,-0.427133461,1,0,0,1.7162,submitButton,0.037086941,-0.176745126,0,0,0,1,9,69,38,1,54,68872,2,180,2022-02-09_22h06.46.506,orientation adjustment 2,2021.2.3,MacIntel,60.0024001,,,,,,,
,,,,,,,,,,,,,,,,,,,,,,22.22222222,40,20,75,59.22222222,19.22222222,12.49444444,-37.50555556,-0.173270918,-0.403709576,1,0,0,3.1522,submitButton,0.070409661,-0.211302628,0,0,0,1,10,70,24,1,40,68872,2,180,2022-02-09_22h06.46.506,orientation adjustment 2,2021.2.3,MacIntel,60.0024001,,,,,,,
,,,,,,,,,,,,,,,,,,,,,,-32.77777778,-74,20,75,-223.7777778,30.22222222,24.17777778,-188.1777778,0.399597864,-0.290129648,1,0,0,1.3655,submitButton,0.175695692,-0.150248983,0,0,0,1,11,71,58,1,74,68872,2,180,2022-02-09_22h06.46.506,orientation adjustment 2,2021.2.3,MacIntel,60.0024001,,,,,,,
,,,,,,,,,,,,,,,,,,,,,,-58.88888889,56,20,75,-41.88888889,82.11111111,65.68888889,-99.68888889,-0.155552466,-0.405386612,1,0,0,1.1398,submitButton,0.34003637,-0.274609932,0,0,0,1,12,72,40,1,56,68872,2,180,2022-02-09_22h06.46.506,orientation adjustment 2,2021.2.3,MacIntel,60.0024001,,,,,,,
,,,,,,,,,,,,,,,,,,,,,,43.88888889,31,20,75,114.8888889,83.88888889,67.11111111,8.111111111,-0.193120108,-0.397179975,1,0,0,1.4768,submitButton,0.177832542,-0.257495489,0,0,0,1,13,73,15,1,31,68872,2,180,2022-02-09_22h06.46.506,orientation adjustment 2,2021.2.3,MacIntel,60.0024001,,,,,,,
,,,,,,,,,,,,,,,,,,,,,,-62.77777778,21,20,75,-115.7777778,43.22222222,34.57777778,-103.5777778,-0.15052631,-0.400589666,1,0,0,1.3537,submitButton,0.381444044,-0.423398171,1,0,0,1,14,74,5,1,21,68872,2,180,2022-02-09_22h06.46.506,orientation adjustment 2,2021.2.3,MacIntel,60.0024001,pause_continueButton,,,,,,
,,,,,,,,,,,,,,,,,,,,,,-25,59,20,75,55,4,1.6,-32.6,0.187224684,-0.308321761,1,0,0,0.9241,submitButton,0.024923772,-0.120467153,0,0,0,1,15,75,43,1,59,68872,2,180,2022-02-09_22h06.46.506,orientation adjustment 2,2021.2.3,MacIntel,60.0024001,,,,,,,
,,,,,,,,,,,,,,,,,,,,,,55.55555556,32,20,75,130.5555556,81.44444444,65.15555556,7.155555556,-0.185073369,-0.383138408,1,0,0,1.0669,submitButton,0.201014065,-0.078176211,0,0,0,1,16,76,16,1,32,68872,2,180,2022-02-09_22h06.46.506,orientation adjustment 2,2021.2.3,MacIntel,60.0024001,,,,,,,
,,,,,,,,,,,,,,,,,,,,,,36.11111111,71,20,75,49.11111111,21.88888889,14.22777778,-33.22777778,-0.169716181,-0.383772585,1,0,0,1.2402,submitButton,0.297438241,-0.118161046,0,0,0,1,17,77,55,1,71,68872,2,180,2022-02-09_22h06.46.506,orientation adjustment 2,2021.2.3,MacIntel,60.0024001,,,,,,,
,,,,,,,,,,,,,,,,,,,,,,-64.44444444,-49,20,75,-48.44444444,0.555555556,0.222222222,-138.7777778,-0.154578302,-0.392955321,1,0,0,1.2341,submitButton,0.159487107,-0.266168205,0,0,0,1,18,78,33,1,49,68872,2,180,2022-02-09_22h06.46.506,orientation adjustment 2,2021.2.3,MacIntel,60.0024001,,,,,,,
,,,,,,,,,,,,,,,,,,,,,,48.33333333,50,20,75,47.33333333,2.666666667,1.066666667,-41.06666667,-0.208528816,-0.411766681,1,0,0,0.9999,submitButton,0.221936437,-0.239864915,0,0,0,1,19,79,34,1,50,68872,2,180,2022-02-09_22h06.46.506,orientation adjustment 2,2021.2.3,MacIntel,60.0024001,,,,,,,
,,,,,,,,,,,,,,,,,,,,,,40,66,20,75,40,26,16.9,-40.9,-0.242226411,-0.392203559,1,0,0,1.1088,submitButton,0.424406915,-0.160803114,0,0,0,1,20,80,50,1,66,68872,2,180,2022-02-09_22h06.46.506,orientation adjustment 2,2021.2.3,MacIntel,60.0024001,,,,,,,
,,,,,,,,,,,,,,,,,,,,,,-43.33333333,-22,20,75,-122.3333333,79.66666667,63.73333333,-175.7333333,-0.23233245,-0.358523215,1,0,0,0.4279,submitButton,0.246479687,-0.245835298,0,0,0,1,21,81,6,1,22,68872,2,180,2022-02-09_22h06.46.506,orientation adjustment 2,2021.2.3,MacIntel,60.0024001,,,,,,,
,,,,,,,,,,,,,,,,,,,,,,50.55555556,-33,20,75,129.5555556,17.44444444,11.33888889,-111.6611111,-0.150652481,-0.403020939,1,0,0,1.6164,submitButton,-0.052363677,-0.356923305,0,0,0,1,22,82,17,1,33,68872,2,180,2022-02-09_22h06.46.506,orientation adjustment 2,2021.2.3,MacIntel,60.0024001,,,,,,,
,,,,,,,,,,,,,,,,,,,,,,-72.77777778,-47,20,75,-43.77777778,3.222222222,1.288888889,-135.7111111,-0.27897178,-0.428409398,1,0,0,1.4439,submitButton,0.17795144,-0.239673378,0,0,0,1,23,83,31,1,47,68872,2,180,2022-02-09_22h06.46.506,orientation adjustment 2,2021.2.3,MacIntel,60.0024001,,,,,,,
,,,,,,,,,,,,,,,,,,,,,,51.11111111,-65,20,75,137.1111111,22.11111111,14.37222222,-140.6277778,-0.217674807,-0.411287682,1,0,0,2.2169,submitButton,0.153790183,-0.25641078,0,0,0,1,24,84,49,1,65,68872,2,180,2022-02-09_22h06.46.506,orientation adjustment 2,2021.2.3,MacIntel,60.0024001,,,,,,,
,,,,,,,,,,,,,,,,,,,,,,-23.88888889,62,20,75,-39.88888889,78.11111111,62.48888889,-90.48888889,-0.231356661,-0.409258051,1,0,0,1.3988,submitButton,-0.231356661,-0.409258051,0,0,0,1,25,85,46,1,62,68872,2,180,2022-02-09_22h06.46.506,orientation adjustment 2,2021.2.3,MacIntel,60.0024001,,,,,,,
,,,,,,,,,,,,,,,,,,,,,,46.66666667,29,20,75,136.6666667,72.33333333,57.86666667,-3.133333333,-0.258081937,-0.399636698,1,0,0,1.3121,submitButton,0.320931129,-0.325258746,0,0,0,1,26,86,13,1,29,68872,2,180,2022-02-09_22h06.46.506,orientation adjustment 2,2021.2.3,MacIntel,60.0024001,,,,,,,
,,,,,,,,,,,,,,,,,,,,,,38.88888889,35,20,75,-33.11111111,68.11111111,54.48888889,-109.4888889,-0.124507464,-0.381673873,1,0,0,1.9088,submitButton,0.245451604,-0.328319864,0,0,0,1,27,87,19,1,35,68872,2,180,2022-02-09_22h06.46.506,orientation adjustment 2,2021.2.3,MacIntel,60.0024001,,,,,,,
,,,,,,,,,,,,,,,,,,,,,,62.77777778,-63,20,75,-42.22222222,20.77777778,13.50555556,-139.4944444,0.363869787,-0.275605524,1,0,0,0.3503,submitButton,0.018696407,-0.317550369,0,0,0,1,28,88,47,1,63,68872,2,180,2022-02-09_22h06.46.506,orientation adjustment 2,2021.2.3,MacIntel,60.0024001,,,,,,,
,,,,,,,,,,,,,,,,,,,,,,-52.22222222,-58,20,75,-44.22222222,13.77777778,5.511111111,-142.4888889,-0.177348515,-0.385743503,1,0,0,1.4999,submitButton,0.367615984,-0.414629841,1,0,0,1,29,89,42,1,58,68872,2,180,2022-02-09_22h06.46.506,orientation adjustment 2,2021.2.3,MacIntel,60.0024001,pause_continueButton,,,,,,
,,,,,,,,,,,,,,,,,,,,,,-60,17,20,75,40,23,14.95,-58.05,-0.157068676,-0.377037135,1,0,0,1.8564,submitButton,0.324685062,-0.263940151,0,0,0,1,30,90,1,1,17,68872,2,180,2022-02-09_22h06.46.506,orientation adjustment 2,2021.2.3,MacIntel,60.0024001,,,,,,,
,,,,,,,,,,,,,,,,,,,,,,-59.44444444,-41,20,75,-147.4444444,73.55555556,58.84444444,-189.8444444,-0.22435131,-0.382264963,1,0,0,0.9669,submitButton,0.158163441,-0.234222219,0,0,0,1,31,91,25,1,41,68872,2,180,2022-02-09_22h06.46.506,orientation adjustment 2,2021.2.3,MacIntel,60.0024001,,,,,,,
,,,,,,,,,,,,,,,,,,,,,,40,70,20,75,227,23,14.95,-5.05,-0.287261305,-0.431077539,1,0,0,2.1822,submitButton,0.072998975,-0.288430875,0,0,0,1,32,92,54,1,70,68872,2,180,2022-02-09_22h06.46.506,orientation adjustment 2,2021.2.3,MacIntel,60.0024001,,,,,,,
,,,,,,,,,,,,,,,,,,,,,,63.33333333,-57,20,75,-45.66666667,11.33333333,4.533333333,-142.4666667,0.385236037,-0.299440488,1,0,0,0.1674,submitButton,-0.249926665,-0.416028466,0,0,0,1,33,93,41,1,57,68872,2,180,2022-02-09_22h06.46.506,orientation adjustment 2,2021.2.3,MacIntel,60.0024001,,,,,,,
,,,,,,,,,,,,,,,,,,,,,,58.33333333,18,20,75,164.3333333,33.66666667,26.93333333,-45.06666667,0.187574341,-0.318397667,1,0,0,4.8184,submitButton,-0.234758771,-0.420667061,0,0,0,1,34,94,2,1,18,68872,2,180,2022-02-09_22h06.46.506,orientation adjustment 2,2021.2.3,MacIntel,60.0024001,,,,,,,
,,,,,,,,,,,,,,,,,,,,,,-47.22222222,-69,20,75,-150.2222222,81.22222222,64.97777778,-223.9777778,0.38723751,-0.307188085,1,0,0,6.6514,submitButton,-0.227817318,-0.394741353,0,0,0,1,35,95,53,1,69,68872,2,180,2022-02-09_22h06.46.506,orientation adjustment 2,2021.2.3,MacIntel,60.0024001,,,,,,,
,,,,,,,,,,,,,,,,,,,,,,43.88888889,51,20,75,130.8888889,79.88888889,63.91111111,24.91111111,0.231867221,-0.300228839,1,0,0,0.4461,submitButton,0.244991172,-0.237263843,0,0,0,1,36,96,35,1,51,68872,2,180,2022-02-09_22h06.46.506,orientation adjustment 2,2021.2.3,MacIntel,60.0024001,,,,,,,
,,,,,,,,,,,,,,,,,,,,,,-62.22222222,-67,20,75,-219.2222222,27.77777778,18.05555556,-175.0555556,-0.16327469,-0.380023449,1,0,0,1.3973,submitButton,-0.16327469,-0.380023449,0,0,0,1,37,97,51,1,67,68872,2,180,2022-02-09_22h06.46.506,orientation adjustment 2,2021.2.3,MacIntel,60.0024001,,,,,,,
,,,,,,,,,,,,,,,,,,,,,,-50.55555556,38,20,75,-124.5555556,17.44444444,11.33888889,-63.33888889,-0.336374184,-0.404151752,1,0,0,1.9307,submitButton,-0.336374184,-0.404151752,0,0,0,1,38,98,22,1,38,68872,2,180,2022-02-09_22h06.46.506,orientation adjustment 2,2021.2.3,MacIntel,60.0024001,,,,,,,
,,,,,,,,,,,,,,,,,,,,,,35.55555556,-24,20,75,-124.4444444,79.55555556,63.64444444,-177.6444444,-0.225729126,-0.405531193,1,0,0,2.535,submitButton,-0.225729126,-0.405531193,0,0,0,1,39,99,8,1,24,68872,2,180,2022-02-09_22h06.46.506,orientation adjustment 2,2021.2.3,MacIntel,60.0024001,,,,,,,
,,,,,,,,,,,,,,,,,,,,,,57.22222222,36,20,75,221.2222222,5.222222222,2.088888889,-51.91111111,-0.168101728,-0.399120955,1,0,0,1.8152,submitButton,-0.168101728,-0.399120955,0,0,0,1,40,100,20,1,36,68872,2,180,2022-02-09_22h06.46.506,orientation adjustment 2,2021.2.3,MacIntel,60.0024001,,,,,,,
,,,,,,,,,,,,,,,,,,,,,,46.11111111,25,20,75,220.1111111,15.11111111,9.822222222,-55.17777778,-0.176084569,-0.397699818,1,0,0,2.4539,submitButton,-0.176084569,-0.397699818,0,0,0,1,41,101,9,1,25,68872,2,180,2022-02-09_22h06.46.506,orientation adjustment 2,2021.2.3,MacIntel,60.0024001,,,,,,,
,,,,,,,,,,,,,,,,,,,,,,-39.44444444,-16,20,75,56.55555556,72.55555556,58.04444444,-47.95555556,-0.205330698,-0.415053142,1,0,0,2.0393,submitButton,-0.205330698,-0.415053142,0,0,0,1,42,102,0,1,16,68872,2,180,2022-02-09_22h06.46.506,orientation adjustment 2,2021.2.3,MacIntel,60.0024001,,,,,,,
,,,,,,,,,,,,,,,,,,,,,,-45,28,20,75,-148,4,1.6,-63.6,-0.234536987,-0.356383813,1,0,0,2.6149,submitButton,-0.234536987,-0.393839131,0,0,0,1,43,103,12,1,28,68872,2,180,2022-02-09_22h06.46.506,orientation adjustment 2,2021.2.3,MacIntel,60.0024001,,,,,,,
,,,,,,,,,,,,,,,,,,,,,,38.88888889,73,20,75,-38.11111111,68.88888889,55.11111111,-72.11111111,-0.207564785,-0.414445111,1,0,0,2.939,submitButton,0.258636436,-0.399057057,1,0,0,1,44,104,57,1,73,68872,2,180,2022-02-09_22h06.46.506,orientation adjustment 2,2021.2.3,MacIntel,60.0024001,pause_continueButton,,,,,,
,,,,,,,,,,,,,,,,,,,,,,-25,-43,20,75,-138,85,68,-201,-0.199653887,-0.383664053,1,0,0,1.3664,submitButton,0.453596263,-0.268663452,0,0,0,1,45,105,27,1,43,68872,2,180,2022-02-09_22h06.46.506,orientation adjustment 2,2021.2.3,MacIntel,60.0024001,,,,,,,
,,,,,,,,,,,,,,,,,,,,,,27.22222222,20,20,75,137.2222222,62.77777778,50.22222222,-19.77777778,-0.132817374,-0.402348624,1,0,0,1.2653,submitButton,0.213499661,-0.347024625,0,0,0,1,46,106,4,1,20,68872,2,180,2022-02-09_22h06.46.506,orientation adjustment 2,2021.2.3,MacIntel,60.0024001,,,,,,,
,,,,,,,,,,,,,,,,,,,,,,67.22222222,-34,20,75,-141.7777778,72.22222222,57.77777778,-181.7777778,-0.166285603,-0.373830662,1,0,0,2.5198,submitButton,-0.166285603,-0.373830662,0,0,0,1,47,107,18,1,34,68872,2,180,2022-02-09_22h06.46.506,orientation adjustment 2,2021.2.3,MacIntel,60.0024001,,,,,,,
,,,,,,,,,,,,,,,,,,,,,,35,19,20,75,142,57,45.6,-25.4,-0.244349026,-0.41578595,1,0,0,1.6915,submitButton,0.141415904,-0.246448976,0,0,0,1,48,108,3,1,19,68872,2,180,2022-02-09_22h06.46.506,orientation adjustment 2,2021.2.3,MacIntel,60.0024001,,,,,,,
,,,,,,,,,,,,,,,,,,,,,,-67.22222222,75,20,75,135.7777778,60.77777778,48.62222222,33.62222222,-0.205405348,-0.389526058,1,0,0,2.6793,submitButton,0.265994692,-0.20635352,0,0,0,1,49,109,59,1,75,68872,2,180,2022-02-09_22h06.46.506,orientation adjustment 2,2021.2.3,MacIntel,60.0024001,,,,,,,
,,,,,,,,,,,,,,,,,,,,,,-47.77777778,-45,20,75,-45.77777778,0.777777778,0.311111111,-135.3111111,-0.168425779,-0.396800768,1,0,0,1.0002,submitButton,-0.168425779,-0.396800768,0,0,0,1,50,110,29,1,45,68872,2,180,2022-02-09_22h06.46.506,orientation adjustment 2,2021.2.3,MacIntel,60.0024001,,,,,,,
,,,,,,,,,,,,,,,,,,,,,,-72.77777778,39,20,75,-52.77777778,88.22222222,70.57777778,-121.5777778,0.419691659,-0.297372564,1,0,0,0.9274,submitButton,0.439320843,-0.281353582,0,0,0,1,51,111,23,1,39,68872,2,180,2022-02-09_22h06.46.506,orientation adjustment 2,2021.2.3,MacIntel,60.0024001,,,,,,,
,,,,,,,,,,,,,,,,,,,,,,-69.44444444,37,20,75,39.55555556,2.555555556,1.022222222,-51.97777778,-0.150315047,-0.393754889,1,0,0,1.2503,submitButton,-0.150315047,-0.393754889,0,0,0,1,52,112,21,1,37,68872,2,180,2022-02-09_22h06.46.506,orientation adjustment 2,2021.2.3,MacIntel,60.0024001,,,,,,,
,,,,,,,,,,,,,,,,,,,,,,21.11111111,-44,20,75,-7.888888889,36.11111111,28.88888889,-105.1111111,0.21254824,-0.290692425,1,0,0,13.717,submitButton,-0.1421491,-0.418888068,0,0,0,1,53,113,28,1,44,68872,2,180,2022-02-09_22h06.46.506,orientation adjustment 2,2021.2.3,MacIntel,60.0024001,,,,,,,
,,,,,,,,,,,,,,,,,,,,,,-52.77777778,61,20,75,-36.77777778,82.22222222,65.77777778,-94.77777778,-0.254572067,-0.373060954,1,0,0,0.816,submitButton,-0.254572067,-0.373060954,0,0,0,1,54,114,45,1,61,68872,2,180,2022-02-09_22h06.46.506,orientation adjustment 2,2021.2.3,MacIntel,60.0024001,,,,,,,
,,,,,,,,,,,,,,,,,,,,,,-61.66666667,-30,20,75,23.33333333,53.33333333,42.66666667,-77.33333333,-0.153314047,-0.376766152,1,0,0,1.7278,submitButton,0.000724145,-0.273712506,0,0,0,1,55,115,14,1,30,68872,2,180,2022-02-09_22h06.46.506,orientation adjustment 2,2021.2.3,MacIntel,60.0024001,,,,,,,
,,,,,,,,,,,,,,,,,,,,,,32.77777778,55,20,75,24.77777778,30.22222222,24.17777778,-59.17777778,-0.179508108,-0.426172525,1,0,0,0.8104,submitButton,0.273094419,-0.277014361,0,0,0,1,56,116,39,1,55,68872,2,180,2022-02-09_22h06.46.506,orientation adjustment 2,2021.2.3,MacIntel,60.0024001,,,,,,,
,,,,,,,,,,,,,,,,,,,,,,55,64,20,75,43,21,13.65,-39.65,-0.345542453,-0.401405712,1,0,0,1.9503,submitButton,0.361940952,-0.24672785,0,0,0,1,57,117,48,1,64,68872,2,180,2022-02-09_22h06.46.506,orientation adjustment 2,2021.2.3,MacIntel,60.0024001,,,,,,,
,,,,,,,,,,,,,,,,,,,,,,20.55555556,27,20,75,-121.4444444,31.55555556,25.24444444,-88.24444444,-0.377065642,-0.420902537,1,0,0,2.4784,submitButton,0.332935793,-0.22037714,0,0,0,1,58,118,11,1,27,68872,2,180,2022-02-09_22h06.46.506,orientation adjustment 2,2021.2.3,MacIntel,60.0024001,,,,,,,
,,,,,,,,,,,,,,,,,,,,,,67.22222222,48,20,75,212.2222222,15.77777778,10.25555556,-31.74444444,-0.169618246,-0.422587696,1,0,0,1.7859,submitButton,0.495708664,-0.395630038,1,0,0,1,59,119,32,1,48,68872,2,180,2022-02-09_22h06.46.506,orientation adjustment 2,2021.2.3,MacIntel,60.0024001,pause_continueButton,,,,,,
,,,,,,,,,,,,,,,,,,,,,,21.11111111,56,20,75,36.11111111,19.88888889,12.92777778,-46.92777778,0.415822076,-0.316115463,1,0,0,1.2019,submitButton,0.394478028,-0.205987773,0,0,0,2,0,120,40,1,56,68872,2,180,2022-02-09_22h06.46.506,orientation adjustment 2,2021.2.3,MacIntel,60.0024001,,,,,,,
,,,,,,,,,,,,,,,,,,,,,,26.66666667,24,20,75,-33.33333333,57.33333333,45.86666667,-111.8666667,-0.09164479,-0.388301719,1,0,0,1.8708,submitButton,0.218890791,-0.367470784,0,0,0,2,1,121,8,1,24,68872,2,180,2022-02-09_22h06.46.506,orientation adjustment 2,2021.2.3,MacIntel,60.0024001,,,,,,,
,,,,,,,,,,,,,,,,,,,,,,46.11111111,-70,20,75,39.11111111,70.88888889,56.71111111,-103.2888889,-0.157151603,-0.390598698,1,0,0,1.178,submitButton,0.434899237,-0.257193639,0,0,0,2,2,122,54,1,70,68872,2,180,2022-02-09_22h06.46.506,orientation adjustment 2,2021.2.3,MacIntel,60.0024001,,,,,,,
,,,,,,,,,,,,,,,,,,,,,,20.55555556,-74,20,75,-128.4444444,54.44444444,43.55555556,-207.5555556,-0.217591724,-0.394102844,1,0,0,1.0043,submitButton,0.381887148,-0.336154256,0,0,0,2,3,123,58,1,74,68872,2,180,2022-02-09_22h06.46.506,orientation adjustment 2,2021.2.3,MacIntel,60.0024001,,,,,,,
,,,,,,,,,,,,,,,,,,,,,,-28.33333333,20,20,75,-41.33333333,61.33333333,49.06666667,-119.0666667,-0.19581223,-0.404848589,1,0,0,3.6333,submitButton,0.252771182,-0.307720305,0,0,0,2,4,124,4,1,20,68872,2,180,2022-02-09_22h06.46.506,orientation adjustment 2,2021.2.3,MacIntel,60.0024001,,,,,,,
,,,,,,,,,,,,,,,,,,,,,,-43.88888889,29,20,75,46.11111111,17.11111111,11.12222222,-49.87777778,-0.176735843,-0.427680379,1,0,0,0.8709,submitButton,0.295947637,-0.249240658,0,0,0,2,5,125,13,1,29,68872,2,180,2022-02-09_22h06.46.506,orientation adjustment 2,2021.2.3,MacIntel,60.0024001,,,,,,,
,,,,,,,,,,,,,,,,,,,,,,-63.88888889,-63,20,75,-33.88888889,29.11111111,18.92222222,-134.0777778,-0.214742334,-0.408234687,1,0,0,1.1832,submitButton,0.246964255,-0.253726394,0,0,0,2,6,126,47,1,63,68872,2,180,2022-02-09_22h06.46.506,orientation adjustment 2,2021.2.3,MacIntel,60.0024001,,,,,,,
,,,,,,,,,,,,,,,,,,,,,,-22.77777778,-50,20,75,-127.7777778,77.77777778,62.22222222,-202.2222222,-0.208644775,-0.42592645,1,0,0,1.134,submitButton,0.292425854,-0.264569146,0,0,0,2,7,127,34,1,50,68872,2,180,2022-02-09_22h06.46.506,orientation adjustment 2,2021.2.3,MacIntel,60.0024001,,,,,,,
,,,,,,,,,,,,,,,,,,,,,,72.77777778,-33,20,75,128.7777778,18.22222222,11.84444444,-111.1555556,-0.241944597,-0.413301224,1,0,0,2.0533,submitButton,-0.241944597,-0.413301224,0,0,0,2,8,128,17,1,33,68872,2,180,2022-02-09_22h06.46.506,orientation adjustment 2,2021.2.3,MacIntel,60.0024001,,,,,,,
,,,,,,,,,,,,,,,,,,,,,,48.33333333,30,20,75,42.33333333,12.33333333,4.933333333,-55.06666667,-0.121131655,-0.389512598,1,0,0,0.8727,submitButton,0.406697436,-0.274640024,0,0,0,2,9,129,14,1,30,68872,2,180,2022-02-09_22h06.46.506,orientation adjustment 2,2021.2.3,MacIntel,60.0024001,,,,,,,
,,,,,,,,,,,,,,,,,,,,,,-39.44444444,38,20,75,-41.44444444,79.44444444,63.55555556,-115.5555556,-0.195274827,-0.410300135,1,0,0,1.2166,submitButton,0.212810637,-0.230268703,0,0,0,2,10,130,22,1,38,68872,2,180,2022-02-09_22h06.46.506,orientation adjustment 2,2021.2.3,MacIntel,60.0024001,,,,,,,
,,,,,,,,,,,,,,,,,,,,,,-53.33333333,48,20,75,46.66666667,1.333333333,0.533333333,-42.53333333,-0.253970998,-0.3999329,1,0,0,1.0081,submitButton,0.302615863,-0.164802116,0,0,0,2,11,131,32,1,48,68872,2,180,2022-02-09_22h06.46.506,orientation adjustment 2,2021.2.3,MacIntel,60.0024001,,,,,,,
,,,,,,,,,,,,,,,,,,,,,,-33.33333333,61,20,75,-40.33333333,78.66666667,62.93333333,-91.93333333,-0.186848262,-0.406696353,1,0,0,1.3958,submitButton,0.28666248,-0.253891552,0,0,0,2,12,132,45,1,61,68872,2,180,2022-02-09_22h06.46.506,orientation adjustment 2,2021.2.3,MacIntel,60.0024001,,,,,,,
,,,,,,,,,,,,,,,,,,,,,,53.33333333,25,20,75,215.3333333,10.33333333,4.133333333,-60.86666667,-0.148099138,-0.416979501,1,0,0,2.2594,submitButton,0.292661408,-0.226506493,0,0,0,2,13,133,9,1,25,68872,2,180,2022-02-09_22h06.46.506,orientation adjustment 2,2021.2.3,MacIntel,60.0024001,,,,,,,
,,,,,,,,,,,,,,,,,,,,,,-71.11111111,-58,20,75,-163.1111111,74.88888889,59.91111111,-207.9111111,-0.118590922,-0.398992309,1,0,0,0.6663,submitButton,0.351412813,-0.408373853,1,0,0,2,14,134,42,1,58,68872,2,180,2022-02-09_22h06.46.506,orientation adjustment 2,2021.2.3,MacIntel,60.0024001,pause_continueButton,,,,,,
,,,,,,,,,,,,,,,,,,,,,,-40.55555556,22,20,75,-69.55555556,88.44444444,70.75555556,-138.7555556,-0.259979751,-0.418669533,1,0,0,0.7545,submitButton,0.437524909,-0.216686718,0,0,0,2,15,135,6,1,22,68872,2,180,2022-02-09_22h06.46.506,orientation adjustment 2,2021.2.3,MacIntel,60.0024001,,,,,,,
,,,,,,,,,,,,,,,,,,,,,,-38.33333333,-23,20,75,-25.33333333,2.333333333,0.933333333,-113.9333333,-0.173814201,-0.423002565,1,0,0,0.6666,submitButton,0.255056171,-0.253116583,0,0,0,2,16,136,7,1,23,68872,2,180,2022-02-09_22h06.46.506,orientation adjustment 2,2021.2.3,MacIntel,60.0024001,,,,,,,
,,,,,,,,,,,,,,,,,,,,,,-29.44444444,43,20,75,145.5555556,77.44444444,61.95555556,14.95555556,-0.17514568,-0.420961948,1,0,0,2.5233,submitButton,0.327887589,-0.248518834,0,0,0,2,17,137,27,1,43,68872,2,180,2022-02-09_22h06.46.506,orientation adjustment 2,2021.2.3,MacIntel,60.0024001,,,,,,,
,,,,,,,,,,,,,,,,,,,,,,54.44444444,65,20,75,50.44444444,14.55555556,5.822222222,-30.82222222,-0.28007575,-0.40769357,1,0,0,0.8342,submitButton,-0.28007575,-0.40769357,0,0,0,2,18,138,49,1,65,68872,2,180,2022-02-09_22h06.46.506,orientation adjustment 2,2021.2.3,MacIntel,60.0024001,,,,,,,
,,,,,,,,,,,,,,,,,,,,,,67.77777778,73,20,75,61.77777778,11.22222222,4.488888889,-21.48888889,-0.180057115,-0.39678197,1,0,0,1.4548,submitButton,0.366226951,-0.3080015,0,0,0,2,19,139,57,1,73,68872,2,180,2022-02-09_22h06.46.506,orientation adjustment 2,2021.2.3,MacIntel,60.0024001,,,,,,,
,,,,,,,,,,,,,,,,,,,,,,42.22222222,46,20,75,35.22222222,10.77777778,4.311111111,-48.31111111,-0.23563941,-0.414052985,1,0,0,1.3195,submitButton,0.425404518,-0.255076439,0,0,0,2,20,140,30,1,46,68872,2,180,2022-02-09_22h06.46.506,orientation adjustment 2,2021.2.3,MacIntel,60.0024001,,,,,,,
,,,,,,,,,,,,,,,,,,,,,,67.22222222,-51,20,75,-128.7777778,77.77777778,62.22222222,-203.2222222,-0.140007299,-0.387468113,1,0,0,3.14,submitButton,0.438500389,-0.262340473,0,0,0,2,21,141,35,1,51,68872,2,180,2022-02-09_22h06.46.506,orientation adjustment 2,2021.2.3,MacIntel,60.0024001,,,,,,,
,,,,,,,,,,,,,,,,,,,,,,63.33333333,-47,20,75,-144.6666667,82.33333333,65.86666667,-202.8666667,-0.157648626,-0.404340118,1,0,0,3.0254,submitButton,0.205149758,-0.219904794,0,0,0,2,22,142,31,1,47,68872,2,180,2022-02-09_22h06.46.506,orientation adjustment 2,2021.2.3,MacIntel,60.0024001,,,,,,,
,,,,,,,,,,,,,,,,,,,,,,-46.66666667,-26,20,75,-57.66666667,31.66666667,25.33333333,-141.3333333,-0.215718278,-0.406196855,1,0,0,3.0121,submitButton,-0.215718278,-0.406196855,0,0,0,2,23,143,10,1,26,68872,2,180,2022-02-09_22h06.46.506,orientation adjustment 2,2021.2.3,MacIntel,60.0024001,,,,,,,
,,,,,,,,,,,,,,,,,,,,,,-46.11111111,-18,20,75,-16.11111111,1.888888889,0.755555556,-107.2444444,-0.198708344,-0.4185159,1,0,0,1.1589,submitButton,0.190327034,-0.353642956,0,0,0,2,24,144,2,1,18,68872,2,180,2022-02-09_22h06.46.506,orientation adjustment 2,2021.2.3,MacIntel,60.0024001,,,,,,,
,,,,,,,,,,,,,,,,,,,,,,-42.77777778,67,20,75,-28.77777778,84.22222222,67.37777778,-90.37777778,0.387906808,-0.31427497,1,0,0,0.6574,submitButton,0.158503118,-0.246073328,0,0,0,2,25,145,51,1,67,68872,2,180,2022-02-09_22h06.46.506,orientation adjustment 2,2021.2.3,MacIntel,60.0024001,,,,,,,
,,,,,,,,,,,,,,,,,,,,,,-62.77777778,21,20,75,-28.77777778,49.77777778,39.82222222,-108.8222222,-0.193650549,-0.399175027,1,0,0,0.5028,submitButton,0.410826786,-0.268550433,0,0,0,2,26,146,5,1,21,68872,2,180,2022-02-09_22h06.46.506,orientation adjustment 2,2021.2.3,MacIntel,60.0024001,,,,,,,
,,,,,,,,,,,,,,,,,,,,,,-61.11111111,42,20,75,-73.11111111,64.88888889,51.91111111,-99.91111111,-0.120962551,-0.401581545,1,0,0,0.9347,submitButton,0.065160792,-0.35116024,0,0,0,2,27,147,26,1,42,68872,2,180,2022-02-09_22h06.46.506,orientation adjustment 2,2021.2.3,MacIntel,60.0024001,,,,,,,
,,,,,,,,,,,,,,,,,,,,,,68.88888889,-69,20,75,10.88888889,79.88888889,63.91111111,-95.08888889,-0.224584543,-0.385217471,1,0,0,0.5699,submitButton,0.239057534,-0.241704556,0,0,0,2,28,148,53,1,69,68872,2,180,2022-02-09_22h06.46.506,orientation adjustment 2,2021.2.3,MacIntel,60.0024001,,,,,,,
,,,,,,,,,,,,,,,,,,,,,,-48.88888889,40,20,75,-147.8888889,7.888888889,3.155555556,-53.15555556,0.401104481,-0.305262654,1,0,0,2.1797,submitButton,0.284267875,-0.393484292,1,0,0,2,29,149,24,1,40,68872,2,180,2022-02-09_22h06.46.506,orientation adjustment 2,2021.2.3,MacIntel,60.0024001,pause_continueButton,,,,,,
,,,,,,,,,,,,,,,,,,,,,,-41.66666667,32,20,75,36.33333333,4.333333333,1.733333333,-56.26666667,0.193741212,-0.289851084,1,0,0,0.4114,submitButton,-0.246230364,-0.419807618,0,0,0,2,30,150,16,1,32,68872,2,180,2022-02-09_22h06.46.506,orientation adjustment 2,2021.2.3,MacIntel,60.0024001,,,,,,,
,,,,,,,,,,,,,,,,,,,,,,35,-45,20,75,-63,18,11.7,-146.7,-0.115317612,-0.388418374,1,0,0,1.2062,submitButton,0.367178217,-0.237938478,0,0,0,2,31,151,29,1,45,68872,2,180,2022-02-09_22h06.46.506,orientation adjustment 2,2021.2.3,MacIntel,60.0024001,,,,,,,
,,,,,,,,,,,,,,,,,,,,,,-57.22222222,-44,20,75,34.77777778,78.77777778,63.02222222,-70.97777778,-0.239129708,-0.406319931,1,0,0,2.274,submitButton,0.430486604,-0.176364913,0,0,0,2,32,152,28,1,44,68872,2,180,2022-02-09_22h06.46.506,orientation adjustment 2,2021.2.3,MacIntel,60.0024001,,,,,,,
,,,,,,,,,,,,,,,,,,,,,,-64.44444444,72,20,75,-28.44444444,79.55555556,63.64444444,-81.64444444,-0.218407228,-0.353945579,1,0,0,0.4069,submitButton,0.342348589,-0.270196293,0,0,0,2,33,153,56,1,72,68872,2,180,2022-02-09_22h06.46.506,orientation adjustment 2,2021.2.3,MacIntel,60.0024001,,,,,,,
,,,,,,,,,,,,,,,,,,,,,,-31.11111111,-62,20,75,-25.11111111,36.88888889,29.51111111,-122.4888889,-0.170968446,-0.374625821,1,0,0,0.8859,submitButton,0.367732252,-0.230371976,0,0,0,2,34,154,46,1,62,68872,2,180,2022-02-09_22h06.46.506,orientation adjustment 2,2021.2.3,MacIntel,60.0024001,,,,,,,
,,,,,,,,,,,,,,,,,,,,,,-32.77777778,57,20,75,-61.77777778,61.22222222,48.97777778,-81.97777778,-0.251532068,-0.39844949,1,0,0,1.6415,submitButton,0.221305199,-0.239983195,0,0,0,2,35,155,41,1,57,68872,2,180,2022-02-09_22h06.46.506,orientation adjustment 2,2021.2.3,MacIntel,60.0024001,,,,,,,
,,,,,,,,,,,,,,,,,,,,,,-28.88888889,39,20,75,-57.88888889,83.11111111,66.48888889,-117.4888889,-0.198184943,-0.418934637,1,0,0,1.4701,submitButton,0.339452939,-0.266685109,0,0,0,2,36,156,23,1,39,68872,2,180,2022-02-09_22h06.46.506,orientation adjustment 2,2021.2.3,MacIntel,60.0024001,,,,,,,
,,,,,,,,,,,,,,,,,,,,,,25.55555556,-64,20,75,37.55555556,78.44444444,62.75555556,-91.24444444,-0.149884087,-0.385163398,1,0,0,1.2402,submitButton,-0.149884087,-0.385163398,0,0,0,2,37,157,48,1,64,68872,2,180,2022-02-09_22h06.46.506,orientation adjustment 2,2021.2.3,MacIntel,60.0024001,,,,,,,
,,,,,,,,,,,,,,,,,,,,,,-32.22222222,71,20,75,-47.22222222,61.77777778,49.42222222,-68.42222222,-0.209261315,-0.399478733,1,0,0,1.5851,submitButton,0.014631728,-0.306167274,0,0,0,2,38,158,55,1,71,68872,2,180,2022-02-09_22h06.46.506,orientation adjustment 2,2021.2.3,MacIntel,60.0024001,,,,,,,
,,,,,,,,,,,,,,,,,,,,,,-51.66666667,-37,20,75,-13.66666667,23.33333333,15.16666667,-111.8333333,-0.344739327,-0.402533508,1,0,0,2.2096,submitButton,0.16135715,-0.330335494,0,0,0,2,39,159,21,1,37,68872,2,180,2022-02-09_22h06.46.506,orientation adjustment 2,2021.2.3,MacIntel,60.0024001,,,,,,,
,,,,,,,,,,,,,,,,,,,,,,-73.33333333,-28,20,75,-6.333333333,21.66666667,14.08333333,-103.9166667,-0.140042729,-0.393826367,1,0,0,1.977,submitButton,0.405101858,-0.276444236,0,0,0,2,40,160,12,1,28,68872,2,180,2022-02-09_22h06.46.506,orientation adjustment 2,2021.2.3,MacIntel,60.0024001,,,,,,,
,,,,,,,,,,,,,,,,,,,,,,-20.55555556,52,20,75,204.4444444,27.55555556,17.91111111,-20.08888889,-0.289699888,-0.389514145,1,0,0,3.3886,submitButton,0.186591744,-0.230543013,0,0,0,2,41,161,36,1,52,68872,2,180,2022-02-09_22h06.46.506,orientation adjustment 2,2021.2.3,MacIntel,60.0024001,,,,,,,
,,,,,,,,,,,,,,,,,,,,,,49.44444444,-41,20,75,-37.55555556,3.444444444,1.377777778,-129.6222222,-0.143128679,-0.38706361,1,0,0,1.0504,submitButton,0.35546728,-0.261858999,0,0,0,2,42,162,25,1,41,68872,2,180,2022-02-09_22h06.46.506,orientation adjustment 2,2021.2.3,MacIntel,60.0024001,,,,,,,
,,,,,,,,,,,,,,,,,,,,,,36.11111111,49,20,75,159.1111111,69.88888889,55.91111111,14.91111111,-0.22514206,-0.388384801,1,0,0,1.9337,submitButton,0.213424547,-0.300511427,0,0,0,2,43,163,33,1,49,68872,2,180,2022-02-09_22h06.46.506,orientation adjustment 2,2021.2.3,MacIntel,60.0024001,,,,,,,
,,,,,,,,,,,,,,,,,,,,,,70,55,20,75,74,19,12.35,-22.65,-0.258061514,-0.427284231,1,0,0,0.8049,submitButton,0.252187286,-0.395223214,1,0,0,2,44,164,39,1,55,68872,2,180,2022-02-09_22h06.46.506,orientation adjustment 2,2021.2.3,MacIntel,60.0024001,pause_continueButton,,,,,,
,,,,,,,,,,,,,,,,,,,,,,-62.22222222,75,20,75,62.77777778,12.22222222,4.888888889,-19.88888889,-0.117117414,-0.402331992,1,0,0,0.9453,submitButton,0.369668127,-0.281494063,0,0,0,2,45,165,59,1,75,68872,2,180,2022-02-09_22h06.46.506,orientation adjustment 2,2021.2.3,MacIntel,60.0024001,,,,,,,
,,,,,,,,,,,,,,,,,,,,,,68.33333333,54,20,75,45.33333333,8.666666667,3.466666667,-39.46666667,-0.188823898,-0.407287288,1,0,0,1.4069,submitButton,0.356606448,-0.201262151,0,0,0,2,46,166,38,1,54,68872,2,180,2022-02-09_22h06.46.506,orientation adjustment 2,2021.2.3,MacIntel,60.0024001,,,,,,,
,,,,,,,,,,,,,,,,,,,,,,64.44444444,66,20,75,38.44444444,27.55555556,17.91111111,-41.91111111,-0.259092072,-0.381322515,1,0,0,2.1932,submitButton,0.323946993,-0.241565003,0,0,0,2,47,167,50,1,66,68872,2,180,2022-02-09_22h06.46.506,orientation adjustment 2,2021.2.3,MacIntel,60.0024001,,,,,,,
,,,,,,,,,,,,,,,,,,,,,,-32.77777778,-36,20,75,-161.7777778,54.22222222,43.37777778,-169.3777778,-0.164788114,-0.385848013,1,0,0,2.1829,submitButton,0.311048849,-0.223008459,0,0,0,2,48,168,20,1,36,68872,2,180,2022-02-09_22h06.46.506,orientation adjustment 2,2021.2.3,MacIntel,60.0024001,,,,,,,
,,,,,,,,,,,,,,,,,,,,,,-71.11111111,60,20,75,122.8888889,62.88888889,50.31111111,20.31111111,-0.166703798,-0.416493695,1,0,0,2.8475,submitButton,0.396773692,-0.224721698,0,0,0,2,49,169,44,1,60,68872,2,180,2022-02-09_22h06.46.506,orientation adjustment 2,2021.2.3,MacIntel,60.0024001,,,,,,,
,,,,,,,,,,,,,,,,,,,,,,62.77777778,-68,20,75,-67.22222222,0.777777778,0.311111111,-157.6888889,-0.118486334,-0.406747177,1,0,0,1.2767,submitButton,0.301189853,-0.299873304,0,0,0,2,50,170,52,1,68,68872,2,180,2022-02-09_22h06.46.506,orientation adjustment 2,2021.2.3,MacIntel,60.0024001,,,,,,,
,,,,,,,,,,,,,,,,,,,,,,-73.88888889,-53,20,75,-174.8888889,58.11111111,46.48888889,-189.4888889,-0.371522466,-0.393437645,1,0,0,1.4612,submitButton,0.089127419,-0.256799193,0,0,0,2,51,171,37,1,53,68872,2,180,2022-02-09_22h06.46.506,orientation adjustment 2,2021.2.3,MacIntel,60.0024001,,,,,,,
,,,,,,,,,,,,,,,,,,,,,,27.22222222,34,20,75,125.2222222,88.77777778,71.02222222,15.02222222,-0.20337881,-0.402764807,1,0,0,1.5525,submitButton,0.342494795,-0.208103813,0,0,0,2,52,172,18,1,34,68872,2,180,2022-02-09_22h06.46.506,orientation adjustment 2,2021.2.3,MacIntel,60.0024001,,,,,,,
,,,,,,,,,,,,,,,,,,,,,,62.22222222,-59,20,75,-69.77777778,10.77777778,4.311111111,-153.3111111,-0.16752464,-0.387075601,1,0,0,1.1864,submitButton,-0.16752464,-0.387075601,0,0,0,2,53,173,43,1,59,68872,2,180,2022-02-09_22h06.46.506,orientation adjustment 2,2021.2.3,MacIntel,60.0024001,,,,,,,
,,,,,,,,,,,,,,,,,,,,,,70,-31,20,75,-58,27,17.55,-138.55,-0.139710478,-0.417501355,1,0,0,1.8348,submitButton,-0.139710478,-0.417501355,0,0,0,2,54,174,15,1,31,68872,2,180,2022-02-09_22h06.46.506,orientation adjustment 2,2021.2.3,MacIntel,60.0024001,,,,,,,
,,,,,,,,,,,,,,,,,,,,,,28.88888889,-16,20,75,59.88888889,75.88888889,60.71111111,-45.28888889,-0.305832934,-0.406022878,1,0,0,0.9502,submitButton,0.348302728,-0.185956329,0,0,0,2,55,175,0,1,16,68872,2,180,2022-02-09_22h06.46.506,orientation adjustment 2,2021.2.3,MacIntel,60.0024001,,,,,,,
,,,,,,,,,,,,,,,,,,,,,,38.88888889,35,20,75,33.88888889,1.111111111,0.444444444,-55.44444444,-0.180166344,-0.411565242,1,0,0,0.5896,submitButton,0.339100807,-0.221484514,0,0,0,2,56,176,19,1,35,68872,2,180,2022-02-09_22h06.46.506,orientation adjustment 2,2021.2.3,MacIntel,60.0024001,,,,,,,
,,,,,,,,,,,,,,,,,,,,,,-45.55555556,-19,20,75,4.444444444,23.44444444,15.23888889,-93.76111111,-0.149719006,-0.398427521,1,0,0,1.607,submitButton,0.186542545,-0.283082215,0,0,0,2,57,177,3,1,19,68872,2,180,2022-02-09_22h06.46.506,orientation adjustment 2,2021.2.3,MacIntel,60.0024001,,,,,,,
,,,,,,,,,,,,,,,,,,,,,,26.66666667,-27,20,75,35.66666667,62.66666667,50.13333333,-66.86666667,0.202685996,-0.284178527,1,0,0,0.286,submitButton,-0.121387786,-0.390339782,0,0,0,2,58,178,11,1,27,68872,2,180,2022-02-09_22h06.46.506,orientation adjustment 2,2021.2.3,MacIntel,60.0024001,,,,,,,
,,,,,,,,,,,,,,,,,,,,,,-31.66666667,17,20,75,-59.66666667,76.66666667,61.33333333,-134.3333333,-0.30150671,-0.417813493,1,0,0,0.8644,submitButton,-0.30150671,-0.417813493,0,0,0,2,59,179,1,1,17,68872,2,180,2022-02-09_22h06.46.506,orientation adjustment 2,2021.2.3,MacIntel,60.0024001,,,,,,,
,,,,,,,,,,,,,,,,,,,,,,,,,,,,,,,,,,,,,,,,,,,,,,,,68872,2,180,2022-02-09_22h06.46.506,orientation adjustment 2,2021.2.3,MacIntel,60.0024001,,0.421195181,-0.416049662,1,0,0,EndButtonTxt
