consentMouse1.x,consentMouse1.y,consentMouse1.leftButton,consentMouse1.midButton,consentMouse1.rightButton,consentMouse1.clicked_name,consent_Mouse.x,consent_Mouse.y,consent_Mouse.leftButton,consent_Mouse.midButton,consent_Mouse.rightButton,consent_Mouse.clicked_name,startMouse.x,startMouse.y,startMouse.leftButton,startMouse.midButton,startMouse.rightButton,startMouse_2.x,startMouse_2.y,startMouse_2.leftButton,startMouse_2.midButton,startMouse_2.rightButton,start_distance,fixedOri,minimalDistance,maxOri,this_ori,accuracy,presented_accuracy,presented_this_ori,submitMouse.x,submitMouse.y,submitMouse.leftButton,submitMouse.midButton,submitMouse.rightButton,submitMouse.time,submitMouse.clicked_name,pauseMouse.x,pauseMouse.y,pauseMouse.leftButton,pauseMouse.midButton,pauseMouse.rightButton,trials.thisRepN,trials.thisTrialN,trials.thisN,trials.thisIndex,trials.ran,startOri,participant,condition,nTrials,date,expName,psychopyVersion,OS,frameRate,pauseMouse.clicked_name,EndButtonMouse.x,EndButtonMouse.y,EndButtonMouse.leftButton,EndButtonMouse.midButton,EndButtonMouse.rightButton,EndButtonMouse.clicked_name
0.365117187,-0.398923611,1,0,0,consent_button1,0.365117187,-0.398923611,1,0,0,consent_button,0.365117187,-0.398923611,1,0,0,0.365117187,-0.398923611,1,0,0,-72.22222222,-61,20,75,-123.2222222,62.22222222,49.77777778,-200.7777778,0.21515191,-0.316388889,1,0,0,1.3133,submitButton,-0.376375868,-0.416493056,0,0,0,0,0,0,45,1,61,69013,2,180,2022-02-10_11h29.23.386,orientation adjustment 2,2021.2.3,MacIntel,59.99880002,,,,,,,
,,,,,,,,,,,,,,,,,,,,,,50,39,20,75,102,63,50.4,-0.6,-0.205651042,-0.34078125,1,0,0,0.7335,submitButton,-0.334587674,-0.366875,0,0,0,0,1,1,23,1,39,69013,2,180,2022-02-10_11h29.23.386,orientation adjustment 2,2021.2.3,MacIntel,59.99880002,,,,,,,
,,,,,,,,,,,,,,,,,,,,,,39.44444444,-63,20,75,-30.55555556,32.44444444,25.95555556,-127.0444444,-0.422426215,-0.420672743,1,0,0,0.9327,submitButton,-0.422426215,-0.420672743,0,0,0,0,2,2,47,1,63,69013,2,180,2022-02-10_11h29.23.386,orientation adjustment 2,2021.2.3,MacIntel,59.99880002,,,,,,,
,,,,,,,,,,,,,,,,,,,,,,49.44444444,-36,20,75,19.44444444,55.44444444,44.35555556,-81.64444444,0.195625,-0.289913194,1,0,0,0.8323,submitButton,-0.547261285,-0.396901042,0,0,0,0,3,3,20,1,36,69013,2,180,2022-02-10_11h29.23.386,orientation adjustment 2,2021.2.3,MacIntel,59.99880002,,,,,,,
,,,,,,,,,,,,,,,,,,,,,,26.11111111,43,20,75,66.11111111,23.11111111,15.02222222,-31.97777778,0.498606771,-0.31687066,1,0,0,1.7994,submitButton,-0.346948785,-0.409722222,0,0,0,0,4,4,27,1,43,69013,2,180,2022-02-10_11h29.23.386,orientation adjustment 2,2021.2.3,MacIntel,59.99880002,,,,,,,
,,,,,,,,,,,,,,,,,,,,,,71.11111111,33,20,75,109.1111111,76.11111111,60.88888889,3.888888889,-0.338958333,-0.36906684,1,0,0,0.8842,submitButton,0.012786458,-0.385290799,0,0,0,0,5,5,17,1,33,69013,2,180,2022-02-10_11h29.23.386,orientation adjustment 2,2021.2.3,MacIntel,59.99880002,,,,,,,
,,,,,,,,,,,,,,,,,,,,,,-28.88888889,16,20,75,-26.88888889,42.88888889,34.31111111,-108.3111111,0.387113715,-0.270503472,1,0,0,0.5491,submitButton,-0.273715278,-0.314084201,0,0,0,0,6,6,0,1,16,69013,2,180,2022-02-10_11h29.23.386,orientation adjustment 2,2021.2.3,MacIntel,59.99880002,,,,,,,
,,,,,,,,,,,,,,,,,,,,,,47.77777778,-34,20,75,20.77777778,54.77777778,43.82222222,-80.17777778,-0.503272569,-0.359522569,1,0,0,0.7831,submitButton,-0.435238715,-0.407478299,0,0,0,0,7,7,18,1,34,69013,2,180,2022-02-10_11h29.23.386,orientation adjustment 2,2021.2.3,MacIntel,59.99880002,,,,,,,
,,,,,,,,,,,,,,,,,,,,,,65.55555556,65,20,75,124.5555556,59.55555556,47.64444444,22.64444444,-0.426111111,-0.397751736,1,0,0,0.5154,submitButton,-0.426111111,-0.397751736,0,0,0,0,8,8,49,1,65,69013,2,180,2022-02-10_11h29.23.386,orientation adjustment 2,2021.2.3,MacIntel,59.99880002,,,,,,,
,,,,,,,,,,,,,,,,,,,,,,74.44444444,-69,20,75,19.44444444,88.44444444,70.75555556,-88.24444444,-0.503506944,-0.346462674,1,0,0,0.449,submitButton,-0.446375868,-0.393967014,0,0,0,0,9,9,53,1,69,69013,2,180,2022-02-10_11h29.23.386,orientation adjustment 2,2021.2.3,MacIntel,59.99880002,,,,,,,
,,,,,,,,,,,,,,,,,,,,,,-50.55555556,-62,20,75,-117.5555556,55.55555556,44.44444444,-196.4444444,-0.402326389,-0.410416667,1,0,0,0.6343,submitButton,-0.402326389,-0.410416667,0,0,0,0,10,10,46,1,62,69013,2,180,2022-02-10_11h29.23.386,orientation adjustment 2,2021.2.3,MacIntel,59.99880002,,,,,,,
,,,,,,,,,,,,,,,,,,,,,,53.33333333,29,20,75,89.33333333,60.33333333,48.26666667,-12.73333333,-0.564396701,-0.397838542,1,0,0,0.549,submitButton,0.097738715,-0.337486979,0,0,0,0,11,11,13,1,29,69013,2,180,2022-02-10_11h29.23.386,orientation adjustment 2,2021.2.3,MacIntel,59.99880002,,,,,,,
,,,,,,,,,,,,,,,,,,,,,,29.44444444,53,20,75,69.44444444,16.44444444,10.68888889,-26.31111111,0.3878125,-0.306124132,1,0,0,0.883,submitButton,-0.458532986,-0.420230035,0,0,0,0,12,12,37,1,53,69013,2,180,2022-02-10_11h29.23.386,orientation adjustment 2,2021.2.3,MacIntel,59.99880002,,,,,,,
,,,,,,,,,,,,,,,,,,,,,,-52.22222222,51,20,75,-13.22222222,64.22222222,51.37777778,-90.37777778,0.385876736,-0.308029514,1,0,0,1.1352,submitButton,-0.526627604,-0.398185764,0,0,0,0,13,13,35,1,51,69013,2,180,2022-02-10_11h29.23.386,orientation adjustment 2,2021.2.3,MacIntel,59.99880002,,,,,,,
,,,,,,,,,,,,,,,,,,,,,,-37.77777778,22,20,75,-10.77777778,32.77777778,26.22222222,-94.22222222,0.189900174,-0.29593316,1,0,0,0.0649,submitButton,0.394965278,-0.371731771,1,0,0,0,14,14,6,1,22,69013,2,180,2022-02-10_11h29.23.386,orientation adjustment 2,2021.2.3,MacIntel,59.99880002,pause_continueButton,,,,,,
,,,,,,,,,,,,,,,,,,,,,,-23.33333333,37,20,75,22.66666667,14.33333333,5.733333333,-58.73333333,0.187443576,-0.3003125,1,0,0,0.4652,submitButton,-0.021271701,-0.189270833,0,0,0,0,15,15,21,1,37,69013,2,180,2022-02-10_11h29.23.386,orientation adjustment 2,2021.2.3,MacIntel,59.99880002,,,,,,,
,,,,,,,,,,,,,,,,,,,,,,-33.33333333,-46,20,75,-90.33333333,44.33333333,35.46666667,-171.4666667,0.399101563,-0.291315104,1,0,0,0.2665,submitButton,-0.343485243,-0.409401042,0,0,0,0,16,16,30,1,46,69013,2,180,2022-02-10_11h29.23.386,orientation adjustment 2,2021.2.3,MacIntel,59.99880002,,,,,,,
,,,,,,,,,,,,,,,,,,,,,,42.22222222,-45,20,75,9.222222222,54.22222222,43.37777778,-91.62222222,0.254782986,-0.268298611,1,0,0,1.6186,submitButton,-0.438975694,-0.398506944,0,0,0,0,17,17,29,1,45,69013,2,180,2022-02-10_11h29.23.386,orientation adjustment 2,2021.2.3,MacIntel,59.99880002,,,,,,,
,,,,,,,,,,,,,,,,,,,,,,33.88888889,68,20,75,85.88888889,17.88888889,11.62777778,-10.37222222,0.389618056,-0.299748264,1,0,0,0.5017,submitButton,0.108667535,-0.263923611,0,0,0,0,18,18,52,1,68,69013,2,180,2022-02-10_11h29.23.386,orientation adjustment 2,2021.2.3,MacIntel,59.99880002,,,,,,,
,,,,,,,,,,,,,,,,,,,,,,-36.11111111,-23,20,75,-53.11111111,30.11111111,24.08888889,-137.0888889,-0.407864583,-0.398988715,1,0,0,1.1165,submitButton,-0.407864583,-0.398988715,0,0,0,0,19,19,7,1,23,69013,2,180,2022-02-10_11h29.23.386,orientation adjustment 2,2021.2.3,MacIntel,59.99880002,,,,,,,
,,,,,,,,,,,,,,,,,,,,,,-23.88888889,-52,20,75,-82.88888889,30.88888889,24.71111111,-166.7111111,-0.356749132,-0.402005208,1,0,0,0.6674,submitButton,-0.356749132,-0.402005208,0,0,0,0,20,20,36,1,52,69013,2,180,2022-02-10_11h29.23.386,orientation adjustment 2,2021.2.3,MacIntel,59.99880002,,,,,,,
,,,,,,,,,,,,,,,,,,,,,,-56.11111111,-18,20,75,-68.11111111,50.11111111,40.08888889,-148.0888889,-0.519947917,-0.411961806,1,0,0,0.7153,submitButton,-0.519947917,-0.411961806,0,0,0,0,21,21,2,1,18,69013,2,180,2022-02-10_11h29.23.386,orientation adjustment 2,2021.2.3,MacIntel,59.99880002,,,,,,,
,,,,,,,,,,,,,,,,,,,,,,-35.55555556,21,20,75,-21.55555556,42.55555556,34.04444444,-103.0444444,-0.413237847,-0.403033854,1,0,0,0.8154,submitButton,-0.413237847,-0.401032986,0,0,0,0,22,22,5,1,21,69013,2,180,2022-02-10_11h29.23.386,orientation adjustment 2,2021.2.3,MacIntel,59.99880002,,,,,,,
,,,,,,,,,,,,,,,,,,,,,,-52.77777778,28,20,75,-19.77777778,47.77777778,38.22222222,-100.2222222,-0.415429687,-0.424375,1,0,0,1.017,submitButton,-0.415429687,-0.424375,0,0,0,0,23,23,12,1,28,69013,2,180,2022-02-10_11h29.23.386,orientation adjustment 2,2021.2.3,MacIntel,59.99880002,,,,,,,
,,,,,,,,,,,,,,,,,,,,,,36.66666667,40,20,75,73.66666667,33.66666667,26.93333333,-23.06666667,-0.341631944,-0.37843316,1,0,0,0.5826,submitButton,-0.336332465,-0.368780382,0,0,0,0,24,24,24,1,40,69013,2,180,2022-02-10_11h29.23.386,orientation adjustment 2,2021.2.3,MacIntel,59.99880002,,,,,,,
,,,,,,,,,,,,,,,,,,,,,,-38.33333333,32,20,75,0.666666667,31.33333333,25.06666667,-83.06666667,-0.376636285,-0.42890625,1,0,0,0.583,submitButton,-0.379578993,-0.404696181,0,0,0,0,25,25,16,1,32,69013,2,180,2022-02-10_11h29.23.386,orientation adjustment 2,2021.2.3,MacIntel,59.99880002,,,,,,,
,,,,,,,,,,,,,,,,,,,,,,68.33333333,-26,20,75,34.33333333,60.33333333,48.26666667,-67.73333333,-0.407552083,-0.389053819,1,0,0,0.5499,submitButton,-0.407552083,-0.389053819,0,0,0,0,26,26,10,1,26,69013,2,180,2022-02-10_11h29.23.386,orientation adjustment 2,2021.2.3,MacIntel,59.99880002,,,,,,,
,,,,,,,,,,,,,,,,,,,,,,24.44444444,-67,20,75,-35.55555556,31.44444444,25.15555556,-131.8444444,0.221041667,-0.293658854,1,0,0,0.1326,submitButton,-0.133997396,-0.13374566,0,0,0,0,27,27,51,1,67,69013,2,180,2022-02-10_11h29.23.386,orientation adjustment 2,2021.2.3,MacIntel,59.99880002,,,,,,,
,,,,,,,,,,,,,,,,,,,,,,-68.88888889,-47,20,75,-121.8888889,74.88888889,59.91111111,-196.9111111,-0.325993924,-0.396571181,1,0,0,0.4659,submitButton,-0.095559896,-0.362209201,0,0,0,0,28,28,31,1,47,69013,2,180,2022-02-10_11h29.23.386,orientation adjustment 2,2021.2.3,MacIntel,59.99880002,,,,,,,
,,,,,,,,,,,,,,,,,,,,,,-45.55555556,-27,20,75,-65.55555556,38.55555556,30.84444444,-147.8444444,-0.351575521,-0.395060764,1,0,0,0.6807,submitButton,0.440659722,-0.413355035,1,0,0,0,29,29,11,1,27,69013,2,180,2022-02-10_11h29.23.386,orientation adjustment 2,2021.2.3,MacIntel,59.99880002,pause_continueButton,,,,,,
,,,,,,,,,,,,,,,,,,,,,,-20.55555556,25,20,75,9.444444444,15.55555556,10.11111111,-75.11111111,-0.259800347,-0.42203125,1,0,0,1.1153,submitButton,-0.259800347,-0.42203125,0,0,0,0,30,30,9,1,25,69013,2,180,2022-02-10_11h29.23.386,orientation adjustment 2,2021.2.3,MacIntel,59.99880002,,,,,,,
,,,,,,,,,,,,,,,,,,,,,,-67.22222222,49,20,75,-25.22222222,74.22222222,59.37777778,-100.3777778,-0.27562934,-0.416453993,1,0,0,0.6992,submitButton,-0.27562934,-0.416453993,0,0,0,0,31,31,33,1,49,69013,2,180,2022-02-10_11h29.23.386,orientation adjustment 2,2021.2.3,MacIntel,59.99880002,,,,,,,
,,,,,,,,,,,,,,,,,,,,,,23.88888889,60,20,75,91.88888889,31.88888889,25.51111111,-4.488888889,-0.265360243,-0.391384549,1,0,0,0.7341,submitButton,-0.265360243,-0.391384549,0,0,0,0,32,32,44,1,60,69013,2,180,2022-02-10_11h29.23.386,orientation adjustment 2,2021.2.3,MacIntel,59.99880002,,,,,,,
,,,,,,,,,,,,,,,,,,,,,,73.88888889,-73,20,75,-6.111111111,66.88888889,53.51111111,-109.4888889,0.365381944,-0.302773438,1,0,0,0.2664,submitButton,-0.401853299,-0.392643229,0,0,0,0,33,33,57,1,73,69013,2,180,2022-02-10_11h29.23.386,orientation adjustment 2,2021.2.3,MacIntel,59.99880002,,,,,,,
,,,,,,,,,,,,,,,,,,,,,,-56.11111111,-48,20,75,-97.11111111,49.11111111,39.28888889,-177.2888889,-0.385052083,-0.386028646,1,0,0,0.7839,submitButton,-0.385052083,-0.386028646,0,0,0,0,34,34,32,1,48,69013,2,180,2022-02-10_11h29.23.386,orientation adjustment 2,2021.2.3,MacIntel,59.99880002,,,,,,,
,,,,,,,,,,,,,,,,,,,,,,64.44444444,-75,20,75,-15.55555556,59.44444444,47.55555556,-117.4444444,0.392404514,-0.291011285,1,0,0,2.8169,submitButton,-0.386054687,-0.414934896,0,0,0,0,35,35,59,1,75,69013,2,180,2022-02-10_11h29.23.386,orientation adjustment 2,2021.2.3,MacIntel,59.99880002,,,,,,,
,,,,,,,,,,,,,,,,,,,,,,-38.88888889,35,20,75,6.111111111,28.88888889,18.77777778,-73.77777778,0.1784375,-0.294032118,1,0,0,0.3492,submitButton,-0.308398438,-0.401597222,0,0,0,0,36,36,19,1,35,69013,2,180,2022-02-10_11h29.23.386,orientation adjustment 2,2021.2.3,MacIntel,59.99880002,,,,,,,
,,,,,,,,,,,,,,,,,,,,,,62.22222222,50,20,75,120.2222222,70.22222222,56.17777778,16.17777778,-0.360078125,-0.408359375,1,0,0,0.6335,submitButton,-0.360078125,-0.408359375,0,0,0,0,37,37,34,1,50,69013,2,180,2022-02-10_11h29.23.386,orientation adjustment 2,2021.2.3,MacIntel,59.99880002,,,,,,,
,,,,,,,,,,,,,,,,,,,,,,72.77777778,-17,20,75,51.77777778,68.77777778,55.02222222,-51.97777778,-0.51578559,-0.396475694,1,0,0,1.8168,submitButton,-0.51578559,-0.396475694,0,0,0,0,38,38,1,1,17,69013,2,180,2022-02-10_11h29.23.386,orientation adjustment 2,2021.2.3,MacIntel,59.99880002,,,,,,,
,,,,,,,,,,,,,,,,,,,,,,-53.33333333,64,20,75,15.66666667,48.33333333,38.66666667,-64.66666667,0.211349826,-0.299626736,1,0,0,0.0987,submitButton,0.05141059,-0.285963542,0,0,0,0,39,39,48,1,64,69013,2,180,2022-02-10_11h29.23.386,orientation adjustment 2,2021.2.3,MacIntel,59.99880002,,,,,,,
,,,,,,,,,,,,,,,,,,,,,,57.77777778,-57,20,75,-4.222222222,52.77777778,42.22222222,-104.7777778,-0.3215625,-0.390099826,1,0,0,1.6168,submitButton,-0.318220486,-0.387634549,0,0,0,0,40,40,41,1,57,69013,2,180,2022-02-10_11h29.23.386,orientation adjustment 2,2021.2.3,MacIntel,59.99880002,,,,,,,
,,,,,,,,,,,,,,,,,,,,,,-28.88888889,-72,20,75,-97.88888889,25.88888889,16.82777778,-178.8277778,0.18937934,-0.300594618,1,0,0,0.8014,submitButton,-0.435750868,-0.412122396,0,0,0,0,41,41,56,1,72,69013,2,180,2022-02-10_11h29.23.386,orientation adjustment 2,2021.2.3,MacIntel,59.99880002,,,,,,,
,,,,,,,,,,,,,,,,,,,,,,-66.66666667,-30,20,75,-101.6666667,71.66666667,57.33333333,-177.3333333,0.388684896,-0.30953559,1,0,0,0.5833,submitButton,-0.161762153,-0.333502604,0,0,0,0,42,42,14,1,30,69013,2,180,2022-02-10_11h29.23.386,orientation adjustment 2,2021.2.3,MacIntel,59.99880002,,,,,,,
,,,,,,,,,,,,,,,,,,,,,,45,71,20,75,122,51,40.8,21.8,-0.415199653,-0.387421875,1,0,0,0.8842,submitButton,-0.415199653,-0.387421875,0,0,0,0,43,43,55,1,71,69013,2,180,2022-02-10_11h29.23.386,orientation adjustment 2,2021.2.3,MacIntel,59.99880002,,,,,,,
,,,,,,,,,,,,,,,,,,,,,,51.66666667,41,20,75,87.66666667,46.66666667,37.33333333,-11.66666667,0.388411458,-0.300195312,1,0,0,0.8839,submitButton,0.481176215,-0.378914931,1,0,0,0,44,44,25,1,41,69013,2,180,2022-02-10_11h29.23.386,orientation adjustment 2,2021.2.3,MacIntel,59.99880002,pause_continueButton,,,,,,
,,,,,,,,,,,,,,,,,,,,,,-68.33333333,20,20,75,-41.33333333,61.33333333,49.06666667,-119.0666667,0.209418403,-0.320225694,1,0,0,0.4489,submitButton,0.063368056,-0.352304687,0,0,0,0,45,45,4,1,20,69013,2,180,2022-02-10_11h29.23.386,orientation adjustment 2,2021.2.3,MacIntel,59.99880002,,,,,,,
,,,,,,,,,,,,,,,,,,,,,,-39.44444444,56,20,75,12.55555556,43.44444444,34.75555556,-68.75555556,-0.332204861,-0.450243056,1,0,0,0.5825,submitButton,-0.33172309,-0.393554688,0,0,0,0,46,46,40,1,56,69013,2,180,2022-02-10_11h29.23.386,orientation adjustment 2,2021.2.3,MacIntel,59.99880002,,,,,,,
,,,,,,,,,,,,,,,,,,,,,,-33.33333333,-38,20,75,-65.33333333,27.33333333,17.76666667,-145.7666667,-0.396905382,-0.392426215,1,0,0,0.7995,submitButton,-0.396905382,-0.392426215,0,0,0,0,47,47,22,1,38,69013,2,180,2022-02-10_11h29.23.386,orientation adjustment 2,2021.2.3,MacIntel,59.99880002,,,,,,,
,,,,,,,,,,,,,,,,,,,,,,61.66666667,-31,20,75,25.66666667,56.66666667,45.33333333,-75.66666667,-0.335507813,-0.383732639,1,0,0,0.5837,submitButton,-0.335507813,-0.383732639,0,0,0,0,48,48,15,1,31,69013,2,180,2022-02-10_11h29.23.386,orientation adjustment 2,2021.2.3,MacIntel,59.99880002,,,,,,,
,,,,,,,,,,,,,,,,,,,,,,54.44444444,-42,20,75,17.44444444,59.44444444,47.55555556,-84.44444444,0.17374566,-0.305121528,1,0,0,0.8497,submitButton,-0.335030382,-0.392825521,0,0,0,0,49,49,26,1,42,69013,2,180,2022-02-10_11h29.23.386,orientation adjustment 2,2021.2.3,MacIntel,59.99880002,,,,,,,
,,,,,,,,,,,,,,,,,,,,,,59.44444444,66,20,75,131.4444444,65.44444444,52.35555556,28.35555556,0.188697917,-0.280217014,1,0,0,2.0319,submitButton,0.093077257,-0.271770833,0,0,0,0,50,50,50,1,66,69013,2,180,2022-02-10_11h29.23.386,orientation adjustment 2,2021.2.3,MacIntel,59.99880002,,,,,,,
,,,,,,,,,,,,,,,,,,,,,,66.66666667,19,20,75,85.66666667,66.66666667,53.33333333,-17.66666667,0.398350694,-0.301757813,1,0,0,0.3487,submitButton,-0.354348958,-0.396779514,0,0,0,0,51,51,3,1,19,69013,2,180,2022-02-10_11h29.23.386,orientation adjustment 2,2021.2.3,MacIntel,59.99880002,,,,,,,
,,,,,,,,,,,,,,,,,,,,,,51.66666667,-59,20,75,-11.33333333,47.66666667,38.13333333,-110.8666667,-0.50124566,-0.416532118,1,0,0,0.8834,submitButton,-0.376041667,-0.36484375,0,0,0,0,52,52,43,1,59,69013,2,180,2022-02-10_11h29.23.386,orientation adjustment 2,2021.2.3,MacIntel,59.99880002,,,,,,,
,,,,,,,,,,,,,,,,,,,,,,48.88888889,70,20,75,123.8888889,53.88888889,43.11111111,23.11111111,-0.478138021,-0.451115451,1,0,0,1.5001,submitButton,0.363194444,-0.290455729,0,0,0,0,53,53,54,1,70,69013,2,180,2022-02-10_11h29.23.386,orientation adjustment 2,2021.2.3,MacIntel,59.99880002,,,,,,,
,,,,,,,,,,,,,,,,,,,,,,31.66666667,44,20,75,60.66666667,16.66666667,10.83333333,-35.16666667,0.422582465,-0.274657118,1,0,0,0.2166,submitButton,0.067586806,-0.192096354,0,0,0,0,54,54,28,1,44,69013,2,180,2022-02-10_11h29.23.386,orientation adjustment 2,2021.2.3,MacIntel,59.99880002,,,,,,,
,,,,,,,,,,,,,,,,,,,,,,31.11111111,-74,20,75,-37.88888889,36.11111111,28.88888889,-135.1111111,-0.446601562,-0.399717882,1,0,0,0.9168,submitButton,-0.446601562,-0.399717882,0,0,0,0,55,55,58,1,74,69013,2,180,2022-02-10_11h29.23.386,orientation adjustment 2,2021.2.3,MacIntel,59.99880002,,,,,,,
,,,,,,,,,,,,,,,,,,,,,,-66.66666667,54,20,75,-18.66666667,72.66666667,58.13333333,-94.13333333,0.433650174,-0.289279514,1,0,0,0.4322,submitButton,-0.486679688,-0.376779514,0,0,0,0,56,56,38,1,54,69013,2,180,2022-02-10_11h29.23.386,orientation adjustment 2,2021.2.3,MacIntel,59.99880002,,,,,,,
,,,,,,,,,,,,,,,,,,,,,,40.55555556,-55,20,75,-8.444444444,46.55555556,37.24444444,-107.7555556,0.229236111,-0.290533854,1,0,0,2.2011,submitButton,0.230412326,-0.164314236,0,0,0,0,57,57,39,1,55,69013,2,180,2022-02-10_11h29.23.386,orientation adjustment 2,2021.2.3,MacIntel,59.99880002,,,,,,,
,,,,,,,,,,,,,,,,,,,,,,-25.55555556,-24,20,75,-55.55555556,31.55555556,25.24444444,-139.2444444,-0.425833333,-0.408780382,1,0,0,0.4506,submitButton,-0.373342014,-0.340985243,0,0,0,0,58,58,8,1,24,69013,2,180,2022-02-10_11h29.23.386,orientation adjustment 2,2021.2.3,MacIntel,59.99880002,,,,,,,
,,,,,,,,,,,,,,,,,,,,,,-38.88888889,-58,20,75,-90.88888889,32.88888889,26.31111111,-174.3111111,-0.42734809,-0.353615451,1,0,0,0.5678,submitButton,0.490685764,-0.374730903,1,0,0,0,59,59,42,1,58,69013,2,180,2022-02-10_11h29.23.386,orientation adjustment 2,2021.2.3,MacIntel,59.99880002,pause_continueButton,,,,,,
,,,,,,,,,,,,,,,,,,,,,,-32.77777778,53,20,75,30.22222222,22.77777778,14.80555556,-51.80555556,-0.418923611,-0.412721354,1,0,0,0.7966,submitButton,-0.418923611,-0.412721354,0,0,0,1,0,60,37,1,53,69013,2,180,2022-02-10_11h29.23.386,orientation adjustment 2,2021.2.3,MacIntel,59.99880002,,,,,,,
,,,,,,,,,,,,,,,,,,,,,,-63.33333333,-21,20,75,-90.33333333,69.33333333,55.46666667,-166.4666667,0.396380208,-0.305238715,1,0,0,11.4175,submitButton,-0.337092014,-0.405368924,0,0,0,1,1,61,5,1,21,69013,2,180,2022-02-10_11h29.23.386,orientation adjustment 2,2021.2.3,MacIntel,59.99880002,,,,,,,
,,,,,,,,,,,,,,,,,,,,,,-70,-45,20,75,-119,74,59.2,-194.2,0.40155816,-0.304852431,1,0,0,0.5324,submitButton,-0.384709201,-0.396501736,0,0,0,1,2,62,29,1,45,69013,2,180,2022-02-10_11h29.23.386,orientation adjustment 2,2021.2.3,MacIntel,59.99880002,,,,,,,
,,,,,,,,,,,,,,,,,,,,,,-56.11111111,-64,20,75,-115.1111111,51.11111111,40.88888889,-194.8888889,-0.357217882,-0.422421875,1,0,0,0.567,submitButton,-0.357217882,-0.422421875,0,0,0,1,3,63,48,1,64,69013,2,180,2022-02-10_11h29.23.386,orientation adjustment 2,2021.2.3,MacIntel,59.99880002,,,,,,,
,,,,,,,,,,,,,,,,,,,,,,-47.77777778,23,20,75,-30.77777778,53.77777778,43.02222222,-110.0222222,-0.298216146,-0.412022569,1,0,0,2.2003,submitButton,0.123771701,-0.328398437,0,0,0,1,4,64,7,1,23,69013,2,180,2022-02-10_11h29.23.386,orientation adjustment 2,2021.2.3,MacIntel,59.99880002,,,,,,,
,,,,,,,,,,,,,,,,,,,,,,33.33333333,22,20,75,60.33333333,38.33333333,30.66666667,-37.33333333,-0.3421875,-0.373190104,1,0,0,0.5815,submitButton,-0.3421875,-0.373190104,0,0,0,1,5,65,6,1,22,69013,2,180,2022-02-10_11h29.23.386,orientation adjustment 2,2021.2.3,MacIntel,59.99880002,,,,,,,
,,,,,,,,,,,,,,,,,,,,,,-44.44444444,-32,20,75,-82.44444444,50.44444444,40.35555556,-162.3555556,-0.319448785,-0.423320313,1,0,0,0.6842,submitButton,-0.234752604,-0.333402778,0,0,0,1,6,66,16,1,32,69013,2,180,2022-02-10_11h29.23.386,orientation adjustment 2,2021.2.3,MacIntel,59.99880002,,,,,,,
,,,,,,,,,,,,,,,,,,,,,,-32.22222222,-19,20,75,-42.22222222,23.22222222,15.09444444,-124.0944444,0.17390625,-0.294210069,1,0,0,0.818,submitButton,-0.365108507,-0.378107639,0,0,0,1,7,67,3,1,19,69013,2,180,2022-02-10_11h29.23.386,orientation adjustment 2,2021.2.3,MacIntel,59.99880002,,,,,,,
,,,,,,,,,,,,,,,,,,,,,,-50,74,20,75,15,59,47.2,-63.2,0.391953125,-0.304904514,1,0,0,0.5496,submitButton,-0.159131944,-0.317217882,0,0,0,1,8,68,58,1,74,69013,2,180,2022-02-10_11h29.23.386,orientation adjustment 2,2021.2.3,MacIntel,59.99880002,,,,,,,
,,,,,,,,,,,,,,,,,,,,,,-40.55555556,57,20,75,23.44444444,33.55555556,26.84444444,-59.84444444,-0.382044271,-0.416675347,1,0,0,0.6166,submitButton,-0.382044271,-0.416675347,0,0,0,1,9,69,41,1,57,69013,2,180,2022-02-10_11h29.23.386,orientation adjustment 2,2021.2.3,MacIntel,59.99880002,,,,,,,
,,,,,,,,,,,,,,,,,,,,,,21.11111111,63,20,75,77.11111111,14.11111111,5.644444444,-21.35555556,-0.259453125,-0.388546007,1,0,0,1.0329,submitButton,-0.259453125,-0.388546007,0,0,0,1,10,70,47,1,63,69013,2,180,2022-02-10_11h29.23.386,orientation adjustment 2,2021.2.3,MacIntel,59.99880002,,,,,,,
,,,,,,,,,,,,,,,,,,,,,,41.11111111,-52,20,75,-5.888888889,46.11111111,36.88888889,-105.1111111,0.233927951,-0.294331597,1,0,0,0.2157,submitButton,-0.346866319,-0.394201389,0,0,0,1,11,71,36,1,52,69013,2,180,2022-02-10_11h29.23.386,orientation adjustment 2,2021.2.3,MacIntel,59.99880002,,,,,,,
,,,,,,,,,,,,,,,,,,,,,,25,-56,20,75,-24,32,25.6,-120.4,0.15796875,-0.285646701,1,0,0,4.6823,submitButton,-0.349986979,-0.403315972,0,0,0,1,12,72,40,1,56,69013,2,180,2022-02-10_11h29.23.386,orientation adjustment 2,2021.2.3,MacIntel,59.99880002,,,,,,,
,,,,,,,,,,,,,,,,,,,,,,-73.33333333,-26,20,75,-105.3333333,79.33333333,63.46666667,-179.4666667,0.380425347,-0.305794271,1,0,0,0.8333,submitButton,-0.4203125,-0.398528646,0,0,0,1,13,73,10,1,26,69013,2,180,2022-02-10_11h29.23.386,orientation adjustment 2,2021.2.3,MacIntel,59.99880002,,,,,,,
,,,,,,,,,,,,,,,,,,,,,,-51.11111111,60,20,75,11.88888889,48.11111111,38.48888889,-68.48888889,0.206597222,-0.303767361,1,0,0,0.5645,submitButton,0.403888889,-0.401914063,1,0,0,1,14,74,44,1,60,69013,2,180,2022-02-10_11h29.23.386,orientation adjustment 2,2021.2.3,MacIntel,59.99880002,pause_continueButton,,,,,,
,,,,,,,,,,,,,,,,,,,,,,-70,-24,20,75,-102,78,62.4,-176.4,-0.320399306,-0.376397569,1,0,0,0.8986,submitButton,-0.135460069,-0.239375,0,0,0,1,15,75,8,1,24,69013,2,180,2022-02-10_11h29.23.386,orientation adjustment 2,2021.2.3,MacIntel,59.99880002,,,,,,,
,,,,,,,,,,,,,,,,,,,,,,58.88888889,17,20,75,83.88888889,66.88888889,53.51111111,-19.48888889,0.201111111,-0.286284722,1,0,0,0.1339,submitButton,-0.360859375,-0.409396701,0,0,0,1,16,76,1,1,17,69013,2,180,2022-02-10_11h29.23.386,orientation adjustment 2,2021.2.3,MacIntel,59.99880002,,,,,,,
,,,,,,,,,,,,,,,,,,,,,,46.11111111,-71,20,75,-31.88888889,39.11111111,31.28888889,-129.7111111,0.401184896,-0.271779514,1,0,0,0.4665,submitButton,-0.312608507,-0.413064236,0,0,0,1,17,77,55,1,71,69013,2,180,2022-02-10_11h29.23.386,orientation adjustment 2,2021.2.3,MacIntel,59.99880002,,,,,,,
,,,,,,,,,,,,,,,,,,,,,,51.11111111,28,20,75,83.11111111,55.11111111,44.08888889,-17.91111111,0.198415799,-0.282170139,1,0,0,0.4999,submitButton,-0.312981771,-0.401844618,0,0,0,1,18,78,12,1,28,69013,2,180,2022-02-10_11h29.23.386,orientation adjustment 2,2021.2.3,MacIntel,59.99880002,,,,,,,
,,,,,,,,,,,,,,,,,,,,,,67.77777778,-49,20,75,12.77777778,61.77777778,49.42222222,-89.57777778,0.383151042,-0.308381076,1,0,0,0.1321,submitButton,-0.309635417,-0.409852431,0,0,0,1,19,79,33,1,49,69013,2,180,2022-02-10_11h29.23.386,orientation adjustment 2,2021.2.3,MacIntel,59.99880002,,,,,,,
,,,,,,,,,,,,,,,,,,,,,,-21.66666667,35,20,75,17.33333333,17.66666667,11.48333333,-66.48333333,0.207282986,-0.303242187,1,0,0,2.1672,submitButton,-0.305173611,-0.410078125,0,0,0,1,20,80,19,1,35,69013,2,180,2022-02-10_11h29.23.386,orientation adjustment 2,2021.2.3,MacIntel,59.99880002,,,,,,,
,,,,,,,,,,,,,,,,,,,,,,47.22222222,20,20,75,62.22222222,42.22222222,33.77777778,-36.22222222,0.393893229,-0.317673611,1,0,0,0.4012,submitButton,-0.330724826,-0.401380208,0,0,0,1,21,81,4,1,20,69013,2,180,2022-02-10_11h29.23.386,orientation adjustment 2,2021.2.3,MacIntel,59.99880002,,,,,,,
,,,,,,,,,,,,,,,,,,,,,,41.11111111,40,20,75,86.11111111,46.11111111,36.88888889,-13.11111111,0.210499132,-0.308511285,1,0,0,0.1989,submitButton,-0.298446181,-0.378333333,0,0,0,1,22,82,24,1,40,69013,2,180,2022-02-10_11h29.23.386,orientation adjustment 2,2021.2.3,MacIntel,59.99880002,,,,,,,
,,,,,,,,,,,,,,,,,,,,,,-36.11111111,37,20,75,-4.111111111,41.11111111,32.88888889,-85.88888889,0.375273437,-0.289917535,1,0,0,0.4332,submitButton,-0.315681424,-0.421024306,0,0,0,1,23,83,21,1,37,69013,2,180,2022-02-10_11h29.23.386,orientation adjustment 2,2021.2.3,MacIntel,59.99880002,,,,,,,
,,,,,,,,,,,,,,,,,,,,,,-75,-67,20,75,-137,70,56,-213,0.173693576,-0.309401042,1,0,0,0.4506,submitButton,-0.371592882,-0.376493056,0,0,0,1,24,84,51,1,67,69013,2,180,2022-02-10_11h29.23.386,orientation adjustment 2,2021.2.3,MacIntel,59.99880002,,,,,,,
,,,,,,,,,,,,,,,,,,,,,,34.44444444,-69,20,75,-46.55555556,22.44444444,14.58888889,-144.4111111,0.382235243,-0.304956597,1,0,0,0.8348,submitButton,-0.401666667,-0.385633681,0,0,0,1,25,85,53,1,69,69013,2,180,2022-02-10_11h29.23.386,orientation adjustment 2,2021.2.3,MacIntel,59.99880002,,,,,,,
,,,,,,,,,,,,,,,,,,,,,,38.88888889,55,20,75,100.8888889,45.88888889,36.71111111,1.711111111,0.210368924,-0.287473958,1,0,0,2.1987,submitButton,-0.413519965,-0.414136285,0,0,0,1,26,86,39,1,55,69013,2,180,2022-02-10_11h29.23.386,orientation adjustment 2,2021.2.3,MacIntel,59.99880002,,,,,,,
,,,,,,,,,,,,,,,,,,,,,,53.88888889,34,20,75,76.88888889,42.88888889,34.31111111,-21.68888889,0.381462674,-0.311223958,1,0,0,1.4662,submitButton,-0.363020833,-0.402638889,0,0,0,1,27,87,18,1,34,69013,2,180,2022-02-10_11h29.23.386,orientation adjustment 2,2021.2.3,MacIntel,59.99880002,,,,,,,
,,,,,,,,,,,,,,,,,,,,,,-70,73,20,75,11,62,49.6,-66.6,0.218871528,-0.283072917,1,0,0,0.9685,submitButton,-0.367851563,-0.411375868,0,0,0,1,28,88,57,1,73,69013,2,180,2022-02-10_11h29.23.386,orientation adjustment 2,2021.2.3,MacIntel,59.99880002,,,,,,,
,,,,,,,,,,,,,,,,,,,,,,26.66666667,36,20,75,56.66666667,20.66666667,13.43333333,-40.56666667,0.407547743,-0.303398438,1,0,0,0.5173,submitButton,0.512738715,-0.379917535,1,0,0,1,29,89,20,1,36,69013,2,180,2022-02-10_11h29.23.386,orientation adjustment 2,2021.2.3,MacIntel,59.99880002,pause_continueButton,,,,,,
,,,,,,,,,,,,,,,,,,,,,,42.22222222,-54,20,75,-8.777777778,45.22222222,36.17777778,-107.8222222,0.227473958,-0.318511285,1,0,0,1.1005,submitButton,0.092925347,-0.248871528,0,0,0,1,30,90,38,1,54,69013,2,180,2022-02-10_11h29.23.386,orientation adjustment 2,2021.2.3,MacIntel,59.99880002,,,,,,,
,,,,,,,,,,,,,,,,,,,,,,71.11111111,25,20,75,91.11111111,66.11111111,52.88888889,-12.11111111,-0.151792535,-0.401445312,1,0,0,0.4669,submitButton,-0.151792535,-0.401445312,0,0,0,1,31,91,9,1,25,69013,2,180,2022-02-10_11h29.23.386,orientation adjustment 2,2021.2.3,MacIntel,59.99880002,,,,,,,
,,,,,,,,,,,,,,,,,,,,,,-40.55555556,27,20,75,-8.555555556,35.55555556,28.44444444,-91.44444444,-0.293993056,-0.497083333,1,0,0,0.7015,submitButton,0.074305556,-0.389279514,0,0,0,1,32,92,11,1,27,69013,2,180,2022-02-10_11h29.23.386,orientation adjustment 2,2021.2.3,MacIntel,59.99880002,,,,,,,
,,,,,,,,,,,,,,,,,,,,,,-24.44444444,-51,20,75,-69.44444444,18.44444444,11.98888889,-152.9888889,0.226302083,-0.291037326,1,0,0,3.567,submitButton,0.540455729,-0.270212674,0,0,0,1,33,93,35,1,51,69013,2,180,2022-02-10_11h29.23.386,orientation adjustment 2,2021.2.3,MacIntel,59.99880002,,,,,,,
,,,,,,,,,,,,,,,,,,,,,,38.88888889,33,20,75,58.88888889,25.88888889,16.82777778,-40.17222222,0.400403646,-0.321914062,1,0,0,0.216,submitButton,-0.451510417,-0.422929687,0,0,0,1,34,94,17,1,33,69013,2,180,2022-02-10_11h29.23.386,orientation adjustment 2,2021.2.3,MacIntel,59.99880002,,,,,,,
,,,,,,,,,,,,,,,,,,,,,,-65.55555556,-65,20,75,-124.5555556,59.55555556,47.64444444,-202.6444444,0.219817708,-0.289856771,1,0,0,0.1489,submitButton,-0.147139757,-0.346019965,0,0,0,1,35,95,49,1,65,69013,2,180,2022-02-10_11h29.23.386,orientation adjustment 2,2021.2.3,MacIntel,59.99880002,,,,,,,
,,,,,,,,,,,,,,,,,,,,,,40,39,20,75,64,25,16.25,-34.75,-0.213407118,-0.348684896,1,0,0,0.3843,submitButton,0.19015191,-0.303146701,0,0,0,1,36,96,23,1,39,69013,2,180,2022-02-10_11h29.23.386,orientation adjustment 2,2021.2.3,MacIntel,59.99880002,,,,,,,
,,,,,,,,,,,,,,,,,,,,,,30,58,20,75,92,34,27.2,-4.8,-0.309509549,-0.317256944,1,0,0,0.5489,submitButton,0.235954861,-0.166002604,0,0,0,1,37,97,42,1,58,69013,2,180,2022-02-10_11h29.23.386,orientation adjustment 2,2021.2.3,MacIntel,59.99880002,,,,,,,
,,,,,,,,,,,,,,,,,,,,,,-42.22222222,-48,20,75,-95.22222222,47.22222222,37.77777778,-175.7777778,-0.473819444,-0.412699653,1,0,0,0.4673,submitButton,-0.473819444,-0.412699653,0,0,0,1,38,98,32,1,48,69013,2,180,2022-02-10_11h29.23.386,orientation adjustment 2,2021.2.3,MacIntel,59.99880002,,,,,,,
,,,,,,,,,,,,,,,,,,,,,,-66.66666667,42,20,75,-14.66666667,56.66666667,45.33333333,-93.33333333,0.191818576,-0.273615451,1,0,0,0.2848,submitButton,-0.226519097,-0.403446181,0,0,0,1,39,99,26,1,42,69013,2,180,2022-02-10_11h29.23.386,orientation adjustment 2,2021.2.3,MacIntel,59.99880002,,,,,,,
,,,,,,,,,,,,,,,,,,,,,,-52.77777778,-38,20,75,-98.77777778,60.77777778,48.62222222,-176.6222222,-0.360950521,-0.349713542,1,0,0,0.5342,submitButton,-0.392404514,-0.417769097,0,0,0,1,40,100,22,1,38,69013,2,180,2022-02-10_11h29.23.386,orientation adjustment 2,2021.2.3,MacIntel,59.99880002,,,,,,,
,,,,,,,,,,,,,,,,,,,,,,42.22222222,70,20,75,117.2222222,47.22222222,37.77777778,17.77777778,-0.293667535,-0.389782986,1,0,0,0.4323,submitButton,-0.293667535,-0.389782986,0,0,0,1,41,101,54,1,70,69013,2,180,2022-02-10_11h29.23.386,orientation adjustment 2,2021.2.3,MacIntel,59.99880002,,,,,,,
,,,,,,,,,,,,,,,,,,,,,,23.88888889,-30,20,75,-9.111111111,20.88888889,13.57777778,-106.4222222,-0.362400174,-0.374613715,1,0,0,1.4338,submitButton,-0.362400174,-0.374613715,0,0,0,1,42,102,14,1,30,69013,2,180,2022-02-10_11h29.23.386,orientation adjustment 2,2021.2.3,MacIntel,59.99880002,,,,,,,
,,,,,,,,,,,,,,,,,,,,,,-28.33333333,16,20,75,-3.333333333,19.33333333,12.56666667,-86.56666667,0.194661458,-0.282369792,1,0,0,1.1335,submitButton,0.48687066,-0.342925347,0,0,0,1,43,103,0,1,16,69013,2,180,2022-02-10_11h29.23.386,orientation adjustment 2,2021.2.3,MacIntel,59.99880002,,,,,,,
,,,,,,,,,,,,,,,,,,,,,,69.44444444,-44,20,75,-11.55555556,32.44444444,25.95555556,-108.0444444,0.398211806,-0.29702691,1,0,0,0.1005,submitButton,0.580850694,-0.405542535,1,0,0,1,44,104,28,1,44,69013,2,180,2022-02-10_11h29.23.386,orientation adjustment 2,2021.2.3,MacIntel,59.99880002,pause_continueButton,,,,,,
,,,,,,,,,,,,,,,,,,,,,,-60.55555556,-18,20,75,-84.55555556,66.55555556,53.24444444,-161.2444444,0.407786458,-0.29827691,1,0,0,1.4836,submitButton,-0.451302083,-0.402851562,0,0,0,1,45,105,2,1,18,69013,2,180,2022-02-10_11h29.23.386,orientation adjustment 2,2021.2.3,MacIntel,59.99880002,,,,,,,
,,,,,,,,,,,,,,,,,,,,,,-51.11111111,-43,20,75,-83.11111111,40.11111111,32.08888889,-165.0888889,0.213159722,-0.301289062,1,0,0,0.1335,submitButton,-0.445299479,-0.380082465,0,0,0,1,46,106,27,1,43,69013,2,180,2022-02-10_11h29.23.386,orientation adjustment 2,2021.2.3,MacIntel,59.99880002,,,,,,,
,,,,,,,,,,,,,,,,,,,,,,-66.66666667,61,20,75,-16.66666667,77.66666667,62.13333333,-91.13333333,-0.277686632,-0.386336806,1,0,0,0.3658,submitButton,-0.277686632,-0.386336806,0,0,0,1,47,107,45,1,61,69013,2,180,2022-02-10_11h29.23.386,orientation adjustment 2,2021.2.3,MacIntel,59.99880002,,,,,,,
,,,,,,,,,,,,,,,,,,,,,,47.22222222,-59,20,75,8.222222222,67.22222222,53.77777778,-95.22222222,0.209435764,-0.312960069,1,0,0,0.0673,submitButton,-0.299505208,-0.384813368,0,0,0,1,48,108,43,1,59,69013,2,180,2022-02-10_11h29.23.386,orientation adjustment 2,2021.2.3,MacIntel,59.99880002,,,,,,,
,,,,,,,,,,,,,,,,,,,,,,-20.55555556,50,20,75,23.44444444,26.55555556,17.26111111,-57.26111111,0.401592882,-0.302699653,1,0,0,0.1174,submitButton,-0.349262153,-0.381180556,0,0,0,1,49,109,34,1,50,69013,2,180,2022-02-10_11h29.23.386,orientation adjustment 2,2021.2.3,MacIntel,59.99880002,,,,,,,
,,,,,,,,,,,,,,,,,,,,,,27.22222222,-72,20,75,-38.77777778,33.22222222,26.57777778,-135.4222222,-0.277821181,-0.350499132,1,0,0,0.735,submitButton,-0.280425347,-0.376271701,0,0,0,1,50,110,56,1,72,69013,2,180,2022-02-10_11h29.23.386,orientation adjustment 2,2021.2.3,MacIntel,59.99880002,,,,,,,
,,,,,,,,,,,,,,,,,,,,,,-41.11111111,-46,20,75,-101.1111111,55.11111111,44.08888889,-180.0888889,0.389131944,-0.311540799,1,0,0,0.3497,submitButton,-0.243780382,-0.390186632,0,0,0,1,51,111,30,1,46,69013,2,180,2022-02-10_11h29.23.386,orientation adjustment 2,2021.2.3,MacIntel,59.99880002,,,,,,,
,,,,,,,,,,,,,,,,,,,,,,-72.22222222,-31,20,75,-105.2222222,74.22222222,59.37777778,-180.3777778,0.426171875,-0.285659722,1,0,0,1.2177,submitButton,-0.346072049,-0.371727431,0,0,0,1,52,112,15,1,31,69013,2,180,2022-02-10_11h29.23.386,orientation adjustment 2,2021.2.3,MacIntel,59.99880002,,,,,,,
,,,,,,,,,,,,,,,,,,,,,,-45,-41,20,75,-97,56,44.8,-175.8,-0.364496528,-0.407855903,1,0,0,0.6499,submitButton,-0.364496528,-0.407855903,0,0,0,1,53,113,25,1,41,69013,2,180,2022-02-10_11h29.23.386,orientation adjustment 2,2021.2.3,MacIntel,59.99880002,,,,,,,
,,,,,,,,,,,,,,,,,,,,,,-48.33333333,68,20,75,23.66666667,44.33333333,35.46666667,-57.46666667,0.169097222,-0.277977431,1,0,0,0.4991,submitButton,-0.230117187,-0.40250434,0,0,0,1,54,114,52,1,68,69013,2,180,2022-02-10_11h29.23.386,orientation adjustment 2,2021.2.3,MacIntel,59.99880002,,,,,,,
,,,,,,,,,,,,,,,,,,,,,,-61.11111111,-62,20,75,-131.1111111,69.11111111,55.28888889,-207.2888889,0.389769965,-0.29843316,1,0,0,0.4487,submitButton,-0.170998264,-0.395920139,0,0,0,1,55,115,46,1,62,69013,2,180,2022-02-10_11h29.23.386,orientation adjustment 2,2021.2.3,MacIntel,59.99880002,,,,,,,
,,,,,,,,,,,,,,,,,,,,,,21.11111111,-66,20,75,-37.88888889,28.11111111,18.27222222,-137.7277778,0.194461806,-0.315455729,1,0,0,0.632,submitButton,-0.232018229,-0.394357639,0,0,0,1,56,116,50,1,66,69013,2,180,2022-02-10_11h29.23.386,orientation adjustment 2,2021.2.3,MacIntel,59.99880002,,,,,,,
,,,,,,,,,,,,,,,,,,,,,,-53.88888889,47,20,75,-13.88888889,60.88888889,48.71111111,-91.71111111,-0.333272569,-0.386896701,1,0,0,0.5993,submitButton,-0.333272569,-0.386896701,0,0,0,1,57,117,31,1,47,69013,2,180,2022-02-10_11h29.23.386,orientation adjustment 2,2021.2.3,MacIntel,59.99880002,,,,,,,
,,,,,,,,,,,,,,,,,,,,,,-37.22222222,-75,20,75,-106.2222222,31.22222222,24.97777778,-189.9777778,0.217213542,-0.320915799,1,0,0,0.6669,submitButton,-0.405481771,-0.417078993,0,0,0,1,58,118,59,1,75,69013,2,180,2022-02-10_11h29.23.386,orientation adjustment 2,2021.2.3,MacIntel,59.99880002,,,,,,,
,,,,,,,,,,,,,,,,,,,,,,67.77777778,-29,20,75,30.77777778,59.77777778,47.82222222,-71.17777778,0.395321181,-0.301493056,1,0,0,0.0323,submitButton,0.549027778,-0.413016493,1,0,0,1,59,119,13,1,29,69013,2,180,2022-02-10_11h29.23.386,orientation adjustment 2,2021.2.3,MacIntel,59.99880002,pause_continueButton,,,,,,
,,,,,,,,,,,,,,,,,,,,,,-58.33333333,-75,20,75,-141.3333333,66.33333333,53.06666667,-218.0666667,-0.243506944,-0.397942708,1,0,0,0.818,submitButton,0.086467014,-0.326341146,0,0,0,2,0,120,59,1,75,69013,2,180,2022-02-10_11h29.23.386,orientation adjustment 2,2021.2.3,MacIntel,59.99880002,,,,,,,
,,,,,,,,,,,,,,,,,,,,,,30,-33,20,75,14,47,37.6,-85.4,-0.399110243,-0.386223958,1,0,0,0.6187,submitButton,0.070837674,-0.449357639,0,0,0,2,1,121,17,1,33,69013,2,180,2022-02-10_11h29.23.386,orientation adjustment 2,2021.2.3,MacIntel,59.99880002,,,,,,,
,,,,,,,,,,,,,,,,,,,,,,34.44444444,64,20,75,103.4444444,39.44444444,31.55555556,5.555555556,0.216601563,-0.305603299,1,0,0,0.3168,submitButton,-0.011367188,-0.375902778,0,0,0,2,2,122,48,1,64,69013,2,180,2022-02-10_11h29.23.386,orientation adjustment 2,2021.2.3,MacIntel,59.99880002,,,,,,,
,,,,,,,,,,,,,,,,,,,,,,-34.44444444,-42,20,75,-48.44444444,6.444444444,2.577777778,-134.5777778,-0.405703125,-0.404822049,1,0,0,0.417,submitButton,-0.344227431,-0.390125868,0,0,0,2,3,123,26,1,42,69013,2,180,2022-02-10_11h29.23.386,orientation adjustment 2,2021.2.3,MacIntel,59.99880002,,,,,,,
,,,,,,,,,,,,,,,,,,,,,,-26.11111111,-29,20,75,-55.11111111,26.11111111,16.97222222,-135.9722222,-0.344227431,-0.390125868,1,0,0,0.3655,submitButton,-0.344227431,-0.390125868,0,0,0,2,4,124,13,1,29,69013,2,180,2022-02-10_11h29.23.386,orientation adjustment 2,2021.2.3,MacIntel,59.99880002,,,,,,,
,,,,,,,,,,,,,,,,,,,,,,-32.22222222,53,20,75,24.77777778,28.22222222,18.34444444,-55.34444444,-0.478181424,-0.419626736,1,0,0,0.8667,submitButton,-0.478181424,-0.419626736,0,0,0,2,5,125,37,1,53,69013,2,180,2022-02-10_11h29.23.386,orientation adjustment 2,2021.2.3,MacIntel,59.99880002,,,,,,,
,,,,,,,,,,,,,,,,,,,,,,-42.77777778,39,20,75,-9.777777778,48.77777778,39.02222222,-90.02222222,-0.481276042,-0.420499132,1,0,0,0.3682,submitButton,-0.249479167,-0.371571181,0,0,0,2,6,126,23,1,39,69013,2,180,2022-02-10_11h29.23.386,orientation adjustment 2,2021.2.3,MacIntel,59.99880002,,,,,,,
,,,,,,,,,,,,,,,,,,,,,,-53.88888889,19,20,75,-29.88888889,48.88888889,39.11111111,-110.1111111,-0.269652778,-0.396979167,1,0,0,0.5341,submitButton,-0.269652778,-0.396979167,0,0,0,2,7,127,3,1,19,69013,2,180,2022-02-10_11h29.23.386,orientation adjustment 2,2021.2.3,MacIntel,59.99880002,,,,,,,
,,,,,,,,,,,,,,,,,,,,,,-71.11111111,-28,20,75,-93.11111111,65.11111111,52.08888889,-170.0888889,0.202274306,-0.307361111,1,0,0,0.3848,submitButton,-0.303867188,-0.401540799,0,0,0,2,8,128,12,1,28,69013,2,180,2022-02-10_11h29.23.386,orientation adjustment 2,2021.2.3,MacIntel,59.99880002,,,,,,,
,,,,,,,,,,,,,,,,,,,,,,24.44444444,-50,20,75,-32.55555556,17.44444444,11.33888889,-128.6611111,0.40562934,-0.278645833,1,0,0,1.1512,submitButton,-0.296888021,-0.37624566,0,0,0,2,9,129,34,1,50,69013,2,180,2022-02-10_11h29.23.386,orientation adjustment 2,2021.2.3,MacIntel,59.99880002,,,,,,,
,,,,,,,,,,,,,,,,,,,,,,-44.44444444,41,20,75,0.555555556,40.44444444,32.35555556,-81.35555556,-0.279105903,-0.390915799,1,0,0,0.5326,submitButton,-0.279105903,-0.390915799,0,0,0,2,10,130,25,1,41,69013,2,180,2022-02-10_11h29.23.386,orientation adjustment 2,2021.2.3,MacIntel,59.99880002,,,,,,,
,,,,,,,,,,,,,,,,,,,,,,-60,26,20,75,-40,66,52.8,-116.8,-0.270516493,-0.272005208,1,0,0,1.0668,submitButton,-0.329353299,-0.403454861,0,0,0,2,11,131,10,1,26,69013,2,180,2022-02-10_11h29.23.386,orientation adjustment 2,2021.2.3,MacIntel,59.99880002,,,,,,,
,,,,,,,,,,,,,,,,,,,,,,-47.22222222,-58,20,75,-113.2222222,55.22222222,44.17777778,-192.1777778,0.387131076,-0.310134549,1,0,0,0.3496,submitButton,-0.236940104,-0.410499132,0,0,0,2,12,132,42,1,58,69013,2,180,2022-02-10_11h29.23.386,orientation adjustment 2,2021.2.3,MacIntel,59.99880002,,,,,,,
,,,,,,,,,,,,,,,,,,,,,,-40,57,20,75,22,35,28,-61,0.194314236,-0.318051215,1,0,0,0.7502,submitButton,0.191679688,-0.251775174,0,0,0,2,13,133,41,1,57,69013,2,180,2022-02-10_11h29.23.386,orientation adjustment 2,2021.2.3,MacIntel,59.99880002,,,,,,,
,,,,,,,,,,,,,,,,,,,,,,68.33333333,-49,20,75,2.333333333,51.33333333,41.06666667,-97.93333333,-0.342868924,-0.3834375,1,0,0,0.5826,submitButton,0.590655382,-0.420954861,1,0,0,2,14,134,33,1,49,69013,2,180,2022-02-10_11h29.23.386,orientation adjustment 2,2021.2.3,MacIntel,59.99880002,pause_continueButton,,,,,,
,,,,,,,,,,,,,,,,,,,,,,-43.88888889,70,20,75,38.11111111,31.88888889,25.51111111,-45.51111111,0.230091146,-0.303185764,1,0,0,0.2678,submitButton,0.148710938,-0.410516493,0,0,0,2,15,135,54,1,70,69013,2,180,2022-02-10_11h29.23.386,orientation adjustment 2,2021.2.3,MacIntel,59.99880002,,,,,,,
,,,,,,,,,,,,,,,,,,,,,,73.33333333,18,20,75,39.33333333,21.33333333,13.86666667,-58.13333333,0.421575521,-0.281966146,1,0,0,0.1514,submitButton,-0.343025174,-0.426697049,0,0,0,2,16,136,2,1,18,69013,2,180,2022-02-10_11h29.23.386,orientation adjustment 2,2021.2.3,MacIntel,59.99880002,,,,,,,
,,,,,,,,,,,,,,,,,,,,,,23.33333333,16,20,75,16.33333333,0.333333333,0.133333333,-73.86666667,0.374253472,-0.316857639,1,0,0,0.1153,submitButton,-0.1515625,-0.394930556,0,0,0,2,17,137,0,1,16,69013,2,180,2022-02-10_11h29.23.386,orientation adjustment 2,2021.2.3,MacIntel,59.99880002,,,,,,,
,,,,,,,,,,,,,,,,,,,,,,-39.44444444,21,20,75,15.55555556,5.444444444,2.177777778,-71.17777778,0.213932292,-0.289943576,1,0,0,0.1823,submitButton,-0.335368924,-0.413710937,0,0,0,2,18,138,5,1,21,69013,2,180,2022-02-10_11h29.23.386,orientation adjustment 2,2021.2.3,MacIntel,59.99880002,,,,,,,
,,,,,,,,,,,,,,,,,,,,,,61.66666667,-65,20,75,123.6666667,8.666666667,3.466666667,-151.5333333,0.19516059,-0.293680556,1,0,0,2.4012,submitButton,0.37578125,-0.367369792,0,0,0,2,19,139,49,1,65,69013,2,180,2022-02-10_11h29.23.386,orientation adjustment 2,2021.2.3,MacIntel,59.99880002,,,,,,,
,,,,,,,,,,,,,,,,,,,,,,-70.55555556,31,20,75,19.44444444,11.55555556,4.622222222,-63.62222222,-0.333007813,-0.468068576,1,0,0,0.7348,submitButton,0.194548611,-0.407144097,0,0,0,2,20,140,15,1,31,69013,2,180,2022-02-10_11h29.23.386,orientation adjustment 2,2021.2.3,MacIntel,59.99880002,,,,,,,
,,,,,,,,,,,,,,,,,,,,,,44.44444444,-54,20,75,97.44444444,28.55555556,18.56111111,-125.4388889,-0.385086806,-0.387938368,1,0,0,1.7665,submitButton,0.345724826,-0.292131076,0,0,0,2,21,141,38,1,54,69013,2,180,2022-02-10_11h29.23.386,orientation adjustment 2,2021.2.3,MacIntel,59.99880002,,,,,,,
,,,,,,,,,,,,,,,,,,,,,,20.55555556,46,20,75,232.5555556,6.555555556,2.622222222,-41.37777778,0.239956597,-0.309809028,1,0,0,2.4345,submitButton,-0.048463542,-0.305659722,0,0,0,2,22,142,30,1,46,69013,2,180,2022-02-10_11h29.23.386,orientation adjustment 2,2021.2.3,MacIntel,59.99880002,,,,,,,
,,,,,,,,,,,,,,,,,,,,,,-60.55555556,-52,20,75,-51.55555556,0.444444444,0.177777778,-141.8222222,0.206167535,-0.267825521,1,0,0,0.9337,submitButton,-0.058246528,-0.402408854,0,0,0,2,23,143,36,1,52,69013,2,180,2022-02-10_11h29.23.386,orientation adjustment 2,2021.2.3,MacIntel,59.99880002,,,,,,,
,,,,,,,,,,,,,,,,,,,,,,61.66666667,37,20,75,233.6666667,16.66666667,10.83333333,-42.16666667,0.171762153,-0.316588542,1,0,0,1.6678,submitButton,-0.167209201,-0.38219184,0,0,0,2,24,144,21,1,37,69013,2,180,2022-02-10_11h29.23.386,orientation adjustment 2,2021.2.3,MacIntel,59.99880002,,,,,,,
,,,,,,,,,,,,,,,,,,,,,,-47.77777778,43,20,75,-130.7777778,6.222222222,2.488888889,-49.48888889,-0.441922743,-0.392990451,1,0,0,1.3494,submitButton,-0.441922743,-0.392990451,0,0,0,2,25,145,27,1,43,69013,2,180,2022-02-10_11h29.23.386,orientation adjustment 2,2021.2.3,MacIntel,59.99880002,,,,,,,
,,,,,,,,,,,,,,,,,,,,,,-63.33333333,-44,20,75,-47.33333333,3.333333333,1.333333333,-135.3333333,-0.216744792,-0.322439236,1,0,0,0.6656,submitButton,-0.198072917,-0.411736111,0,0,0,2,26,146,28,1,44,69013,2,180,2022-02-10_11h29.23.386,orientation adjustment 2,2021.2.3,MacIntel,59.99880002,,,,,,,
,,,,,,,,,,,,,,,,,,,,,,-45.55555556,-67,20,75,-251.5555556,4.555555556,1.822222222,-158.8222222,0.46453125,-0.278914931,1,0,0,1.7828,submitButton,0.204991319,-0.328016493,0,0,0,2,27,147,51,1,67,69013,2,180,2022-02-10_11h29.23.386,orientation adjustment 2,2021.2.3,MacIntel,59.99880002,,,,,,,
,,,,,,,,,,,,,,,,,,,,,,36.11111111,47,20,75,222.1111111,4.888888889,1.955555556,-41.04444444,-0.156462674,-0.419045139,1,0,0,1.849,submitButton,0.403841146,-0.288268229,0,0,0,2,28,148,31,1,47,69013,2,180,2022-02-10_11h29.23.386,orientation adjustment 2,2021.2.3,MacIntel,59.99880002,,,,,,,
,,,,,,,,,,,,,,,,,,,,,,23.88888889,-35,20,75,127.8888889,17.11111111,11.12222222,-113.8777778,0.251996528,-0.314127604,1,0,0,1.4167,submitButton,0.48344184,-0.407829861,1,0,0,2,29,149,19,1,35,69013,2,180,2022-02-10_11h29.23.386,orientation adjustment 2,2021.2.3,MacIntel,59.99880002,pause_continueButton,,,,,,
,,,,,,,,,,,,,,,,,,,,,,32.77777778,23,20,75,126.7777778,76.22222222,60.97777778,-6.022222222,-0.243793403,-0.387018229,1,0,0,0.9818,submitButton,-0.243793403,-0.387018229,0,0,0,2,30,150,7,1,23,69013,2,180,2022-02-10_11h29.23.386,orientation adjustment 2,2021.2.3,MacIntel,59.99880002,,,,,,,
,,,,,,,,,,,,,,,,,,,,,,-52.77777778,-73,20,75,-58.77777778,14.22222222,5.688888889,-157.3111111,0.198519965,-0.315295139,1,0,0,2.1663,submitButton,0.298389757,-0.385894097,0,0,0,2,31,151,57,1,73,69013,2,180,2022-02-10_11h29.23.386,orientation adjustment 2,2021.2.3,MacIntel,59.99880002,,,,,,,
,,,,,,,,,,,,,,,,,,,,,,30,62,20,75,-28,90,72,-100,-0.190030382,-0.419622396,1,0,0,1.9154,submitButton,0.134197049,-0.302005208,1,0,0,2,32,152,46,1,62,69013,2,180,2022-02-10_11h29.23.386,orientation adjustment 2,2021.2.3,MacIntel,59.99880002,,,,,,,
,,,,,,,,,,,,,,,,,,,,,,27.22222222,38,20,75,207.2222222,10.77777778,4.311111111,-47.68888889,-0.140729167,-0.418498264,1,0,0,1.6001,submitButton,0.23827691,-0.299882812,0,0,0,2,33,153,22,1,38,69013,2,180,2022-02-10_11h29.23.386,orientation adjustment 2,2021.2.3,MacIntel,59.99880002,,,,,,,
,,,,,,,,,,,,,,,,,,,,,,66.11111111,48,20,75,231.1111111,3.111111111,1.244444444,-40.75555556,-0.146549479,-0.441501736,1,0,0,1.3656,submitButton,0.415451389,-0.287686632,0,0,0,2,34,154,32,1,48,69013,2,180,2022-02-10_11h29.23.386,orientation adjustment 2,2021.2.3,MacIntel,59.99880002,,,,,,,
,,,,,,,,,,,,,,,,,,,,,,34.44444444,-27,20,75,-120.5555556,86.44444444,69.15555556,-186.1555556,-0.123845486,-0.415451389,1,0,0,1.6677,submitButton,0.221875,-0.285581597,0,0,0,2,35,155,11,1,27,69013,2,180,2022-02-10_11h29.23.386,orientation adjustment 2,2021.2.3,MacIntel,59.99880002,,,,,,,
,,,,,,,,,,,,,,,,,,,,,,-40.55555556,-69,20,75,-69.55555556,0.555555556,0.222222222,-159.2222222,-0.436523438,-0.379023438,1,0,0,0.7846,submitButton,0.471124132,-0.335134549,0,0,0,2,36,156,53,1,69,69013,2,180,2022-02-10_11h29.23.386,orientation adjustment 2,2021.2.3,MacIntel,59.99880002,,,,,,,
,,,,,,,,,,,,,,,,,,,,,,37.22222222,74,20,75,60.22222222,13.77777778,5.511111111,-21.51111111,-0.117838542,-0.410538194,1,0,0,1.732,submitButton,-0.026814236,-0.37062934,0,0,0,2,37,157,58,1,74,69013,2,180,2022-02-10_11h29.23.386,orientation adjustment 2,2021.2.3,MacIntel,59.99880002,,,,,,,
,,,,,,,,,,,,,,,,,,,,,,54.44444444,20,20,75,161.4444444,38.55555556,30.84444444,-39.15555556,-0.204557292,-0.434644097,1,0,0,1.7,submitButton,-0.202078993,-0.395594618,0,0,0,2,38,158,4,1,20,69013,2,180,2022-02-10_11h29.23.386,orientation adjustment 2,2021.2.3,MacIntel,59.99880002,,,,,,,
,,,,,,,,,,,,,,,,,,,,,,-27.22222222,25,20,75,-40.22222222,65.22222222,52.17777778,-117.1777778,0.395885417,-0.290286458,1,0,0,0.6827,submitButton,-0.31108941,-0.383194444,0,0,0,2,39,159,9,1,25,69013,2,180,2022-02-10_11h29.23.386,orientation adjustment 2,2021.2.3,MacIntel,59.99880002,,,,,,,
,,,,,,,,,,,,,,,,,,,,,,61.11111111,45,20,75,196.1111111,28.88888889,18.77777778,-26.22222222,0.165225694,-0.284405382,1,0,0,6.0838,submitButton,-0.275863715,-0.42672309,0,0,0,2,40,160,29,1,45,69013,2,180,2022-02-10_11h29.23.386,orientation adjustment 2,2021.2.3,MacIntel,59.99880002,,,,,,,
,,,,,,,,,,,,,,,,,,,,,,26.11111111,-22,20,75,-70.88888889,48.88888889,39.11111111,-151.1111111,-0.250182292,-0.375724826,1,0,0,1.1664,submitButton,-0.250182292,-0.375724826,0,0,0,2,41,161,6,1,22,69013,2,180,2022-02-10_11h29.23.386,orientation adjustment 2,2021.2.3,MacIntel,59.99880002,,,,,,,
,,,,,,,,,,,,,,,,,,,,,,75,55,20,75,238,3,1.2,-33.8,0.188159722,-0.294700521,1,0,0,0.0661,submitButton,-0.181393229,-0.377213542,0,0,0,2,42,162,39,1,55,69013,2,180,2022-02-10_11h29.23.386,orientation adjustment 2,2021.2.3,MacIntel,59.99880002,,,,,,,
,,,,,,,,,,,,,,,,,,,,,,-26.66666667,-36,20,75,-44.66666667,8.666666667,3.466666667,-129.4666667,0.385512153,-0.294500868,1,0,0,0.2324,submitButton,-0.323810764,-0.378068576,0,0,0,2,43,163,20,1,36,69013,2,180,2022-02-10_11h29.23.386,orientation adjustment 2,2021.2.3,MacIntel,59.99880002,,,,,,,
,,,,,,,,,,,,,,,,,,,,,,-60.55555556,-59,20,75,18.44444444,77.44444444,61.95555556,-87.04444444,-0.380173611,-0.401189236,1,0,0,1.9659,submitButton,0.553658854,-0.427821181,1,0,0,2,44,164,43,1,59,69013,2,180,2022-02-10_11h29.23.386,orientation adjustment 2,2021.2.3,MacIntel,59.99880002,pause_continueButton,,,,,,
,,,,,,,,,,,,,,,,,,,,,,-36.11111111,24,20,75,-119.1111111,36.88888889,29.51111111,-95.51111111,-0.172365451,-0.403893229,1,0,0,2.1488,submitButton,-0.172365451,-0.403893229,0,0,0,2,45,165,8,1,24,69013,2,180,2022-02-10_11h29.23.386,orientation adjustment 2,2021.2.3,MacIntel,59.99880002,,,,,,,
,,,,,,,,,,,,,,,,,,,,,,54.44444444,-40,20,75,77.44444444,62.55555556,50.04444444,-79.95555556,0.225447049,-0.277213542,1,0,0,0.0995,submitButton,-0.166184896,-0.411875,0,0,0,2,46,166,24,1,40,69013,2,180,2022-02-10_11h29.23.386,orientation adjustment 2,2021.2.3,MacIntel,59.99880002,,,,,,,
,,,,,,,,,,,,,,,,,,,,,,39.44444444,-63,20,75,-105.5555556,42.55555556,34.04444444,-187.0444444,0.350868056,-0.32375434,1,0,0,0.317,submitButton,-0.218207465,-0.377769097,0,0,0,2,47,167,47,1,63,69013,2,180,2022-02-10_11h29.23.386,orientation adjustment 2,2021.2.3,MacIntel,59.99880002,,,,,,,
,,,,,,,,,,,,,,,,,,,,,,23.33333333,-34,20,75,56.33333333,89.66666667,71.73333333,-52.26666667,-0.098602431,-0.378606771,1,0,0,0.6159,submitButton,-0.098602431,-0.378606771,0,0,0,2,48,168,18,1,34,69013,2,180,2022-02-10_11h29.23.386,orientation adjustment 2,2021.2.3,MacIntel,59.99880002,,,,,,,
,,,,,,,,,,,,,,,,,,,,,,-58.33333333,32,20,75,-93.33333333,54.66666667,43.73333333,-101.7333333,0.343168403,-0.302048611,1,0,0,0.4664,submitButton,-0.232530382,-0.403541667,0,0,0,2,49,169,16,1,32,69013,2,180,2022-02-10_11h29.23.386,orientation adjustment 2,2021.2.3,MacIntel,59.99880002,,,,,,,
,,,,,,,,,,,,,,,,,,,,,,-67.77777778,-66,20,75,-63.77777778,2.222222222,0.888888889,-155.1111111,0.198519965,-0.321779514,1,0,0,1.4495,submitButton,-0.191731771,-0.401510417,0,0,0,2,50,170,50,1,66,69013,2,180,2022-02-10_11h29.23.386,orientation adjustment 2,2021.2.3,MacIntel,59.99880002,,,,,,,
,,,,,,,,,,,,,,,,,,,,,,66.66666667,61,20,75,235.6666667,5.333333333,2.133333333,-26.86666667,0.175681424,-0.299257812,1,0,0,1.5316,submitButton,-0.20046441,-0.409118924,0,0,0,2,51,171,45,1,61,69013,2,180,2022-02-10_11h29.23.386,orientation adjustment 2,2021.2.3,MacIntel,59.99880002,,,,,,,
,,,,,,,,,,,,,,,,,,,,,,32.77777778,-72,20,75,-74.22222222,2.222222222,0.888888889,-162.8888889,-0.291276042,-0.356497396,1,0,0,0.3822,submitButton,-0.160611979,-0.388111979,0,0,0,2,52,172,56,1,72,69013,2,180,2022-02-10_11h29.23.386,orientation adjustment 2,2021.2.3,MacIntel,59.99880002,,,,,,,
,,,,,,,,,,,,,,,,,,,,,,43.33333333,71,20,75,236.3333333,14.66666667,5.866666667,-13.13333333,-0.188272569,-0.387126736,1,0,0,2.0683,submitButton,-0.188272569,-0.387126736,0,0,0,2,53,173,55,1,71,69013,2,180,2022-02-10_11h29.23.386,orientation adjustment 2,2021.2.3,MacIntel,59.99880002,,,,,,,
,,,,,,,,,,,,,,,,,,,,,,-48.33333333,17,20,75,29.66666667,12.66666667,5.066666667,-67.93333333,-0.189435764,-0.414027778,1,0,0,0.5823,submitButton,-0.189435764,-0.414027778,0,0,0,2,54,174,1,1,17,69013,2,180,2022-02-10_11h29.23.386,orientation adjustment 2,2021.2.3,MacIntel,59.99880002,,,,,,,
,,,,,,,,,,,,,,,,,,,,,,-27.22222222,68,20,75,3.777777778,64.22222222,51.37777778,-73.37777778,-0.142621528,-0.382617188,1,0,0,0.6155,submitButton,-0.142621528,-0.382617188,0,0,0,2,55,175,52,1,68,69013,2,180,2022-02-10_11h29.23.386,orientation adjustment 2,2021.2.3,MacIntel,59.99880002,,,,,,,
,,,,,,,,,,,,,,,,,,,,,,21.66666667,-60,20,75,112.6666667,7.333333333,2.933333333,-147.0666667,-0.132682292,-0.392326389,1,0,0,2.1336,submitButton,-0.132682292,-0.392326389,0,0,0,2,56,176,44,1,60,69013,2,180,2022-02-10_11h29.23.386,orientation adjustment 2,2021.2.3,MacIntel,59.99880002,,,,,,,
,,,,,,,,,,,,,,,,,,,,,,32.22222222,56,20,75,220.2222222,15.77777778,10.25555556,-23.74444444,-0.120585938,-0.398103299,1,0,0,1.6485,submitButton,-0.120585938,-0.398103299,0,0,0,2,57,177,40,1,56,69013,2,180,2022-02-10_11h29.23.386,orientation adjustment 2,2021.2.3,MacIntel,59.99880002,,,,,,,
,,,,,,,,,,,,,,,,,,,,,,-48.88888889,30,20,75,34.11111111,4.111111111,1.644444444,-58.35555556,0.201527778,-0.329578993,1,0,0,0.782,submitButton,0.080555556,-0.310915799,0,0,0,2,58,178,14,1,30,69013,2,180,2022-02-10_11h29.23.386,orientation adjustment 2,2021.2.3,MacIntel,59.99880002,,,,,,,
,,,,,,,,,,,,,,,,,,,,,,63.33333333,51,20,75,57.33333333,6.333333333,2.533333333,-36.46666667,-0.152287326,-0.399722222,1,0,0,0.6844,submitButton,-0.152287326,-0.399722222,0,0,0,2,59,179,35,1,51,69013,2,180,2022-02-10_11h29.23.386,orientation adjustment 2,2021.2.3,MacIntel,59.99880002,,,,,,,
,,,,,,,,,,,,,,,,,,,,,,,,,,,,,,,,,,,,,,,,,,,,,,,,69013,2,180,2022-02-10_11h29.23.386,orientation adjustment 2,2021.2.3,MacIntel,59.99880002,,0.332769097,-0.375251736,1,0,0,EndButtonTxt
