consentMouse1.x,consentMouse1.y,consentMouse1.leftButton,consentMouse1.midButton,consentMouse1.rightButton,consentMouse1.clicked_name,consent_Mouse.x,consent_Mouse.y,consent_Mouse.leftButton,consent_Mouse.midButton,consent_Mouse.rightButton,consent_Mouse.clicked_name,startMouse.x,startMouse.y,startMouse.leftButton,startMouse.midButton,startMouse.rightButton,startMouse_2.x,startMouse_2.y,startMouse_2.leftButton,startMouse_2.midButton,startMouse_2.rightButton,start_distance,fixedOri,minimalDistance,maxOri,this_ori,accuracy,presented_accuracy,presented_this_ori,submitMouse.x,submitMouse.y,submitMouse.leftButton,submitMouse.midButton,submitMouse.rightButton,submitMouse.time,submitMouse.clicked_name,pauseMouse.x,pauseMouse.y,pauseMouse.leftButton,pauseMouse.midButton,pauseMouse.rightButton,trials.thisRepN,trials.thisTrialN,trials.thisN,trials.thisIndex,trials.ran,startOri,participant,condition,nTrials,date,expName,psychopyVersion,OS,frameRate,pauseMouse.clicked_name,EndButtonMouse.x,EndButtonMouse.y,EndButtonMouse.leftButton,EndButtonMouse.midButton,EndButtonMouse.rightButton,EndButtonMouse.clicked_name
0.441232639,-0.395651042,1,0,0,consent_button1,0.422521701,-0.395811632,1,0,0,consent_button,0.431736111,-0.356644965,1,0,0,0.42641059,-0.353967014,1,0,0,48.88888889,27,20,75,90.88888889,63.88888889,51.11111111,-11.88888889,0.229309896,-0.294053819,1,0,0,1.965,submitButton,0.121037326,-0.123177083,0,0,0,0,0,0,11,1,27,69163,2,180,2022-02-10_21h41.39.044,orientation adjustment 2,2021.2.3,MacIntel,60.0024001,,,,,,,
,,,,,,,,,,,,,,,,,,,,,,20.55555556,-65,20,75,-123.4444444,58.44444444,46.75555556,-201.7555556,0.375885417,-0.304713542,1,0,0,1.5828,submitButton,0.193007812,-0.28358941,0,0,0,0,1,1,49,1,65,69163,2,180,2022-02-10_21h41.39.044,orientation adjustment 2,2021.2.3,MacIntel,60.0024001,,,,,,,
,,,,,,,,,,,,,,,,,,,,,,-62.77777778,-40,20,75,-62.77777778,22.77777778,14.80555556,-144.8055556,-0.386840278,-0.388055556,1,0,0,0.6833,submitButton,0.18108941,-0.300190972,0,0,0,0,2,2,24,1,40,69163,2,180,2022-02-10_21h41.39.044,orientation adjustment 2,2021.2.3,MacIntel,60.0024001,,,,,,,
,,,,,,,,,,,,,,,,,,,,,,66.66666667,-75,20,75,-18.33333333,56.66666667,45.33333333,-119.6666667,0.386076389,-0.293246528,1,0,0,0.2505,submitButton,0.403723958,-0.302252604,0,0,0,0,3,3,59,1,75,69163,2,180,2022-02-10_21h41.39.044,orientation adjustment 2,2021.2.3,MacIntel,60.0024001,,,,,,,
,,,,,,,,,,,,,,,,,,,,,,-26.66666667,-56,20,75,-72.66666667,16.66666667,10.83333333,-156.8333333,0.188363715,-0.284192708,1,0,0,0.7174,submitButton,0.29375434,-0.322269965,0,0,0,0,4,4,40,1,56,69163,2,180,2022-02-10_21h41.39.044,orientation adjustment 2,2021.2.3,MacIntel,60.0024001,,,,,,,
,,,,,,,,,,,,,,,,,,,,,,43.88888889,66,20,75,120.8888889,54.88888889,43.91111111,19.91111111,0.399201389,-0.299153646,1,0,0,0.2006,submitButton,0.360008681,-0.298363715,0,0,0,0,5,5,50,1,66,69163,2,180,2022-02-10_21h41.39.044,orientation adjustment 2,2021.2.3,MacIntel,60.0024001,,,,,,,
,,,,,,,,,,,,,,,,,,,,,,47.22222222,-55,20,75,-120.7777778,65.77777778,52.62222222,-197.6222222,0.389796007,-0.319357639,1,0,0,1.3337,submitButton,0.151384549,0.078220486,0,0,0,0,6,6,39,1,55,69163,2,180,2022-02-10_21h41.39.044,orientation adjustment 2,2021.2.3,MacIntel,60.0024001,,,,,,,
,,,,,,,,,,,,,,,,,,,,,,-50.55555556,-24,20,75,-59.55555556,35.55555556,28.44444444,-142.4444444,0.374123264,-0.327326389,1,0,0,0.1327,submitButton,-0.251788194,-0.389036458,0,0,0,0,7,7,8,1,24,69163,2,180,2022-02-10_21h41.39.044,orientation adjustment 2,2021.2.3,MacIntel,60.0024001,,,,,,,
,,,,,,,,,,,,,,,,,,,,,,48.88888889,-67,20,75,-27.11111111,39.88888889,31.91111111,-125.0888889,-0.235303819,-0.374466146,1,0,0,0.9334,submitButton,-0.235303819,-0.374466146,0,0,0,0,8,8,51,1,67,69163,2,180,2022-02-10_21h41.39.044,orientation adjustment 2,2021.2.3,MacIntel,60.0024001,,,,,,,
,,,,,,,,,,,,,,,,,,,,,,65.55555556,-53,20,75,-50.44444444,2.555555556,1.022222222,-141.9777778,0.414388021,-0.312248264,1,0,0,1.2503,submitButton,0.316705729,-0.339140625,0,0,0,0,9,9,37,1,53,69163,2,180,2022-02-10_21h41.39.044,orientation adjustment 2,2021.2.3,MacIntel,60.0024001,,,,,,,
,,,,,,,,,,,,,,,,,,,,,,68.33333333,19,20,75,127.3333333,71.66666667,57.33333333,-13.66666667,0.215946181,-0.279635417,1,0,0,0.5667,submitButton,0.216783854,-0.334414062,0,0,0,0,10,10,3,1,19,69163,2,180,2022-02-10_21h41.39.044,orientation adjustment 2,2021.2.3,MacIntel,60.0024001,,,,,,,
,,,,,,,,,,,,,,,,,,,,,,-40,-32,20,75,33,65,52,-70,0.189796007,-0.298637153,1,0,0,1.066,submitButton,0.342274306,-0.146671007,0,0,0,0,11,11,16,1,32,69163,2,180,2022-02-10_21h41.39.044,orientation adjustment 2,2021.2.3,MacIntel,60.0024001,,,,,,,
,,,,,,,,,,,,,,,,,,,,,,-42.22222222,-28,20,75,-226.2222222,18.22222222,11.84444444,-129.8444444,-0.399804687,-0.334105903,1,0,0,2.9337,submitButton,0.057838542,-0.335993924,0,0,0,0,12,12,12,1,28,69163,2,180,2022-02-10_21h41.39.044,orientation adjustment 2,2021.2.3,MacIntel,60.0024001,,,,,,,
,,,,,,,,,,,,,,,,,,,,,,44.44444444,63,20,75,137.4444444,74.44444444,59.55555556,32.55555556,-0.440086806,-0.424835069,1,0,0,0.633,submitButton,-0.440086806,-0.424835069,0,0,0,0,13,13,47,1,63,69163,2,180,2022-02-10_21h41.39.044,orientation adjustment 2,2021.2.3,MacIntel,60.0024001,,,,,,,
,,,,,,,,,,,,,,,,,,,,,,-54.44444444,-39,20,75,39.55555556,78.55555556,62.84444444,-66.15555556,0.184908854,-0.283355035,1,0,0,1.9993,submitButton,0.28093316,-0.404453125,1,0,0,0,14,14,23,1,39,69163,2,180,2022-02-10_21h41.39.044,orientation adjustment 2,2021.2.3,MacIntel,60.0024001,pause_continueButton,,,,,,
,,,,,,,,,,,,,,,,,,,,,,-27.22222222,61,20,75,121.7777778,60.77777778,48.62222222,19.62222222,-0.46656684,-0.401124132,1,0,0,1.2836,submitButton,0.144357639,-0.298572049,0,0,0,0,15,15,45,1,61,69163,2,180,2022-02-10_21h41.39.044,orientation adjustment 2,2021.2.3,MacIntel,60.0024001,,,,,,,
,,,,,,,,,,,,,,,,,,,,,,75,34,20,75,237,23,14.95,-41.05,-0.356705729,-0.416063368,1,0,0,1.4496,submitButton,0.221085069,-0.07984809,0,0,0,0,16,16,18,1,34,69163,2,180,2022-02-10_21h41.39.044,orientation adjustment 2,2021.2.3,MacIntel,60.0024001,,,,,,,
,,,,,,,,,,,,,,,,,,,,,,-28.33333333,58,20,75,41.66666667,16.33333333,10.61666667,-42.61666667,0.364657118,-0.27671875,1,0,0,0.117,submitButton,-0.19093316,-0.420412326,0,0,0,0,17,17,42,1,58,69163,2,180,2022-02-10_21h41.39.044,orientation adjustment 2,2021.2.3,MacIntel,60.0024001,,,,,,,
,,,,,,,,,,,,,,,,,,,,,,-42.77777778,31,20,75,42.22222222,11.22222222,4.488888889,-54.51111111,0.201167535,-0.28046875,1,0,0,5.867,submitButton,0.551440972,-0.294709201,0,0,0,0,18,18,15,1,31,69163,2,180,2022-02-10_21h41.39.044,orientation adjustment 2,2021.2.3,MacIntel,60.0024001,,,,,,,
,,,,,,,,,,,,,,,,,,,,,,36.11111111,57,20,75,29.11111111,27.88888889,18.12777778,-51.12777778,-0.403780382,-0.429678819,1,0,0,1.1999,submitButton,0.143320312,-0.268467882,0,0,0,0,19,19,41,1,57,69163,2,180,2022-02-10_21h41.39.044,orientation adjustment 2,2021.2.3,MacIntel,60.0024001,,,,,,,
,,,,,,,,,,,,,,,,,,,,,,67.77777778,-47,20,75,52.77777778,80.22222222,64.17777778,-72.82222222,0.202712674,-0.317881944,1,0,0,2.2331,submitButton,-0.083068576,-0.235403646,0,0,0,0,20,20,31,1,47,69163,2,180,2022-02-10_21h41.39.044,orientation adjustment 2,2021.2.3,MacIntel,60.0024001,,,,,,,
,,,,,,,,,,,,,,,,,,,,,,-48.88888889,-69,20,75,-230.8888889,18.11111111,11.77222222,-170.7722222,0.367352431,-0.316605903,1,0,0,0.1162,submitButton,-0.501783854,-0.368376736,0,0,0,0,21,21,53,1,69,69163,2,180,2022-02-10_21h41.39.044,orientation adjustment 2,2021.2.3,MacIntel,60.0024001,,,,,,,
,,,,,,,,,,,,,,,,,,,,,,-71.66666667,-25,20,75,-60.66666667,35.66666667,28.53333333,-143.5333333,-0.423702257,-0.348515625,1,0,0,0.7168,submitButton,0.280451389,-0.315646701,0,0,0,0,22,22,9,1,25,69163,2,180,2022-02-10_21h41.39.044,orientation adjustment 2,2021.2.3,MacIntel,60.0024001,,,,,,,
,,,,,,,,,,,,,,,,,,,,,,-20.55555556,-73,20,75,-36.55555556,36.44444444,29.15555556,-133.8444444,-0.382734375,-0.399592014,1,0,0,0.6164,submitButton,0.224283854,-0.311310764,0,0,0,0,23,23,57,1,73,69163,2,180,2022-02-10_21h41.39.044,orientation adjustment 2,2021.2.3,MacIntel,60.0024001,,,,,,,
,,,,,,,,,,,,,,,,,,,,,,-28.88888889,70,20,75,-100.8888889,9.111111111,3.644444444,-23.64444444,0.380130208,-0.295034722,1,0,0,1.9836,submitButton,0.365594618,-0.387395833,0,0,0,0,24,24,54,1,70,69163,2,180,2022-02-10_21h41.39.044,orientation adjustment 2,2021.2.3,MacIntel,60.0024001,,,,,,,
,,,,,,,,,,,,,,,,,,,,,,24.44444444,-72,20,75,-118.5555556,46.55555556,37.24444444,-199.2444444,-0.353051215,-0.385993924,1,0,0,1.3671,submitButton,0.11109375,-0.294835069,0,0,0,0,25,25,56,1,72,69163,2,180,2022-02-10_21h41.39.044,orientation adjustment 2,2021.2.3,MacIntel,60.0024001,,,,,,,
,,,,,,,,,,,,,,,,,,,,,,70,-48,20,75,-44,4,1.6,-136.4,-0.358450521,-0.415954861,1,0,0,0.9846,submitButton,0.338619792,-0.316024306,0,0,0,0,26,26,32,1,48,69163,2,180,2022-02-10_21h41.39.044,orientation adjustment 2,2021.2.3,MacIntel,60.0024001,,,,,,,
,,,,,,,,,,,,,,,,,,,,,,50.55555556,-16,20,75,-37.44444444,21.44444444,13.93888889,-119.9388889,-0.210065104,-0.444835069,1,0,0,0.6169,submitButton,0.090924479,-0.206592882,0,0,0,0,27,27,0,1,16,69163,2,180,2022-02-10_21h41.39.044,orientation adjustment 2,2021.2.3,MacIntel,60.0024001,,,,,,,
,,,,,,,,,,,,,,,,,,,,,,-71.11111111,-45,20,75,-16.11111111,28.88888889,18.77777778,-116.2222222,0.167634549,-0.281375868,1,0,0,1.3844,submitButton,0.066848958,-0.338940972,0,0,0,0,28,28,29,1,45,69163,2,180,2022-02-10_21h41.39.044,orientation adjustment 2,2021.2.3,MacIntel,60.0024001,,,,,,,
,,,,,,,,,,,,,,,,,,,,,,-52.22222222,52,20,75,-38.22222222,89.77777778,71.82222222,-109.8222222,-0.469587674,-0.40578125,1,0,0,0.4488,submitButton,0.311527778,-0.378172743,1,0,0,0,29,29,36,1,52,69163,2,180,2022-02-10_21h41.39.044,orientation adjustment 2,2021.2.3,MacIntel,60.0024001,pause_continueButton,,,,,,
,,,,,,,,,,,,,,,,,,,,,,50,49,20,75,59,10,4,-37,-0.591875,-0.403250868,1,0,0,1.2659,submitButton,0.324157986,-0.286236979,0,0,0,0,30,30,33,1,49,69163,2,180,2022-02-10_21h41.39.044,orientation adjustment 2,2021.2.3,MacIntel,60.0024001,,,,,,,
,,,,,,,,,,,,,,,,,,,,,,-54.44444444,23,20,75,-122.4444444,34.55555556,27.64444444,-94.64444444,-0.356328125,-0.360681424,1,0,0,0.9161,submitButton,0.23500434,-0.311527778,0,0,0,0,31,31,7,1,23,69163,2,180,2022-02-10_21h41.39.044,orientation adjustment 2,2021.2.3,MacIntel,60.0024001,,,,,,,
,,,,,,,,,,,,,,,,,,,,,,61.66666667,37,20,75,214.6666667,2.333333333,0.933333333,-52.06666667,0.238098958,-0.298919271,1,0,0,0.9988,submitButton,0.310486111,-0.370876736,0,0,0,0,32,32,21,1,37,69163,2,180,2022-02-10_21h41.39.044,orientation adjustment 2,2021.2.3,MacIntel,60.0024001,,,,,,,
,,,,,,,,,,,,,,,,,,,,,,66.66666667,-22,20,75,32.66666667,54.66666667,43.73333333,-68.26666667,0.215711806,-0.306306424,1,0,0,0.1163,submitButton,0.352352431,-0.315030382,0,0,0,0,33,33,6,1,22,69163,2,180,2022-02-10_21h41.39.044,orientation adjustment 2,2021.2.3,MacIntel,60.0024001,,,,,,,
,,,,,,,,,,,,,,,,,,,,,,32.22222222,54,20,75,-33.77777778,87.77777778,70.22222222,-106.2222222,0.382048611,-0.32859809,1,0,0,1.3009,submitButton,-0.219787326,-0.385286458,0,0,0,0,34,34,38,1,54,69163,2,180,2022-02-10_21h41.39.044,orientation adjustment 2,2021.2.3,MacIntel,60.0024001,,,,,,,
,,,,,,,,,,,,,,,,,,,,,,72.22222222,-64,20,75,38.22222222,77.77777778,62.22222222,-91.77777778,0.184448785,-0.287465278,1,0,0,5.1489,submitButton,0.351341146,-0.376180556,0,0,0,0,35,35,48,1,64,69163,2,180,2022-02-10_21h41.39.044,orientation adjustment 2,2021.2.3,MacIntel,60.0024001,,,,,,,
,,,,,,,,,,,,,,,,,,,,,,-41.66666667,46,20,75,-48.66666667,85.33333333,68.26666667,-112.2666667,-0.268342014,-0.386527778,1,0,0,0.4504,submitButton,0.192018229,-0.27749566,0,0,0,0,36,36,30,1,46,69163,2,180,2022-02-10_21h41.39.044,orientation adjustment 2,2021.2.3,MacIntel,60.0024001,,,,,,,
,,,,,,,,,,,,,,,,,,,,,,-38.33333333,71,20,75,54.66666667,16.33333333,10.61666667,-29.61666667,-0.40296441,-0.413932292,1,0,0,0.7161,submitButton,0.231167535,-0.331328125,0,0,0,0,37,37,55,1,71,69163,2,180,2022-02-10_21h41.39.044,orientation adjustment 2,2021.2.3,MacIntel,60.0024001,,,,,,,
,,,,,,,,,,,,,,,,,,,,,,58.88888889,41,20,75,238.8888889,17.88888889,11.62777778,-37.37222222,-0.192526042,-0.367100694,1,0,0,2.4994,submitButton,0.32265625,-0.322052951,0,0,0,0,38,38,25,1,41,69163,2,180,2022-02-10_21h41.39.044,orientation adjustment 2,2021.2.3,MacIntel,60.0024001,,,,,,,
,,,,,,,,,,,,,,,,,,,,,,-59.44444444,20,20,75,-116.4444444,43.55555556,34.84444444,-104.8444444,-0.209301215,-0.314114583,1,0,0,1.4997,submitButton,0.255390625,-0.239960937,0,0,0,0,39,39,4,1,20,69163,2,180,2022-02-10_21h41.39.044,orientation adjustment 2,2021.2.3,MacIntel,60.0024001,,,,,,,
,,,,,,,,,,,,,,,,,,,,,,61.11111111,17,20,75,24.11111111,7.111111111,2.844444444,-70.15555556,0.351315104,-0.288346354,1,0,0,0.4833,submitButton,0.303346354,-0.310299479,0,0,0,0,40,40,1,1,17,69163,2,180,2022-02-10_21h41.39.044,orientation adjustment 2,2021.2.3,MacIntel,60.0024001,,,,,,,
,,,,,,,,,,,,,,,,,,,,,,-28.33333333,-43,20,75,-161.3333333,61.66666667,49.33333333,-182.3333333,-0.257330729,-0.390386285,1,0,0,1.2321,submitButton,0.382526042,-0.362061632,0,0,0,0,41,41,27,1,43,69163,2,180,2022-02-10_21h41.39.044,orientation adjustment 2,2021.2.3,MacIntel,60.0024001,,,,,,,
,,,,,,,,,,,,,,,,,,,,,,37.22222222,35,20,75,-31.77777778,66.77777778,53.42222222,-108.4222222,-0.342296007,-0.375551215,1,0,0,2.3666,submitButton,0.228055556,-0.299366319,0,0,0,0,42,42,19,1,35,69163,2,180,2022-02-10_21h41.39.044,orientation adjustment 2,2021.2.3,MacIntel,60.0024001,,,,,,,
,,,,,,,,,,,,,,,,,,,,,,33.88888889,21,20,75,38.88888889,17.88888889,11.62777778,-57.37222222,0.383637153,-0.281349826,1,0,0,0.752,submitButton,0.444175347,-0.290121528,0,0,0,0,43,43,5,1,21,69163,2,180,2022-02-10_21h41.39.044,orientation adjustment 2,2021.2.3,MacIntel,60.0024001,,,,,,,
,,,,,,,,,,,,,,,,,,,,,,-73.33333333,38,20,75,-149.3333333,7.333333333,2.933333333,-54.93333333,-0.373776042,-0.384309896,1,0,0,1.7502,submitButton,0.46999566,-0.408246528,1,0,0,0,44,44,22,1,38,69163,2,180,2022-02-10_21h41.39.044,orientation adjustment 2,2021.2.3,MacIntel,60.0024001,pause_continueButton,,,,,,
,,,,,,,,,,,,,,,,,,,,,,-37.22222222,36,20,75,-63.22222222,80.77777778,64.62222222,-118.6222222,-0.374079861,-0.42483941,1,0,0,0.9995,submitButton,0.160078125,-0.251892361,0,0,0,0,45,45,20,1,36,69163,2,180,2022-02-10_21h41.39.044,orientation adjustment 2,2021.2.3,MacIntel,60.0024001,,,,,,,
,,,,,,,,,,,,,,,,,,,,,,-71.11111111,18,20,75,43.88888889,25.88888889,16.82777778,-55.17222222,-0.514592014,-0.390212674,1,0,0,1.1173,submitButton,0.213012153,-0.293472222,0,0,0,0,46,46,2,1,18,69163,2,180,2022-02-10_21h41.39.044,orientation adjustment 2,2021.2.3,MacIntel,60.0024001,,,,,,,
,,,,,,,,,,,,,,,,,,,,,,-33.88888889,-68,20,75,-166.8888889,81.11111111,64.88888889,-222.8888889,0.337000868,-0.281189236,1,0,0,0.0171,submitButton,0.18953559,-0.403554688,0,0,0,0,47,47,52,1,68,69163,2,180,2022-02-10_21h41.39.044,orientation adjustment 2,2021.2.3,MacIntel,60.0024001,,,,,,,
,,,,,,,,,,,,,,,,,,,,,,43.88888889,-30,20,75,-61.11111111,31.11111111,24.88888889,-144.8888889,-0.350390625,-0.386818576,1,0,0,1.1993,submitButton,0.111853299,-0.276762153,0,0,0,0,48,48,14,1,30,69163,2,180,2022-02-10_21h41.39.044,orientation adjustment 2,2021.2.3,MacIntel,60.0024001,,,,,,,
,,,,,,,,,,,,,,,,,,,,,,-66.11111111,-44,20,75,-30.11111111,13.88888889,5.555555556,-128.4444444,-0.324014757,-0.416996528,1,0,0,1.1826,submitButton,0.184496528,-0.301263021,0,0,0,0,49,49,28,1,44,69163,2,180,2022-02-10_21h41.39.044,orientation adjustment 2,2021.2.3,MacIntel,60.0024001,,,,,,,
,,,,,,,,,,,,,,,,,,,,,,58.33333333,42,20,75,-46.66666667,88.66666667,70.93333333,-118.9333333,-0.341901042,-0.401506076,1,0,0,2.3503,submitButton,0.143888889,-0.307005208,0,0,0,0,50,50,26,1,42,69163,2,180,2022-02-10_21h41.39.044,orientation adjustment 2,2021.2.3,MacIntel,60.0024001,,,,,,,
,,,,,,,,,,,,,,,,,,,,,,72.22222222,50,20,75,229.2222222,0.777777778,0.311111111,-39.68888889,-0.329557292,-0.428068576,1,0,0,1.2327,submitButton,0.204973958,-0.270203993,0,0,0,0,51,51,34,1,50,69163,2,180,2022-02-10_21h41.39.044,orientation adjustment 2,2021.2.3,MacIntel,60.0024001,,,,,,,
,,,,,,,,,,,,,,,,,,,,,,-71.11111111,-59,20,75,-124.1111111,65.11111111,52.08888889,-201.0888889,0.198177083,-0.300355903,1,0,0,2.551,submitButton,0.425842014,-0.230034722,0,0,0,0,52,52,43,1,59,69163,2,180,2022-02-10_21h41.39.044,orientation adjustment 2,2021.2.3,MacIntel,60.0024001,,,,,,,
,,,,,,,,,,,,,,,,,,,,,,46.66666667,74,20,75,124.6666667,50.66666667,40.53333333,24.53333333,0.198858507,-0.289418403,1,0,0,0.0157,submitButton,0.164557292,-0.357226563,0,0,0,0,53,53,58,1,74,69163,2,180,2022-02-10_21h41.39.044,orientation adjustment 2,2021.2.3,MacIntel,60.0024001,,,,,,,
,,,,,,,,,,,,,,,,,,,,,,-32.77777778,60,20,75,82.22222222,22.22222222,14.44444444,-15.55555556,-0.249435764,-0.370651042,1,0,0,0.8178,submitButton,0.015842014,-0.315447049,0,0,0,0,54,54,44,1,60,69163,2,180,2022-02-10_21h41.39.044,orientation adjustment 2,2021.2.3,MacIntel,60.0024001,,,,,,,
,,,,,,,,,,,,,,,,,,,,,,-66.66666667,-26,20,75,50.33333333,76.33333333,61.06666667,-54.93333333,-0.363537326,-0.417157118,1,0,0,2.1013,submitButton,0.310538194,-0.269292535,0,0,0,0,55,55,10,1,26,69163,2,180,2022-02-10_21h41.39.044,orientation adjustment 2,2021.2.3,MacIntel,60.0024001,,,,,,,
,,,,,,,,,,,,,,,,,,,,,,-36.11111111,-29,20,75,-44.11111111,15.11111111,9.822222222,-128.8222222,0.198550347,-0.283064236,1,0,0,0.2004,submitButton,0.122999132,-0.240907118,0,0,0,0,56,56,13,1,29,69163,2,180,2022-02-10_21h41.39.044,orientation adjustment 2,2021.2.3,MacIntel,60.0024001,,,,,,,
,,,,,,,,,,,,,,,,,,,,,,-46.66666667,-62,20,75,-36.66666667,25.33333333,16.46666667,-135.5333333,-0.249283854,-0.399188368,1,0,0,0.9836,submitButton,0.254592014,-0.356150174,0,0,0,0,57,57,46,1,62,69163,2,180,2022-02-10_21h41.39.044,orientation adjustment 2,2021.2.3,MacIntel,60.0024001,,,,,,,
,,,,,,,,,,,,,,,,,,,,,,-23.33333333,33,20,75,-73.33333333,73.66666667,58.93333333,-115.9333333,-0.216848958,-0.408728299,1,0,0,1.1336,submitButton,0.022230903,-0.258611111,0,0,0,0,58,58,17,1,33,69163,2,180,2022-02-10_21h41.39.044,orientation adjustment 2,2021.2.3,MacIntel,60.0024001,,,,,,,
,,,,,,,,,,,,,,,,,,,,,,-35,51,20,75,44,7,2.8,-41.8,-0.325850694,-0.351276042,1,0,0,0.4993,submitButton,0.426540799,-0.389522569,1,0,0,0,59,59,35,1,51,69163,2,180,2022-02-10_21h41.39.044,orientation adjustment 2,2021.2.3,MacIntel,60.0024001,pause_continueButton,,,,,,
,,,,,,,,,,,,,,,,,,,,,,25.55555556,43,20,75,86.55555556,43.55555556,34.84444444,-12.15555556,-0.289461806,-0.387795139,1,0,0,0.3822,submitButton,0.186493056,-0.325494792,0,0,0,1,0,60,27,1,43,69163,2,180,2022-02-10_21h41.39.044,orientation adjustment 2,2021.2.3,MacIntel,60.0024001,,,,,,,
,,,,,,,,,,,,,,,,,,,,,,26.11111111,-34,20,75,-131.8888889,82.11111111,65.68888889,-189.6888889,0.368146701,-0.306588542,1,0,0,1.4995,submitButton,0.355060764,-0.282738715,0,0,0,1,1,61,18,1,34,69163,2,180,2022-02-10_21h41.39.044,orientation adjustment 2,2021.2.3,MacIntel,60.0024001,,,,,,,
,,,,,,,,,,,,,,,,,,,,,,56.66666667,-23,20,75,-37.33333333,14.33333333,5.733333333,-118.7333333,-0.208003472,-0.403897569,1,0,0,1.1003,submitButton,0.288832465,-0.241888021,0,0,0,1,2,62,7,1,23,69163,2,180,2022-02-10_21h41.39.044,orientation adjustment 2,2021.2.3,MacIntel,60.0024001,,,,,,,
,,,,,,,,,,,,,,,,,,,,,,-55,38,20,75,-32,70,56,-108,0.37359375,-0.279331597,1,0,0,0.1331,submitButton,0.148133681,-0.33796875,0,0,0,1,3,63,22,1,38,69163,2,180,2022-02-10_21h41.39.044,orientation adjustment 2,2021.2.3,MacIntel,60.0024001,,,,,,,
,,,,,,,,,,,,,,,,,,,,,,-54.44444444,75,20,75,52.55555556,22.44444444,14.58888889,-29.58888889,-0.161206597,-0.380842014,1,0,0,0.3336,submitButton,-0.155490451,-0.369166667,0,0,0,1,4,64,59,1,75,69163,2,180,2022-02-10_21h41.39.044,orientation adjustment 2,2021.2.3,MacIntel,60.0024001,,,,,,,
,,,,,,,,,,,,,,,,,,,,,,48.88888889,-20,20,75,65.88888889,85.88888889,68.71111111,-41.28888889,-0.194765625,-0.412947049,1,0,0,0.6992,submitButton,-0.088467882,-0.369861111,0,0,0,1,5,65,4,1,20,69163,2,180,2022-02-10_21h41.39.044,orientation adjustment 2,2021.2.3,MacIntel,60.0024001,,,,,,,
,,,,,,,,,,,,,,,,,,,,,,-61.11111111,65,20,75,-25.11111111,89.88888889,71.91111111,-96.91111111,-0.164257812,-0.395481771,1,0,0,0.783,submitButton,-0.075138889,-0.405234375,0,0,0,1,6,66,49,1,65,69163,2,180,2022-02-10_21h41.39.044,orientation adjustment 2,2021.2.3,MacIntel,60.0024001,,,,,,,
,,,,,,,,,,,,,,,,,,,,,,30,68,20,75,236,12,4.8,-17.2,0.224296875,-0.305499132,1,0,0,2.1324,submitButton,-0.312356771,-0.391844618,0,0,0,1,7,67,52,1,68,69163,2,180,2022-02-10_21h41.39.044,orientation adjustment 2,2021.2.3,MacIntel,60.0024001,,,,,,,
,,,,,,,,,,,,,,,,,,,,,,60,37,20,75,59,22,14.3,-38.7,0.402126736,-0.283064236,1,0,0,0.2655,submitButton,-0.0371875,-0.363094618,0,0,0,1,8,68,21,1,37,69163,2,180,2022-02-10_21h41.39.044,orientation adjustment 2,2021.2.3,MacIntel,60.0024001,,,,,,,
,,,,,,,,,,,,,,,,,,,,,,-56.11111111,-54,20,75,-140.1111111,86.11111111,68.88888889,-212.8888889,0.383615451,-0.292282986,1,0,0,0.0337,submitButton,-0.22594184,-0.39828125,0,0,0,1,9,69,38,1,54,69163,2,180,2022-02-10_21h41.39.044,orientation adjustment 2,2021.2.3,MacIntel,60.0024001,,,,,,,
,,,,,,,,,,,,,,,,,,,,,,57.77777778,67,20,75,124.7777778,57.77777778,46.22222222,23.22222222,-0.302721354,-0.411458333,1,0,0,0.8334,submitButton,-0.302721354,-0.41016059,0,0,0,1,10,70,51,1,67,69163,2,180,2022-02-10_21h41.39.044,orientation adjustment 2,2021.2.3,MacIntel,60.0024001,,,,,,,
,,,,,,,,,,,,,,,,,,,,,,73.88888889,-40,20,75,56.88888889,83.11111111,66.48888889,-63.51111111,-0.213103299,-0.406032986,1,0,0,0.834,submitButton,0.327361111,-0.230143229,0,0,0,1,11,71,24,1,40,69163,2,180,2022-02-10_21h41.39.044,orientation adjustment 2,2021.2.3,MacIntel,60.0024001,,,,,,,
,,,,,,,,,,,,,,,,,,,,,,71.66666667,-53,20,75,-45.33333333,7.666666667,3.066666667,-139.9333333,0.400065104,-0.268459201,1,0,0,1.2829,submitButton,-0.008880208,-0.295594618,0,0,0,1,12,72,37,1,53,69163,2,180,2022-02-10_21h41.39.044,orientation adjustment 2,2021.2.3,MacIntel,60.0024001,,,,,,,
,,,,,,,,,,,,,,,,,,,,,,50.55555556,61,20,75,133.5555556,72.55555556,58.04444444,29.04444444,-0.233789063,-0.398181424,1,0,0,0.5168,submitButton,-0.184149306,-0.355290799,0,0,0,1,13,73,45,1,61,69163,2,180,2022-02-10_21h41.39.044,orientation adjustment 2,2021.2.3,MacIntel,60.0024001,,,,,,,
,,,,,,,,,,,,,,,,,,,,,,-64.44444444,73,20,75,50.55555556,22.44444444,14.58888889,-31.58888889,-0.318077257,-0.364991319,1,0,0,0.4327,submitButton,0.279101563,-0.382595486,1,0,0,1,14,74,57,1,73,69163,2,180,2022-02-10_21h41.39.044,orientation adjustment 2,2021.2.3,MacIntel,60.0024001,pause_continueButton,,,,,,
,,,,,,,,,,,,,,,,,,,,,,-32.22222222,-60,20,75,58.77777778,61.22222222,48.97777778,-101.0222222,-0.230416667,-0.413841146,1,0,0,2.3001,submitButton,0.09187934,-0.381506076,0,0,0,1,15,75,44,1,60,69163,2,180,2022-02-10_21h41.39.044,orientation adjustment 2,2021.2.3,MacIntel,60.0024001,,,,,,,
,,,,,,,,,,,,,,,,,,,,,,-61.11111111,55,20,75,-63.11111111,61.88888889,49.51111111,-84.51111111,-0.181649306,-0.386914062,1,0,0,0.9846,submitButton,-0.186592882,-0.376792535,0,0,0,1,16,76,39,1,55,69163,2,180,2022-02-10_21h41.39.044,orientation adjustment 2,2021.2.3,MacIntel,60.0024001,,,,,,,
,,,,,,,,,,,,,,,,,,,,,,73.33333333,-30,20,75,-42.66666667,12.66666667,5.066666667,-125.0666667,0.362677951,-0.299401042,1,0,0,0.2167,submitButton,0.214704861,-0.373324653,0,0,0,1,17,77,14,1,30,69163,2,180,2022-02-10_21h41.39.044,orientation adjustment 2,2021.2.3,MacIntel,60.0024001,,,,,,,
,,,,,,,,,,,,,,,,,,,,,,51.66666667,21,20,75,140.6666667,60.33333333,48.26666667,-20.73333333,0.183697917,-0.306605903,1,0,0,0.934,submitButton,0.106228299,-0.20796441,0,0,0,1,18,78,5,1,21,69163,2,180,2022-02-10_21h41.39.044,orientation adjustment 2,2021.2.3,MacIntel,60.0024001,,,,,,,
,,,,,,,,,,,,,,,,,,,,,,47.77777778,69,20,75,208.7777778,40.22222222,32.17777778,11.17777778,-0.3040625,-0.396315104,1,0,0,1.9001,submitButton,0.494956597,-0.386436632,0,0,0,1,19,79,53,1,69,69163,2,180,2022-02-10_21h41.39.044,orientation adjustment 2,2021.2.3,MacIntel,60.0024001,,,,,,,
,,,,,,,,,,,,,,,,,,,,,,-51.66666667,39,20,75,50.33333333,11.33333333,4.533333333,-46.46666667,-0.277096354,-0.437890625,1,0,0,0.8499,submitButton,0.271935764,-0.32484809,0,0,0,1,20,80,23,1,39,69163,2,180,2022-02-10_21h41.39.044,orientation adjustment 2,2021.2.3,MacIntel,60.0024001,,,,,,,
,,,,,,,,,,,,,,,,,,,,,,-68.88888889,46,20,75,33.11111111,12.88888889,5.155555556,-49.15555556,-0.257204861,-0.370295139,1,0,0,0.9496,submitButton,0.116028646,-0.344956597,0,0,0,1,21,81,30,1,46,69163,2,180,2022-02-10_21h41.39.044,orientation adjustment 2,2021.2.3,MacIntel,60.0024001,,,,,,,
,,,,,,,,,,,,,,,,,,,,,,-62.22222222,59,20,75,40.77777778,18.22222222,11.84444444,-42.84444444,-0.158671875,-0.401393229,1,0,0,1.1004,submitButton,0.156037326,-0.336289063,0,0,0,1,22,82,43,1,59,69163,2,180,2022-02-10_21h41.39.044,orientation adjustment 2,2021.2.3,MacIntel,60.0024001,,,,,,,
,,,,,,,,,,,,,,,,,,,,,,47.22222222,-41,20,75,51.22222222,87.77777778,70.22222222,-60.77777778,-0.253927951,-0.394240451,1,0,0,0.5837,submitButton,0.078381076,-0.393164063,0,0,0,1,23,83,25,1,41,69163,2,180,2022-02-10_21h41.39.044,orientation adjustment 2,2021.2.3,MacIntel,60.0024001,,,,,,,
,,,,,,,,,,,,,,,,,,,,,,-27.22222222,-18,20,75,-34.22222222,16.22222222,10.54444444,-118.5444444,0.176666667,-0.324201389,1,0,0,0.366,submitButton,-0.067608507,-0.338650174,0,0,0,1,24,84,2,1,18,69163,2,180,2022-02-10_21h41.39.044,orientation adjustment 2,2021.2.3,MacIntel,60.0024001,,,,,,,
,,,,,,,,,,,,,,,,,,,,,,-66.66666667,-51,20,75,-30.66666667,20.33333333,13.21666667,-127.7833333,-0.190438368,-0.391267361,1,0,0,2.0505,submitButton,0.27156684,-0.295273438,0,0,0,1,25,85,35,1,51,69163,2,180,2022-02-10_21h41.39.044,orientation adjustment 2,2021.2.3,MacIntel,60.0024001,,,,,,,
,,,,,,,,,,,,,,,,,,,,,,-30,56,20,75,-46,78,62.4,-96.4,-0.135069444,-0.389027778,1,0,0,1.5671,submitButton,0.219952257,-0.266280382,0,0,0,1,26,86,40,1,56,69163,2,180,2022-02-10_21h41.39.044,orientation adjustment 2,2021.2.3,MacIntel,60.0024001,,,,,,,
,,,,,,,,,,,,,,,,,,,,,,-23.33333333,-50,20,75,52.66666667,77.33333333,61.86666667,-78.13333333,-0.308255208,-0.391497396,1,0,0,2.1489,submitButton,0.339149306,-0.302547743,0,0,0,1,27,87,34,1,50,69163,2,180,2022-02-10_21h41.39.044,orientation adjustment 2,2021.2.3,MacIntel,60.0024001,,,,,,,
,,,,,,,,,,,,,,,,,,,,,,-61.11111111,-32,20,75,-48.11111111,16.11111111,10.47222222,-132.4722222,-0.298554688,-0.428198785,1,0,0,1.7829,submitButton,0.199743924,-0.254240451,0,0,0,1,28,88,16,1,32,69163,2,180,2022-02-10_21h41.39.044,orientation adjustment 2,2021.2.3,MacIntel,60.0024001,,,,,,,
,,,,,,,,,,,,,,,,,,,,,,-42.22222222,71,20,75,-33.22222222,75.77777778,60.62222222,-79.62222222,-0.140108507,-0.409809028,1,0,0,1.817,submitButton,0.392226562,-0.404913194,1,0,0,1,29,89,55,1,71,69163,2,180,2022-02-10_21h41.39.044,orientation adjustment 2,2021.2.3,MacIntel,60.0024001,pause_continueButton,,,,,,
,,,,,,,,,,,,,,,,,,,,,,48.88888889,45,20,75,93.88888889,48.88888889,39.11111111,-5.888888889,-0.296336806,-0.396414931,1,0,0,0.4997,submitButton,0.312100694,-0.316744792,0,0,0,1,30,90,29,1,45,69163,2,180,2022-02-10_21h41.39.044,orientation adjustment 2,2021.2.3,MacIntel,60.0024001,,,,,,,
,,,,,,,,,,,,,,,,,,,,,,59.44444444,52,20,75,38.44444444,13.55555556,5.422222222,-43.42222222,-0.241102431,-0.404144965,1,0,0,1.45,submitButton,0.116184896,-0.349157986,0,0,0,1,31,91,36,1,52,69163,2,180,2022-02-10_21h41.39.044,orientation adjustment 2,2021.2.3,MacIntel,60.0024001,,,,,,,
,,,,,,,,,,,,,,,,,,,,,,-63.88888889,-16,20,75,-123.8888889,72.11111111,57.68888889,-163.6888889,0.413051215,-0.318237847,1,0,0,0.1992,submitButton,0.146592882,-0.31874566,0,0,0,1,32,92,0,1,16,69163,2,180,2022-02-10_21h41.39.044,orientation adjustment 2,2021.2.3,MacIntel,60.0024001,,,,,,,
,,,,,,,,,,,,,,,,,,,,,,42.22222222,-47,20,75,-24.77777778,22.22222222,14.44444444,-122.5555556,0.369622396,-0.264813368,1,0,0,0.3675,submitButton,0.122165799,-0.34031684,0,0,0,1,33,93,31,1,47,69163,2,180,2022-02-10_21h41.39.044,orientation adjustment 2,2021.2.3,MacIntel,60.0024001,,,,,,,
,,,,,,,,,,,,,,,,,,,,,,-25,66,20,75,-53,61,48.8,-72.8,0.424548611,-0.301236979,1,0,0,0.0336,submitButton,0.161032986,-0.324826389,0,0,0,1,34,94,50,1,66,69163,2,180,2022-02-10_21h41.39.044,orientation adjustment 2,2021.2.3,MacIntel,60.0024001,,,,,,,
,,,,,,,,,,,,,,,,,,,,,,-43.33333333,-49,20,75,-60.33333333,11.33333333,4.533333333,-143.5333333,0.114010417,-0.320273437,1,0,0,0.6504,submitButton,0.018272569,-0.348298611,0,0,0,1,35,95,33,1,49,69163,2,180,2022-02-10_21h41.39.044,orientation adjustment 2,2021.2.3,MacIntel,60.0024001,,,,,,,
,,,,,,,,,,,,,,,,,,,,,,-38.33333333,-19,20,75,-57.33333333,38.33333333,30.66666667,-139.6666667,-0.195894097,-0.422851563,1,0,0,0.3152,submitButton,0.178550347,-0.282925347,0,0,0,1,36,96,3,1,19,69163,2,180,2022-02-10_21h41.39.044,orientation adjustment 2,2021.2.3,MacIntel,60.0024001,,,,,,,
,,,,,,,,,,,,,,,,,,,,,,71.66666667,48,20,75,170.6666667,57.33333333,45.86666667,3.866666667,-0.261892361,-0.434548611,1,0,0,0.8156,submitButton,0.220099826,-0.23672309,0,0,0,1,37,97,32,1,48,69163,2,180,2022-02-10_21h41.39.044,orientation adjustment 2,2021.2.3,MacIntel,60.0024001,,,,,,,
,,,,,,,,,,,,,,,,,,,,,,63.88888889,-25,20,75,45.88888889,70.88888889,56.71111111,-58.28888889,-0.211006944,-0.379539931,1,0,0,0.8167,submitButton,0.221375868,-0.309253472,0,0,0,1,38,98,9,1,25,69163,2,180,2022-02-10_21h41.39.044,orientation adjustment 2,2021.2.3,MacIntel,60.0024001,,,,,,,
,,,,,,,,,,,,,,,,,,,,,,-26.11111111,-27,20,75,-53.11111111,26.11111111,16.97222222,-133.9722222,-0.249900174,-0.42140191,1,0,0,0.348,submitButton,0.13812934,-0.353940972,0,0,0,1,39,99,11,1,27,69163,2,180,2022-02-10_21h41.39.044,orientation adjustment 2,2021.2.3,MacIntel,60.0024001,,,,,,,
,,,,,,,,,,,,,,,,,,,,,,-22.22222222,-26,20,75,-25.22222222,0.777777778,0.311111111,-115.6888889,-0.214162326,-0.416675347,1,0,0,1.0339,submitButton,0.200729167,-0.290828993,0,0,0,1,40,100,10,1,26,69163,2,180,2022-02-10_21h41.39.044,orientation adjustment 2,2021.2.3,MacIntel,60.0024001,,,,,,,
,,,,,,,,,,,,,,,,,,,,,,64.44444444,-57,20,75,-22.55555556,34.44444444,27.55555556,-119.4444444,-0.183502604,-0.401011285,1,0,0,1.5838,submitButton,0.170920139,-0.287070312,0,0,0,1,41,101,41,1,57,69163,2,180,2022-02-10_21h41.39.044,orientation adjustment 2,2021.2.3,MacIntel,60.0024001,,,,,,,
,,,,,,,,,,,,,,,,,,,,,,37.77777778,-31,20,75,-54.22222222,23.22222222,15.09444444,-136.0944444,-0.156553819,-0.381579861,1,0,0,1.4176,submitButton,0.221792535,-0.281731771,0,0,0,1,42,102,15,1,31,69163,2,180,2022-02-10_21h41.39.044,orientation adjustment 2,2021.2.3,MacIntel,60.0024001,,,,,,,
,,,,,,,,,,,,,,,,,,,,,,71.66666667,33,20,75,158.6666667,54.33333333,43.46666667,-13.53333333,-0.319726562,-0.417699653,1,0,0,1.0668,submitButton,0.126627604,-0.33328125,0,0,0,1,43,103,17,1,33,69163,2,180,2022-02-10_21h41.39.044,orientation adjustment 2,2021.2.3,MacIntel,60.0024001,,,,,,,
,,,,,,,,,,,,,,,,,,,,,,49.44444444,-42,20,75,26.44444444,68.44444444,54.75555556,-77.24444444,-0.181605903,-0.383064236,1,0,0,0.6672,submitButton,0.243541667,-0.417413194,1,0,0,1,44,104,26,1,42,69163,2,180,2022-02-10_21h41.39.044,orientation adjustment 2,2021.2.3,MacIntel,60.0024001,pause_continueButton,,,,,,
,,,,,,,,,,,,,,,,,,,,,,-31.66666667,-64,20,75,-39.66666667,24.33333333,15.81666667,-138.1833333,0.173003472,-0.271966146,1,0,0,0.3171,submitButton,0.172638889,-0.305217014,0,0,0,1,45,105,48,1,64,69163,2,180,2022-02-10_21h41.39.044,orientation adjustment 2,2021.2.3,MacIntel,60.0024001,,,,,,,
,,,,,,,,,,,,,,,,,,,,,,-69.44444444,-62,20,75,-57.44444444,4.555555556,1.822222222,-150.1777778,0.161671007,-0.295377604,1,0,0,0.0822,submitButton,0.135655382,-0.328845486,0,0,0,1,46,106,46,1,62,69163,2,180,2022-02-10_21h41.39.044,orientation adjustment 2,2021.2.3,MacIntel,60.0024001,,,,,,,
,,,,,,,,,,,,,,,,,,,,,,32.22222222,58,20,75,116.2222222,58.22222222,46.57777778,14.57777778,-0.185568576,-0.404014757,1,0,0,0.7001,submitButton,0.225026042,-0.313107639,0,0,0,1,47,107,42,1,58,69163,2,180,2022-02-10_21h41.39.044,orientation adjustment 2,2021.2.3,MacIntel,60.0024001,,,,,,,
,,,,,,,,,,,,,,,,,,,,,,-35.55555556,22,20,75,54.44444444,32.44444444,25.95555556,-42.04444444,-0.264305556,-0.421671007,1,0,0,1.6676,submitButton,0.138025174,-0.365338542,0,0,0,1,48,108,6,1,22,69163,2,180,2022-02-10_21h41.39.044,orientation adjustment 2,2021.2.3,MacIntel,60.0024001,,,,,,,
,,,,,,,,,,,,,,,,,,,,,,39.44444444,-44,20,75,28.44444444,72.44444444,57.95555556,-76.04444444,-0.296818576,-0.426549479,1,0,0,0.7009,submitButton,0.101432292,-0.310789931,0,0,0,1,49,109,28,1,44,69163,2,180,2022-02-10_21h41.39.044,orientation adjustment 2,2021.2.3,MacIntel,60.0024001,,,,,,,
,,,,,,,,,,,,,,,,,,,,,,-66.11111111,-74,20,75,-42.11111111,31.88888889,25.51111111,-138.4888889,0.194435764,-0.307309028,1,0,0,1.4506,submitButton,0.145989583,-0.331219618,0,0,0,1,50,110,58,1,74,69163,2,180,2022-02-10_21h41.39.044,orientation adjustment 2,2021.2.3,MacIntel,60.0024001,,,,,,,
,,,,,,,,,,,,,,,,,,,,,,68.33333333,-24,20,75,111.3333333,44.66666667,35.73333333,-78.26666667,-0.244210069,-0.404939236,1,0,0,1.2662,submitButton,0.258337674,-0.286215278,0,0,0,1,51,111,8,1,24,69163,2,180,2022-02-10_21h41.39.044,orientation adjustment 2,2021.2.3,MacIntel,60.0024001,,,,,,,
,,,,,,,,,,,,,,,,,,,,,,-63.88888889,63,20,75,-27.88888889,89.11111111,71.28888889,-98.28888889,0.408125,-0.300377604,1,0,0,0.4001,submitButton,-0.260746528,-0.391701389,0,0,0,1,52,112,47,1,63,69163,2,180,2022-02-10_21h41.39.044,orientation adjustment 2,2021.2.3,MacIntel,60.0024001,,,,,,,
,,,,,,,,,,,,,,,,,,,,,,-29.44444444,-29,20,75,49.55555556,78.55555556,62.84444444,-56.15555556,-0.237829861,-0.388359375,1,0,0,2.3505,submitButton,0.221705729,-0.343259549,0,0,0,1,53,113,13,1,29,69163,2,180,2022-02-10_21h41.39.044,orientation adjustment 2,2021.2.3,MacIntel,60.0024001,,,,,,,
,,,,,,,,,,,,,,,,,,,,,,-58.88888889,28,20,75,-30.88888889,58.88888889,47.11111111,-109.1111111,-0.167400174,-0.416193576,1,0,0,0.3328,submitButton,-0.167400174,-0.416193576,0,0,0,1,54,114,12,1,28,69163,2,180,2022-02-10_21h41.39.044,orientation adjustment 2,2021.2.3,MacIntel,60.0024001,,,,,,,
,,,,,,,,,,,,,,,,,,,,,,-38.88888889,-72,20,75,-133.8888889,61.88888889,49.51111111,-211.5111111,0.448142361,-0.281692708,1,0,0,0.1324,submitButton,0.099622396,-0.285342882,0,0,0,1,55,115,56,1,72,69163,2,180,2022-02-10_21h41.39.044,orientation adjustment 2,2021.2.3,MacIntel,60.0024001,,,,,,,
,,,,,,,,,,,,,,,,,,,,,,-38.88888889,36,20,75,-49.88888889,85.88888889,68.71111111,-122.7111111,-0.240373264,-0.411367188,1,0,0,1.5506,submitButton,0.235742188,-0.324027778,0,0,0,1,56,116,20,1,36,69163,2,180,2022-02-10_21h41.39.044,orientation adjustment 2,2021.2.3,MacIntel,60.0024001,,,,,,,
,,,,,,,,,,,,,,,,,,,,,,-71.11111111,-17,20,75,36.88888889,53.88888889,43.11111111,-63.88888889,-0.243797743,-0.407204861,1,0,0,2.3165,submitButton,-0.235425347,-0.391770833,0,0,0,1,57,117,1,1,17,69163,2,180,2022-02-10_21h41.39.044,orientation adjustment 2,2021.2.3,MacIntel,60.0024001,,,,,,,
,,,,,,,,,,,,,,,,,,,,,,62.22222222,-70,20,75,-24.77777778,45.22222222,36.17777778,-123.8222222,0.381180556,-0.262547743,1,0,0,0.5666,submitButton,0.107821181,-0.317196181,0,0,0,1,58,118,54,1,70,69163,2,180,2022-02-10_21h41.39.044,orientation adjustment 2,2021.2.3,MacIntel,60.0024001,,,,,,,
,,,,,,,,,,,,,,,,,,,,,,-33.33333333,-35,20,75,-68.33333333,33.33333333,26.66666667,-151.6666667,-0.273602431,-0.406727431,1,0,0,0.5153,submitButton,0.353164062,-0.417083333,1,0,0,1,59,119,19,1,35,69163,2,180,2022-02-10_21h41.39.044,orientation adjustment 2,2021.2.3,MacIntel,60.0024001,pause_continueButton,,,,,,
,,,,,,,,,,,,,,,,,,,,,,-74.44444444,-36,20,75,-29.44444444,6.555555556,2.622222222,-123.3777778,-0.158003472,-0.414392361,1,0,0,1.8002,submitButton,0.24344184,-0.462313368,0,0,0,2,0,120,20,1,36,69163,2,180,2022-02-10_21h41.39.044,orientation adjustment 2,2021.2.3,MacIntel,60.0024001,,,,,,,
,,,,,,,,,,,,,,,,,,,,,,-30,-30,20,75,-35,5,2,-122,-0.187951389,-0.391132812,1,0,0,0.6997,submitButton,-0.182269965,-0.380980903,0,0,0,2,1,121,14,1,30,69163,2,180,2022-02-10_21h41.39.044,orientation adjustment 2,2021.2.3,MacIntel,60.0024001,,,,,,,
,,,,,,,,,,,,,,,,,,,,,,71.66666667,-51,20,75,-30.33333333,20.66666667,13.43333333,-127.5666667,-0.150855035,-0.389717882,1,0,0,1.333,submitButton,0.393997396,-0.341032986,0,0,0,2,2,122,35,1,51,69163,2,180,2022-02-10_21h41.39.044,orientation adjustment 2,2021.2.3,MacIntel,60.0024001,,,,,,,
,,,,,,,,,,,,,,,,,,,,,,-58.88888889,-46,20,75,-61.88888889,15.88888889,10.32777778,-146.3277778,-0.240607639,-0.480733507,1,0,0,1.4829,submitButton,0.225911458,-0.201835938,0,0,0,2,3,123,30,1,46,69163,2,180,2022-02-10_21h41.39.044,orientation adjustment 2,2021.2.3,MacIntel,60.0024001,,,,,,,
,,,,,,,,,,,,,,,,,,,,,,-44.44444444,-62,20,75,-37.44444444,24.55555556,15.96111111,-136.0388889,-0.183880208,-0.385768229,1,0,0,1.4335,submitButton,0.172126736,-0.312730035,0,0,0,2,4,124,46,1,62,69163,2,180,2022-02-10_21h41.39.044,orientation adjustment 2,2021.2.3,MacIntel,60.0024001,,,,,,,
,,,,,,,,,,,,,,,,,,,,,,46.11111111,-72,20,75,-70.88888889,1.111111111,0.444444444,-161.5555556,-0.206076389,-0.400104167,1,0,0,1.2335,submitButton,0.087057292,-0.31984809,0,0,0,2,5,125,56,1,72,69163,2,180,2022-02-10_21h41.39.044,orientation adjustment 2,2021.2.3,MacIntel,60.0024001,,,,,,,
,,,,,,,,,,,,,,,,,,,,,,-56.11111111,-56,20,75,-66.11111111,10.11111111,4.044444444,-150.0444444,-0.224678819,-0.442265625,1,0,0,0.9828,submitButton,0.153806424,-0.30844184,0,0,0,2,6,126,40,1,56,69163,2,180,2022-02-10_21h41.39.044,orientation adjustment 2,2021.2.3,MacIntel,60.0024001,,,,,,,
,,,,,,,,,,,,,,,,,,,,,,-62.77777778,-43,20,75,-42.77777778,0.222222222,0.088888889,-132.9111111,-0.232269965,-0.385542535,1,0,0,1.2332,submitButton,0.115355903,-0.370742187,0,0,0,2,7,127,27,1,43,69163,2,180,2022-02-10_21h41.39.044,orientation adjustment 2,2021.2.3,MacIntel,60.0024001,,,,,,,
,,,,,,,,,,,,,,,,,,,,,,-60,-18,20,75,-43,25,16.25,-124.25,-0.22515191,-0.380759549,1,0,0,1.2005,submitButton,0.167152778,-0.27983941,0,0,0,2,8,128,2,1,18,69163,2,180,2022-02-10_21h41.39.044,orientation adjustment 2,2021.2.3,MacIntel,60.0024001,,,,,,,
,,,,,,,,,,,,,,,,,,,,,,35.55555556,-68,20,75,-14.44444444,53.55555556,42.84444444,-115.1555556,0.2025,-0.287391493,1,0,0,0.1491,submitButton,0.219587674,-0.320755208,0,0,0,2,9,129,52,1,68,69163,2,180,2022-02-10_21h41.39.044,orientation adjustment 2,2021.2.3,MacIntel,60.0024001,,,,,,,
,,,,,,,,,,,,,,,,,,,,,,33.33333333,34,20,75,121.3333333,87.33333333,69.86666667,13.86666667,-0.224036458,-0.389709201,1,0,0,1.0654,submitButton,0.140169271,-0.326124132,0,0,0,2,10,130,18,1,34,69163,2,180,2022-02-10_21h41.39.044,orientation adjustment 2,2021.2.3,MacIntel,60.0024001,,,,,,,
,,,,,,,,,,,,,,,,,,,,,,20.55555556,66,20,75,44.55555556,21.44444444,13.93888889,-37.93888889,-0.264713542,-0.376996528,1,0,0,1.1331,submitButton,0.069322917,-0.361037326,0,0,0,2,11,131,50,1,66,69163,2,180,2022-02-10_21h41.39.044,orientation adjustment 2,2021.2.3,MacIntel,60.0024001,,,,,,,
,,,,,,,,,,,,,,,,,,,,,,38.88888889,-27,20,75,56.88888889,83.88888889,67.11111111,-49.88888889,-0.295008681,-0.396501736,1,0,0,0.8666,submitButton,-0.076171875,-0.31281684,0,0,0,2,12,132,11,1,27,69163,2,180,2022-02-10_21h41.39.044,orientation adjustment 2,2021.2.3,MacIntel,60.0024001,,,,,,,
,,,,,,,,,,,,,,,,,,,,,,-50.55555556,-74,20,75,-29.55555556,44.44444444,35.55555556,-128.4444444,0.200421007,-0.291423611,1,0,0,1.167,submitButton,0.184578993,-0.34140625,0,0,0,2,13,133,58,1,74,69163,2,180,2022-02-10_21h41.39.044,orientation adjustment 2,2021.2.3,MacIntel,60.0024001,,,,,,,
,,,,,,,,,,,,,,,,,,,,,,28.88888889,41,20,75,122.8888889,81.88888889,65.51111111,16.51111111,0.214578993,-0.309461806,1,0,0,0.2995,submitButton,0.438940972,-0.421276042,1,0,0,2,14,134,25,1,41,69163,2,180,2022-02-10_21h41.39.044,orientation adjustment 2,2021.2.3,MacIntel,60.0024001,pause_continueButton,,,,,,
,,,,,,,,,,,,,,,,,,,,,,-55,49,20,75,52,3,1.2,-39.8,0.183185764,-0.289726563,1,0,0,4.233,submitButton,0.226575521,-0.350425347,0,0,0,2,15,135,33,1,49,69163,2,180,2022-02-10_21h41.39.044,orientation adjustment 2,2021.2.3,MacIntel,60.0024001,,,,,,,
,,,,,,,,,,,,,,,,,,,,,,34.44444444,-26,20,75,45.44444444,71.44444444,57.15555556,-58.84444444,-0.248103299,-0.403537326,1,0,0,0.7995,submitButton,0.254670139,-0.354366319,0,0,0,2,16,136,10,1,26,69163,2,180,2022-02-10_21h41.39.044,orientation adjustment 2,2021.2.3,MacIntel,60.0024001,,,,,,,
,,,,,,,,,,,,,,,,,,,,,,-66.66666667,44,20,75,-22.66666667,66.66666667,53.33333333,-99.33333333,-0.238363715,-0.36312066,1,0,0,0.3502,submitButton,0.0865625,-0.369913194,0,0,0,2,17,137,28,1,44,69163,2,180,2022-02-10_21h41.39.044,orientation adjustment 2,2021.2.3,MacIntel,60.0024001,,,,,,,
,,,,,,,,,,,,,,,,,,,,,,64.44444444,40,20,75,232.4444444,12.44444444,4.977777778,-45.02222222,-0.191102431,-0.357986111,1,0,0,2.3332,submitButton,0.191145833,-0.288806424,0,0,0,2,18,138,24,1,40,69163,2,180,2022-02-10_21h41.39.044,orientation adjustment 2,2021.2.3,MacIntel,60.0024001,,,,,,,
,,,,,,,,,,,,,,,,,,,,,,21.66666667,-64,20,75,53.66666667,62.33333333,49.86666667,-104.1333333,-0.256341146,-0.395451389,1,0,0,1.6667,submitButton,0.130677083,-0.331197917,0,0,0,2,19,139,48,1,64,69163,2,180,2022-02-10_21h41.39.044,orientation adjustment 2,2021.2.3,MacIntel,60.0024001,,,,,,,
,,,,,,,,,,,,,,,,,,,,,,23.88888889,65,20,75,125.8888889,60.88888889,48.71111111,23.71111111,-0.234227431,-0.410651042,1,0,0,0.7838,submitButton,0.169565972,-0.315121528,0,0,0,2,20,140,49,1,65,69163,2,180,2022-02-10_21h41.39.044,orientation adjustment 2,2021.2.3,MacIntel,60.0024001,,,,,,,
,,,,,,,,,,,,,,,,,,,,,,-27.77777778,-69,20,75,64.22222222,46.77777778,37.42222222,-121.5777778,-0.273302951,-0.393871528,1,0,0,2.6008,submitButton,0.167690972,-0.306701389,0,0,0,2,21,141,53,1,69,69163,2,180,2022-02-10_21h41.39.044,orientation adjustment 2,2021.2.3,MacIntel,60.0024001,,,,,,,
,,,,,,,,,,,,,,,,,,,,,,-33.33333333,42,20,75,113.6666667,71.66666667,57.33333333,9.333333333,-0.261280382,-0.404409722,1,0,0,1.9015,submitButton,0.201067708,-0.309010417,0,0,0,2,22,142,26,1,42,69163,2,180,2022-02-10_21h41.39.044,orientation adjustment 2,2021.2.3,MacIntel,60.0024001,,,,,,,
,,,,,,,,,,,,,,,,,,,,,,64.44444444,55,20,75,45.44444444,9.555555556,3.822222222,-38.82222222,0.403576389,-0.307057292,1,0,0,0.1162,submitButton,0.062703993,-0.350368924,0,0,0,2,23,143,39,1,55,69163,2,180,2022-02-10_21h41.39.044,orientation adjustment 2,2021.2.3,MacIntel,60.0024001,,,,,,,
,,,,,,,,,,,,,,,,,,,,,,-64.44444444,71,20,75,41.55555556,29.44444444,19.13888889,-38.13888889,-0.199874132,-0.391692708,1,0,0,11.3168,submitButton,-0.188098958,-0.372013889,0,0,0,2,24,144,55,1,71,69163,2,180,2022-02-10_21h41.39.044,orientation adjustment 2,2021.2.3,MacIntel,60.0024001,,,,,,,
,,,,,,,,,,,,,,,,,,,,,,21.66666667,33,20,75,65.66666667,32.66666667,26.13333333,-30.86666667,-0.203146701,-0.397508681,1,0,0,0.901,submitButton,-0.049157986,-0.367473958,0,0,0,2,25,145,17,1,33,69163,2,180,2022-02-10_21h41.39.044,orientation adjustment 2,2021.2.3,MacIntel,60.0024001,,,,,,,
,,,,,,,,,,,,,,,,,,,,,,37.77777778,-58,20,75,38.77777778,83.22222222,66.57777778,-81.42222222,0.232417535,-0.296644965,1,0,0,0.0997,submitButton,0.166827257,-0.315091146,0,0,0,2,26,146,42,1,58,69163,2,180,2022-02-10_21h41.39.044,orientation adjustment 2,2021.2.3,MacIntel,60.0024001,,,,,,,
,,,,,,,,,,,,,,,,,,,,,,44.44444444,47,20,75,120.4444444,73.44444444,58.75555556,15.75555556,0.21359809,-0.300373264,1,0,0,0.383,submitButton,0.173893229,-0.286063368,0,0,0,2,27,147,31,1,47,69163,2,180,2022-02-10_21h41.39.044,orientation adjustment 2,2021.2.3,MacIntel,60.0024001,,,,,,,
,,,,,,,,,,,,,,,,,,,,,,-20.55555556,50,20,75,45.44444444,4.555555556,1.822222222,-41.82222222,-0.268936632,-0.377999132,1,0,0,0.433,submitButton,0.148194444,-0.313463542,0,0,0,2,28,148,34,1,50,69163,2,180,2022-02-10_21h41.39.044,orientation adjustment 2,2021.2.3,MacIntel,60.0024001,,,,,,,
,,,,,,,,,,,,,,,,,,,,,,61.11111111,61,20,75,49.11111111,11.88888889,4.755555556,-33.75555556,0.355143229,-0.294001736,1,0,0,0.1008,submitButton,0.297022569,-0.392460937,1,0,0,2,29,149,45,1,61,69163,2,180,2022-02-10_21h41.39.044,orientation adjustment 2,2021.2.3,MacIntel,60.0024001,pause_continueButton,,,,,,
,,,,,,,,,,,,,,,,,,,,,,-62.77777778,-20,20,75,-118.7777778,81.22222222,64.97777778,-174.9777778,-0.250668403,-0.381736111,1,0,0,1.5501,submitButton,-0.023532986,-0.381736111,0,0,0,2,30,150,4,1,20,69163,2,180,2022-02-10_21h41.39.044,orientation adjustment 2,2021.2.3,MacIntel,60.0024001,,,,,,,
,,,,,,,,,,,,,,,,,,,,,,34.44444444,29,20,75,-31.55555556,60.55555556,48.44444444,-109.4444444,0.375763889,-0.300442708,1,0,0,0.283,submitButton,0.180056424,-0.393949653,0,0,0,2,31,151,13,1,29,69163,2,180,2022-02-10_21h41.39.044,orientation adjustment 2,2021.2.3,MacIntel,60.0024001,,,,,,,
,,,,,,,,,,,,,,,,,,,,,,75,-32,20,75,43,75,60,-62,-0.258220486,-0.392226562,1,0,0,0.7007,submitButton,0.172730035,-0.347860243,0,0,0,2,32,152,16,1,32,69163,2,180,2022-02-10_21h41.39.044,orientation adjustment 2,2021.2.3,MacIntel,60.0024001,,,,,,,
,,,,,,,,,,,,,,,,,,,,,,-63.33333333,-28,20,75,-41.33333333,13.33333333,5.333333333,-123.3333333,-0.238363715,-0.417552083,1,0,0,1.3156,submitButton,0.005868056,-0.345985243,0,0,0,2,33,153,12,1,28,69163,2,180,2022-02-10_21h41.39.044,orientation adjustment 2,2021.2.3,MacIntel,60.0024001,,,,,,,
,,,,,,,,,,,,,,,,,,,,,,-65.55555556,-17,20,75,-31.55555556,14.55555556,5.822222222,-112.8222222,-0.272647569,-0.415729167,1,0,0,1.2004,submitButton,0.146657986,-0.358676215,0,0,0,2,34,154,1,1,17,69163,2,180,2022-02-10_21h41.39.044,orientation adjustment 2,2021.2.3,MacIntel,60.0024001,,,,,,,
,,,,,,,,,,,,,,,,,,,,,,30,-31,20,75,-32,1,0.4,-121.4,0.348667535,-0.299348958,1,0,0,0.4322,submitButton,-0.216861979,-0.40296441,0,0,0,2,35,155,15,1,31,69163,2,180,2022-02-10_21h41.39.044,orientation adjustment 2,2021.2.3,MacIntel,60.0024001,,,,,,,
,,,,,,,,,,,,,,,,,,,,,,43.33333333,63,20,75,145.3333333,82.33333333,65.86666667,38.86666667,-0.275238715,-0.388914931,1,0,0,1.5832,submitButton,-0.275238715,-0.388914931,0,0,0,2,36,156,47,1,63,69163,2,180,2022-02-10_21h41.39.044,orientation adjustment 2,2021.2.3,MacIntel,60.0024001,,,,,,,
,,,,,,,,,,,,,,,,,,,,,,-47.77777778,-70,20,75,-24.77777778,45.22222222,36.17777778,-123.8222222,0.187695312,-0.307022569,1,0,0,0.2818,submitButton,0.334227431,-0.328428819,0,0,0,2,37,157,54,1,70,69163,2,180,2022-02-10_21h41.39.044,orientation adjustment 2,2021.2.3,MacIntel,60.0024001,,,,,,,
,,,,,,,,,,,,,,,,,,,,,,-73.88888889,-67,20,75,-68.88888889,1.888888889,0.755555556,-157.7555556,0.196783854,-0.296445313,1,0,0,0.3005,submitButton,-0.106861979,-0.340416667,0,0,0,2,38,158,51,1,67,69163,2,180,2022-02-10_21h41.39.044,orientation adjustment 2,2021.2.3,MacIntel,60.0024001,,,,,,,
,,,,,,,,,,,,,,,,,,,,,,-29.44444444,59,20,75,118.5555556,59.55555556,47.64444444,16.64444444,-0.335086806,-0.381028646,1,0,0,2.4678,submitButton,-0.325768229,-0.364778646,0,0,0,2,39,159,43,1,59,69163,2,180,2022-02-10_21h41.39.044,orientation adjustment 2,2021.2.3,MacIntel,60.0024001,,,,,,,
,,,,,,,,,,,,,,,,,,,,,,-43.88888889,-38,20,75,59.11111111,82.88888889,66.31111111,-61.68888889,0.20030816,-0.303394097,1,0,0,1.8666,submitButton,-0.124075521,-0.332469618,0,0,0,2,40,160,22,1,38,69163,2,180,2022-02-10_21h41.39.044,orientation adjustment 2,2021.2.3,MacIntel,60.0024001,,,,,,,
,,,,,,,,,,,,,,,,,,,,,,-58.88888889,52,20,75,-49.88888889,78.11111111,62.48888889,-100.4888889,-0.158767361,-0.367317708,1,0,0,1.1994,submitButton,-0.163020833,-0.389405382,0,0,0,2,41,161,36,1,52,69163,2,180,2022-02-10_21h41.39.044,orientation adjustment 2,2021.2.3,MacIntel,60.0024001,,,,,,,
,,,,,,,,,,,,,,,,,,,,,,-25.55555556,23,20,75,55.44444444,32.44444444,25.95555556,-41.04444444,-0.294696181,-0.391653646,1,0,0,1.1999,submitButton,0.135633681,-0.262881944,0,0,0,2,42,162,7,1,23,69163,2,180,2022-02-10_21h41.39.044,orientation adjustment 2,2021.2.3,MacIntel,60.0024001,,,,,,,
,,,,,,,,,,,,,,,,,,,,,,48.33333333,24,20,75,32.33333333,8.333333333,3.333333333,-62.66666667,-0.189791667,-0.399357639,1,0,0,1.0491,submitButton,0.113715278,-0.383359375,0,0,0,2,43,163,8,1,24,69163,2,180,2022-02-10_21h41.39.044,orientation adjustment 2,2021.2.3,MacIntel,60.0024001,,,,,,,
,,,,,,,,,,,,,,,,,,,,,,43.33333333,-57,20,75,30.33333333,87.33333333,69.86666667,-77.13333333,-0.200512153,-0.383168403,1,0,0,1.3839,submitButton,0.273632812,-0.381028646,1,0,0,2,44,164,41,1,57,69163,2,180,2022-02-10_21h41.39.044,orientation adjustment 2,2021.2.3,MacIntel,60.0024001,pause_continueButton,,,,,,
,,,,,,,,,,,,,,,,,,,,,,61.11111111,45,20,75,125.1111111,80.11111111,64.08888889,19.08888889,-0.265091146,-0.388923611,1,0,0,0.4997,submitButton,0.168576389,-0.317903646,0,0,0,2,45,165,29,1,45,69163,2,180,2022-02-10_21h41.39.044,orientation adjustment 2,2021.2.3,MacIntel,60.0024001,,,,,,,
,,,,,,,,,,,,,,,,,,,,,,63.88888889,25,20,75,41.88888889,16.88888889,10.97777778,-54.02222222,-0.170581597,-0.404704861,1,0,0,1.2496,submitButton,0.213993056,-0.336189236,0,0,0,2,46,166,9,1,25,69163,2,180,2022-02-10_21h41.39.044,orientation adjustment 2,2021.2.3,MacIntel,60.0024001,,,,,,,
,,,,,,,,,,,,,,,,,,,,,,-71.11111111,53,20,75,24.88888889,28.11111111,18.27222222,-55.27222222,-0.284791667,-0.379427083,1,0,0,1.2655,submitButton,0.108893229,-0.335299479,0,0,0,2,47,167,37,1,53,69163,2,180,2022-02-10_21h41.39.044,orientation adjustment 2,2021.2.3,MacIntel,60.0024001,,,,,,,
,,,,,,,,,,,,,,,,,,,,,,-48.33333333,37,20,75,57.66666667,20.66666667,13.43333333,-39.56666667,-0.189253472,-0.402595486,1,0,0,1.2657,submitButton,0.094635417,-0.311901042,0,0,0,2,48,168,21,1,37,69163,2,180,2022-02-10_21h41.39.044,orientation adjustment 2,2021.2.3,MacIntel,60.0024001,,,,,,,
,,,,,,,,,,,,,,,,,,,,,,44.44444444,-75,20,75,40.44444444,64.55555556,51.64444444,-113.3555556,-0.247578125,-0.411106771,1,0,0,1.6167,submitButton,0.192131076,-0.312851563,0,0,0,2,49,169,59,1,75,69163,2,180,2022-02-10_21h41.39.044,orientation adjustment 2,2021.2.3,MacIntel,60.0024001,,,,,,,
,,,,,,,,,,,,,,,,,,,,,,42.22222222,60,20,75,115.2222222,55.22222222,44.17777778,14.17777778,-0.251050347,-0.421514757,1,0,0,1.3837,submitButton,-0.008220486,-0.409262153,0,0,0,2,50,170,44,1,60,69163,2,180,2022-02-10_21h41.39.044,orientation adjustment 2,2021.2.3,MacIntel,60.0024001,,,,,,,
,,,,,,,,,,,,,,,,,,,,,,70.55555556,48,20,75,228.5555556,0.555555556,0.222222222,-41.77777778,0.202165799,-0.315,1,0,0,2.1978,submitButton,-0.182092014,-0.376241319,0,0,0,2,51,171,32,1,48,69163,2,180,2022-02-10_21h41.39.044,orientation adjustment 2,2021.2.3,MacIntel,60.0024001,,,,,,,
,,,,,,,,,,,,,,,,,,,,,,65,-39,20,75,55,86,68.8,-60.2,-0.243467882,-0.421805556,1,0,0,0.951,submitButton,0.207374132,-0.233138021,0,0,0,2,52,172,23,1,39,69163,2,180,2022-02-10_21h41.39.044,orientation adjustment 2,2021.2.3,MacIntel,60.0024001,,,,,,,
,,,,,,,,,,,,,,,,,,,,,,73.88888889,22,20,75,134.8888889,67.11111111,53.68888889,-14.31111111,-0.240082465,-0.436657986,1,0,0,0.8665,submitButton,0.126649306,-0.28641059,0,0,0,2,53,173,6,1,22,69163,2,180,2022-02-10_21h41.39.044,orientation adjustment 2,2021.2.3,MacIntel,60.0024001,,,,,,,
,,,,,,,,,,,,,,,,,,,,,,25.55555556,-73,20,75,31.55555556,75.44444444,60.35555556,-102.6444444,-0.184396701,-0.409197049,1,0,0,1.6167,submitButton,0.164340278,-0.317100694,0,0,0,2,54,174,57,1,73,69163,2,180,2022-02-10_21h41.39.044,orientation adjustment 2,2021.2.3,MacIntel,60.0024001,,,,,,,
,,,,,,,,,,,,,,,,,,,,,,-43.88888889,-35,20,75,-61.88888889,26.88888889,17.47777778,-142.4777778,-0.176588542,-0.395481771,1,0,0,0.7666,submitButton,0.171584201,-0.296831597,0,0,0,2,55,175,19,1,35,69163,2,180,2022-02-10_21h41.39.044,orientation adjustment 2,2021.2.3,MacIntel,60.0024001,,,,,,,
,,,,,,,,,,,,,,,,,,,,,,-23.33333333,19,20,75,-29.33333333,48.33333333,38.66666667,-109.6666667,0.343151042,-0.288116319,1,0,0,0.115,submitButton,0.145872396,-0.353294271,0,0,0,2,56,176,3,1,19,69163,2,180,2022-02-10_21h41.39.044,orientation adjustment 2,2021.2.3,MacIntel,60.0024001,,,,,,,
,,,,,,,,,,,,,,,,,,,,,,-51.11111111,-54,20,75,-148.1111111,85.88888889,68.71111111,-212.7111111,0.404492187,-0.302230903,1,0,0,0.3167,submitButton,0.206801215,-0.328680556,0,0,0,2,57,177,38,1,54,69163,2,180,2022-02-10_21h41.39.044,orientation adjustment 2,2021.2.3,MacIntel,60.0024001,,,,,,,
,,,,,,,,,,,,,,,,,,,,,,37.77777778,16,20,75,134.7777778,61.22222222,48.97777778,-25.02222222,0.205611979,-0.308854167,1,0,0,0.1497,submitButton,0.120872396,-0.382638889,0,0,0,2,58,178,0,1,16,69163,2,180,2022-02-10_21h41.39.044,orientation adjustment 2,2021.2.3,MacIntel,60.0024001,,,,,,,
,,,,,,,,,,,,,,,,,,,,,,-65.55555556,21,20,75,-154.5555556,4.444444444,1.777777778,-70.77777778,-0.207469618,-0.413476562,1,0,0,2.5337,submitButton,-0.207469618,-0.415030382,0,0,0,2,59,179,5,1,21,69163,2,180,2022-02-10_21h41.39.044,orientation adjustment 2,2021.2.3,MacIntel,60.0024001,,,,,,,
,,,,,,,,,,,,,,,,,,,,,,,,,,,,,,,,,,,,,,,,,,,,,,,,69163,2,180,2022-02-10_21h41.39.044,orientation adjustment 2,2021.2.3,MacIntel,60.0024001,,0.305034722,-0.399982639,1,0,0,EndButtonTxt
