consentMouse1.x,consentMouse1.y,consentMouse1.leftButton,consentMouse1.midButton,consentMouse1.rightButton,consentMouse1.clicked_name,consent_Mouse.x,consent_Mouse.y,consent_Mouse.leftButton,consent_Mouse.midButton,consent_Mouse.rightButton,consent_Mouse.clicked_name,startMouse.x,startMouse.y,startMouse.leftButton,startMouse.midButton,startMouse.rightButton,start_distance,fixedOri,minimalDistance,maxOri,this_ori,accuracy,presented_accuracy,submitMouse.x,submitMouse.y,submitMouse.leftButton,submitMouse.midButton,submitMouse.rightButton,submitMouse.time,submitMouse.clicked_name,block_accuracy,continueMouse.x,continueMouse.y,continueMouse.leftButton,continueMouse.midButton,continueMouse.rightButton,trials.thisRepN,trials.thisTrialN,trials.thisN,trials.thisIndex,trials.ran,startOri,participant,condition,nTrials,date,expName,psychopyVersion,OS,frameRate,continueMouse.clicked_name,EndButtonMouse.x,EndButtonMouse.y,EndButtonMouse.leftButton,EndButtonMouse.midButton,EndButtonMouse.rightButton,EndButtonMouse.clicked_name
0.391015354,-0.401342163,1,0,0,consent_button1,0.394145101,-0.399130927,1,0,0,consent_button,-0.045203857,-0.317902968,1,0,0,52.22222222,-71,20,75,-26.77777778,44.22222222,44.22222222,0.179789361,-0.293462321,1,0,0,8.6325,submitButton,44.22222222,-0.027998047,-0.334414469,0,0,0,0,0,0,145,1,71,22158,N,180,2022-02-10_11h49.35.488,orientation adjustment blockN,2021.2.3,MacIntel,60.0024001,,,,,,,
,,,,,,,,,,,,,,,,,48.33333333,40,20,75,230.3333333,10.33333333,10.33333333,0.182518717,-0.305735135,1,0,0,1.9175,submitButton,27.27777778,0.298315904,-0.231843058,0,0,0,0,1,1,114,1,40,22158,N,180,2022-02-10_11h49.35.488,orientation adjustment blockN,2021.2.3,MacIntel,60.0024001,,,,,,,
,,,,,,,,,,,,,,,,,53.88888889,-61,20,75,-33.11111111,27.88888889,27.88888889,0.426999647,-0.323165283,1,0,0,0.1704,submitButton,27.48148148,0.182636176,-0.272784627,0,0,0,0,2,2,60,1,61,22158,N,180,2022-02-10_11h49.35.488,orientation adjustment blockN,2021.2.3,MacIntel,60.0024001,,,,,,,
,,,,,,,,,,,,,,,,,47.22222222,49,20,75,110.2222222,61.22222222,61.22222222,0.201285129,-0.289092882,1,0,0,1.2497,submitButton,61.22222222,0.159477336,-0.336239963,0,0,0,0,3,3,123,1,49,22158,N,180,2022-02-10_11h49.35.488,orientation adjustment blockN,2021.2.3,MacIntel,60.0024001,,,,,,,
,,,,,,,,,,,,,,,,,65,80,20,75,218,42,42,0.20541036,-0.307272949,1,0,0,0.4344,submitButton,51.61111111,0.175200602,-0.339907227,0,0,0,0,4,4,79,1,80,22158,N,180,2022-02-10_11h49.35.488,orientation adjustment blockN,2021.2.3,MacIntel,60.0024001,,,,,,,
,,,,,,,,,,,,,,,,,27.77777778,26,20,75,35.77777778,9.777777778,9.777777778,0.376507704,-0.301810506,1,0,0,0.0681,submitButton,37.66666667,0.284426202,-0.334282769,0,0,0,0,5,5,25,1,26,22158,N,180,2022-02-10_11h49.35.488,orientation adjustment blockN,2021.2.3,MacIntel,60.0024001,,,,,,,
,,,,,,,,,,,,,,,,,51.11111111,-33,20,75,-21.88888889,11.11111111,11.11111111,0.379393311,-0.292562663,1,0,0,0.068,submitButton,11.11111111,0.151042006,-0.32119005,0,0,0,0,6,6,32,1,33,22158,N,180,2022-02-10_11h49.35.488,orientation adjustment blockN,2021.2.3,MacIntel,60.0024001,,,,,,,
,,,,,,,,,,,,,,,,,-73.88888889,-5,20,75,-31.88888889,26.88888889,26.88888889,0.186419746,-0.299249064,1,0,0,0.0205,submitButton,19,0.190308024,-0.263747084,0,0,0,0,7,7,4,1,5,22158,N,180,2022-02-10_11h49.35.488,orientation adjustment blockN,2021.2.3,MacIntel,60.0024001,,,,,,,
,,,,,,,,,,,,,,,,,-42.77777778,47,20,75,32.22222222,14.77777778,14.77777778,-0.203308445,-0.378685574,1,0,0,0.8493,submitButton,17.59259259,0.19379381,-0.270650567,0,0,0,0,8,8,121,1,47,22158,N,180,2022-02-10_11h49.35.488,orientation adjustment blockN,2021.2.3,MacIntel,60.0024001,,,,,,,
,,,,,,,,,,,,,,,,,66.11111111,-33,20,75,-21.88888889,11.11111111,11.11111111,0.379840224,-0.279333835,1,0,0,0.0458,submitButton,11.11111111,0.109556478,-0.295505507,0,0,0,0,9,9,107,1,33,22158,N,180,2022-02-10_11h49.35.488,orientation adjustment blockN,2021.2.3,MacIntel,60.0024001,,,,,,,
,,,,,,,,,,,,,,,,,72.22222222,7,20,75,212.2222222,25.22222222,25.22222222,0.206637031,-0.295729574,1,0,0,1.7318,submitButton,18.16666667,-0.320470208,-0.411756999,0,0,0,0,10,10,6,1,7,22158,N,180,2022-02-10_11h49.35.488,orientation adjustment blockN,2021.2.3,MacIntel,60.0024001,,,,,,,
,,,,,,,,,,,,,,,,,61.11111111,-32,20,75,23.11111111,55.11111111,55.11111111,0.491757134,-0.287161051,1,0,0,1.6997,submitButton,30.48148148,0.219994371,-0.26362637,0,0,0,0,11,11,106,1,32,22158,N,180,2022-02-10_11h49.35.488,orientation adjustment blockN,2021.2.3,MacIntel,60.0024001,,,,,,,
,,,,,,,,,,,,,,,,,40,-72,20,75,-65,7,7,-0.17187066,-0.390742594,1,0,0,0.6837,submitButton,7,0.211778564,-0.37254659,0,0,0,0,12,12,146,1,72,22158,N,180,2022-02-10_11h49.35.488,orientation adjustment blockN,2021.2.3,MacIntel,60.0024001,,,,,,,
,,,,,,,,,,,,,,,,,31.11111111,-42,20,75,-39.88888889,2.111111111,2.111111111,-0.227046373,-0.37573995,1,0,0,0.6989,submitButton,4.555555556,0.271908027,-0.275588786,0,0,0,0,13,13,41,1,42,22158,N,180,2022-02-10_11h49.35.488,orientation adjustment blockN,2021.2.3,MacIntel,60.0024001,,,,,,,
,,,,,,,,,,,,,,,,,26.66666667,18,20,75,49.66666667,31.66666667,31.66666667,0.391893717,-0.301153971,1,0,0,0.4144,submitButton,13.59259259,0.35833591,-0.382462226,1,0,0,0,14,14,92,1,18,22158,N,180,2022-02-10_11h49.35.488,orientation adjustment blockN,2021.2.3,MacIntel,60.0024001,continueButton,,,,,,
,,,,,,,,,,,,,,,,,-31.11111111,60,20,75,28.88888889,31.11111111,31.11111111,-0.098069255,-0.306610311,1,0,0,0.7839,submitButton,31.11111111,0.247674018,-0.262070787,0,0,0,0,15,15,134,1,60,22158,N,180,2022-02-10_11h49.35.488,orientation adjustment blockN,2021.2.3,MacIntel,60.0024001,,,,,,,
,,,,,,,,,,,,,,,,,-54.44444444,-25,20,75,-217.4444444,12.44444444,12.44444444,0.405112847,-0.275954386,1,0,0,0.0836,submitButton,21.77777778,0.295093723,-0.431316596,0,0,0,0,16,16,24,1,25,22158,N,180,2022-02-10_11h49.35.488,orientation adjustment blockN,2021.2.3,MacIntel,60.0024001,,,,,,,
,,,,,,,,,,,,,,,,,-48.33333333,83,20,75,89.66666667,6.666666667,6.666666667,0.170436673,-0.312036947,1,0,0,1.8305,submitButton,16.74074074,0.311327379,-0.275774197,0,0,0,0,17,17,82,1,83,22158,N,180,2022-02-10_11h49.35.488,orientation adjustment blockN,2021.2.3,MacIntel,60.0024001,,,,,,,
,,,,,,,,,,,,,,,,,37.22222222,-19,20,75,-18.77777778,0.222222222,0.222222222,-0.315901523,-0.354686279,1,0,0,0.7336,submitButton,12.61111111,0.264069756,-0.291179131,0,0,0,0,18,18,93,1,19,22158,N,180,2022-02-10_11h49.35.488,orientation adjustment blockN,2021.2.3,MacIntel,60.0024001,,,,,,,
,,,,,,,,,,,,,,,,,-71.66666667,20,20,75,34.33333333,14.33333333,14.33333333,0.185425483,-0.290641344,1,0,0,1.0322,submitButton,12.95555556,0.505938585,-0.481001655,0,0,0,0,19,19,94,1,20,22158,N,180,2022-02-10_11h49.35.488,orientation adjustment blockN,2021.2.3,MacIntel,60.0024001,,,,,,,
,,,,,,,,,,,,,,,,,36.11111111,54,20,75,25.11111111,28.88888889,28.88888889,0.377479791,-0.285127224,1,0,0,0.4325,submitButton,15.61111111,0.272025214,-0.321848823,0,0,0,0,20,20,128,1,54,22158,N,180,2022-02-10_11h49.35.488,orientation adjustment blockN,2021.2.3,MacIntel,60.0024001,,,,,,,
,,,,,,,,,,,,,,,,,-65.55555556,-44,20,75,-216.5555556,7.444444444,7.444444444,0.399666748,-0.294187554,1,0,0,0.133,submitButton,14.44444444,0.131186252,-0.361939155,0,0,0,0,21,21,118,1,44,22158,N,180,2022-02-10_11h49.35.488,orientation adjustment blockN,2021.2.3,MacIntel,60.0024001,,,,,,,
,,,,,,,,,,,,,,,,,66.66666667,63,20,75,220.6666667,22.33333333,22.33333333,0.391647678,-0.296130507,1,0,0,0.4668,submitButton,15.43055556,0.239339328,-0.32584554,0,0,0,0,22,22,62,1,63,22158,N,180,2022-02-10_11h49.35.488,orientation adjustment blockN,2021.2.3,MacIntel,60.0024001,,,,,,,
,,,,,,,,,,,,,,,,,66.66666667,11,20,75,189.6666667,1.333333333,1.333333333,0.212027045,-0.304860975,1,0,0,1.768,submitButton,13.86419753,0.441305745,-0.307935859,0,0,0,0,23,23,10,1,11,22158,N,180,2022-02-10_11h49.35.488,orientation adjustment blockN,2021.2.3,MacIntel,60.0024001,,,,,,,
,,,,,,,,,,,,,,,,,-28.88888889,-57,20,75,-220.8888889,16.11111111,16.11111111,0.403716498,-0.282849664,1,0,0,1.9816,submitButton,14.08888889,-0.049879218,-0.312421197,0,0,0,0,24,24,131,1,57,22158,N,180,2022-02-10_11h49.35.488,orientation adjustment blockN,2021.2.3,MacIntel,60.0024001,,,,,,,
,,,,,,,,,,,,,,,,,-31.66666667,84,20,75,93.33333333,9.333333333,9.333333333,0.189170803,-0.31025628,1,0,0,0.8663,submitButton,13.65656566,0.133621284,-0.144242893,0,0,0,0,25,25,83,1,84,22158,N,180,2022-02-10_11h49.35.488,orientation adjustment blockN,2021.2.3,MacIntel,60.0024001,,,,,,,
,,,,,,,,,,,,,,,,,-34.44444444,-53,20,75,-226.4444444,6.555555556,6.555555556,0.386161431,-0.275805596,1,0,0,0.2339,submitButton,13.06481481,0.16457411,-0.366735975,0,0,0,0,26,26,127,1,53,22158,N,180,2022-02-10_11h49.35.488,orientation adjustment blockN,2021.2.3,MacIntel,60.0024001,,,,,,,
,,,,,,,,,,,,,,,,,25.55555556,31,20,75,42.55555556,11.55555556,11.55555556,0.393627523,-0.277632175,1,0,0,0.334,submitButton,12.94871795,-0.059475572,-0.303244968,0,0,0,0,27,27,30,1,31,22158,N,180,2022-02-10_11h49.35.488,orientation adjustment blockN,2021.2.3,MacIntel,60.0024001,,,,,,,
,,,,,,,,,,,,,,,,,61.11111111,-22,20,75,-43.88888889,21.88888889,21.88888889,-0.363651055,-0.39212009,1,0,0,1.8494,submitButton,13.58730159,0.133792453,-0.271254815,0,0,0,0,28,28,96,1,22,22158,N,180,2022-02-10_11h49.35.488,orientation adjustment blockN,2021.2.3,MacIntel,60.0024001,,,,,,,
,,,,,,,,,,,,,,,,,-66.11111111,22,20,75,29.88888889,7.888888889,7.888888889,0.220332506,-0.304428507,1,0,0,1.0341,submitButton,13.20740741,0.349223633,-0.400761312,1,0,0,0,29,29,21,1,22,22158,N,180,2022-02-10_11h49.35.488,orientation adjustment blockN,2021.2.3,MacIntel,60.0024001,continueButton,,,,,,
,,,,,,,,,,,,,,,,,-54.44444444,72,20,75,62.55555556,9.444444444,9.444444444,0.225589532,-0.287412177,1,0,0,0.5939,submitButton,12.97222222,0.208326823,-0.301349352,0,0,0,0,30,30,71,1,72,22158,N,180,2022-02-10_11h49.35.488,orientation adjustment blockN,2021.2.3,MacIntel,60.0024001,,,,,,,
,,,,,,,,,,,,,,,,,-30.55555556,50,20,75,50.44444444,0.444444444,0.444444444,-0.186074761,-0.431343519,1,0,0,0.65,submitButton,12.23529412,0.191875,-0.280235596,0,0,0,0,31,31,49,1,50,22158,N,180,2022-02-10_11h49.35.488,orientation adjustment blockN,2021.2.3,MacIntel,60.0024001,,,,,,,
,,,,,,,,,,,,,,,,,57.22222222,-49,20,75,-41.77777778,7.222222222,7.222222222,-0.361906162,-0.425556844,1,0,0,1.5318,submitButton,11.95679012,0.328801202,-0.35115431,0,0,0,0,32,32,48,1,49,22158,N,180,2022-02-10_11h49.35.488,orientation adjustment blockN,2021.2.3,MacIntel,60.0024001,,,,,,,
,,,,,,,,,,,,,,,,,71.11111111,-8,20,75,-23.88888889,15.88888889,15.88888889,-0.33541921,-0.424249539,1,0,0,2.1173,submitButton,12.16374269,0.070042046,-0.278288574,0,0,0,0,33,33,7,1,8,22158,N,180,2022-02-10_11h49.35.488,orientation adjustment blockN,2021.2.3,MacIntel,60.0024001,,,,,,,
,,,,,,,,,,,,,,,,,-59.44444444,30,20,75,43.55555556,13.55555556,13.55555556,0.200994195,-0.297366536,1,0,0,0.9156,submitButton,12.23333333,0.150722249,-0.365197279,0,0,0,0,34,34,29,1,30,22158,N,180,2022-02-10_11h49.35.488,orientation adjustment blockN,2021.2.3,MacIntel,60.0024001,,,,,,,
,,,,,,,,,,,,,,,,,-41.66666667,9,20,75,-12.66666667,21.66666667,21.66666667,0.218233914,-0.293016086,1,0,0,0.833,submitButton,12.68253968,-0.049936184,-0.365976766,0,0,0,0,35,35,8,1,9,22158,N,180,2022-02-10_11h49.35.488,orientation adjustment blockN,2021.2.3,MacIntel,60.0024001,,,,,,,
,,,,,,,,,,,,,,,,,-68.33333333,-90,20,75,-91.33333333,1.333333333,1.333333333,-0.167080146,-0.423384806,1,0,0,1.2343,submitButton,12.16666667,0.067508002,-0.238676351,0,0,0,0,36,36,89,1,90,22158,N,180,2022-02-10_11h49.35.488,orientation adjustment blockN,2021.2.3,MacIntel,60.0024001,,,,,,,
,,,,,,,,,,,,,,,,,47.22222222,-82,20,75,-207.7777778,54.22222222,54.22222222,-0.368573201,-0.401209581,1,0,0,3.7343,submitButton,13.99516908,0.079437391,-0.364851413,0,0,0,0,37,37,81,1,82,22158,N,180,2022-02-10_11h49.35.488,orientation adjustment blockN,2021.2.3,MacIntel,60.0024001,,,,,,,
,,,,,,,,,,,,,,,,,-55.55555556,1,20,75,-2.555555556,3.555555556,3.555555556,0.216319444,-0.312440525,1,0,0,0.7318,submitButton,13.56018519,0.211737196,-0.243799913,0,0,0,0,38,38,0,1,1,22158,N,180,2022-02-10_11h49.35.488,orientation adjustment blockN,2021.2.3,MacIntel,60.0024001,,,,,,,
,,,,,,,,,,,,,,,,,70,-85,20,75,93,2,2,-0.323343302,-0.403671197,1,0,0,2.2499,submitButton,13.09777778,0.316053535,-0.290655924,0,0,0,0,39,39,84,1,85,22158,N,180,2022-02-10_11h49.35.488,orientation adjustment blockN,2021.2.3,MacIntel,60.0024001,,,,,,,
,,,,,,,,,,,,,,,,,-47.77777778,27,20,75,34.22222222,7.222222222,7.222222222,-0.440403069,-0.399918416,1,0,0,1.4987,submitButton,12.87179487,0.144318848,-0.248884684,0,0,0,0,40,40,26,1,27,22158,N,180,2022-02-10_11h49.35.488,orientation adjustment blockN,2021.2.3,MacIntel,60.0024001,,,,,,,
,,,,,,,,,,,,,,,,,51.66666667,75,20,75,232.6666667,22.33333333,22.33333333,-0.225312432,-0.389113295,1,0,0,2.0321,submitButton,13.22222222,0.241800266,-0.300271267,0,0,0,0,41,41,149,1,75,22158,N,180,2022-02-10_11h49.35.488,orientation adjustment blockN,2021.2.3,MacIntel,60.0024001,,,,,,,
,,,,,,,,,,,,,,,,,33.88888889,-29,20,75,-45.11111111,16.11111111,16.11111111,-0.221400214,-0.388552178,1,0,0,1.1339,submitButton,13.32539683,-0.017449951,-0.327415568,0,0,0,0,42,42,103,1,29,22158,N,180,2022-02-10_11h49.35.488,orientation adjustment blockN,2021.2.3,MacIntel,60.0024001,,,,,,,
,,,,,,,,,,,,,,,,,-57.22222222,43,20,75,47.77777778,4.777777778,4.777777778,-0.247297126,-0.382756009,1,0,0,0.6672,submitButton,13.03065134,0.131831394,-0.335641073,0,0,0,0,43,43,42,1,43,22158,N,180,2022-02-10_11h49.35.488,orientation adjustment blockN,2021.2.3,MacIntel,60.0024001,,,,,,,
,,,,,,,,,,,,,,,,,-59.44444444,10,20,75,28.55555556,18.55555556,18.55555556,0.196191338,-0.289558377,1,0,0,1.0662,submitButton,13.21481481,0.395041233,-0.399285075,1,0,0,0,44,44,9,1,10,22158,N,180,2022-02-10_11h49.35.488,orientation adjustment blockN,2021.2.3,MacIntel,60.0024001,continueButton,,,,,,
,,,,,,,,,,,,,,,,,-72.22222222,-6,20,75,83.77777778,89.77777778,89.77777778,0.206005927,-0.29734687,1,0,0,1.1156,submitButton,15.68458781,0.102876587,-0.2160279,0,0,0,0,45,45,5,1,6,22158,N,180,2022-02-10_11h49.35.488,orientation adjustment blockN,2021.2.3,MacIntel,60.0024001,,,,,,,
,,,,,,,,,,,,,,,,,-53.88888889,60,20,75,61.11111111,1.111111111,1.111111111,0.191233521,-0.322984551,1,0,0,1.0332,submitButton,15.22916667,0.223894179,-0.374046495,0,0,0,0,46,46,59,1,60,22158,N,180,2022-02-10_11h49.35.488,orientation adjustment blockN,2021.2.3,MacIntel,60.0024001,,,,,,,
,,,,,,,,,,,,,,,,,48.33333333,-45,20,75,-38.66666667,6.333333333,6.333333333,-0.365888943,-0.397013957,1,0,0,1.1152,submitButton,14.95959596,-0.101461182,-0.38001024,0,0,0,0,47,47,119,1,45,22158,N,180,2022-02-10_11h49.35.488,orientation adjustment blockN,2021.2.3,MacIntel,60.0024001,,,,,,,
,,,,,,,,,,,,,,,,,70,-88,20,75,-92,4,4,0.36000963,-0.291307644,1,0,0,1.3172,submitButton,14.6372549,0.008523085,-0.403447808,0,0,0,0,48,48,87,1,88,22158,N,180,2022-02-10_11h49.35.488,orientation adjustment blockN,2021.2.3,MacIntel,60.0024001,,,,,,,
,,,,,,,,,,,,,,,,,33.88888889,32,20,75,25.88888889,6.111111111,6.111111111,0.386252984,-0.286872762,1,0,0,0.9891,submitButton,14.39365079,0.05856425,-0.305597127,0,0,0,0,49,49,31,1,32,22158,N,180,2022-02-10_11h49.35.488,orientation adjustment blockN,2021.2.3,MacIntel,60.0024001,,,,,,,
,,,,,,,,,,,,,,,,,37.77777778,-74,20,75,-56.22222222,17.77777778,17.77777778,-0.102308892,-0.21814704,1,0,0,0.2495,submitButton,14.48765432,0.134652913,-0.328394979,0,0,0,0,50,50,148,1,74,22158,N,180,2022-02-10_11h49.35.488,orientation adjustment blockN,2021.2.3,MacIntel,60.0024001,,,,,,,
,,,,,,,,,,,,,,,,,-27.77777778,12,20,75,20.22222222,8.222222222,8.222222222,-0.358746982,-0.406710612,1,0,0,1.3671,submitButton,14.31831832,0.145702243,-0.263697238,0,0,0,0,51,51,11,1,12,22158,N,180,2022-02-10_11h49.35.488,orientation adjustment blockN,2021.2.3,MacIntel,60.0024001,,,,,,,
,,,,,,,,,,,,,,,,,-47.22222222,-64,20,75,-223.2222222,20.77777778,20.77777778,-0.361092156,-0.403722059,1,0,0,3.7819,submitButton,14.48830409,0.403015815,-0.274872301,0,0,0,0,52,52,138,1,64,22158,N,180,2022-02-10_11h49.35.488,orientation adjustment blockN,2021.2.3,MacIntel,60.0024001,,,,,,,
,,,,,,,,,,,,,,,,,-43.33333333,-41,20,75,-58.33333333,17.33333333,17.33333333,0.422093777,-0.313379449,1,0,0,0.6166,submitButton,14.56125356,0.215272827,-0.340138414,0,0,0,0,53,53,40,1,41,22158,N,180,2022-02-10_11h49.35.488,orientation adjustment blockN,2021.2.3,MacIntel,60.0024001,,,,,,,
,,,,,,,,,,,,,,,,,-30,-61,20,75,-53,8,8,0.205954997,-0.311226264,1,0,0,0.1676,submitButton,14.39722222,0.30665819,-0.288606635,0,0,0,0,54,54,135,1,61,22158,N,180,2022-02-10_11h49.35.488,orientation adjustment blockN,2021.2.3,MacIntel,60.0024001,,,,,,,
,,,,,,,,,,,,,,,,,70,16,20,75,43,27,27,0.435238444,-0.321560126,1,0,0,0.8674,submitButton,14.70460705,0.179390734,-0.295277439,0,0,0,0,55,55,90,1,16,22158,N,180,2022-02-10_11h49.35.488,orientation adjustment blockN,2021.2.3,MacIntel,60.0024001,,,,,,,
,,,,,,,,,,,,,,,,,-54.44444444,-28,20,75,-54.44444444,26.44444444,26.44444444,0.199438951,-0.295034993,1,0,0,0.3997,submitButton,14.98412698,0.212779338,-0.272980414,0,0,0,0,56,56,102,1,28,22158,N,180,2022-02-10_11h49.35.488,orientation adjustment blockN,2021.2.3,MacIntel,60.0024001,,,,,,,
,,,,,,,,,,,,,,,,,-45.55555556,40,20,75,28.44444444,11.55555556,11.55555556,0.210373264,-0.286514553,1,0,0,0.4656,submitButton,14.90439276,-0.400382792,-0.399405246,0,0,0,0,57,57,39,1,40,22158,N,180,2022-02-10_11h49.35.488,orientation adjustment blockN,2021.2.3,MacIntel,60.0024001,,,,,,,
,,,,,,,,,,,,,,,,,-53.33333333,57,20,75,44.66666667,12.33333333,12.33333333,0.227585924,-0.324761013,1,0,0,0.7668,submitButton,14.8459596,-0.311947021,-0.40392239,0,0,0,0,58,58,56,1,57,22158,N,180,2022-02-10_11h49.35.488,orientation adjustment blockN,2021.2.3,MacIntel,60.0024001,,,,,,,
,,,,,,,,,,,,,,,,,21.66666667,-65,20,75,-43.33333333,21.66666667,21.66666667,-0.33777086,-0.392949015,1,0,0,1.4172,submitButton,14.99753086,0.479528537,-0.399320136,1,0,0,0,59,59,64,1,65,22158,N,180,2022-02-10_11h49.35.488,orientation adjustment blockN,2021.2.3,MacIntel,60.0024001,continueButton,,,,,,
,,,,,,,,,,,,,,,,,50.55555556,35,20,75,58.55555556,23.55555556,23.55555556,0.433176541,-0.310517036,1,0,0,3.3995,submitButton,15.18357488,-0.040267673,-0.253212619,0,0,0,0,60,60,109,1,35,22158,N,180,2022-02-10_11h49.35.488,orientation adjustment blockN,2021.2.3,MacIntel,60.0024001,,,,,,,
,,,,,,,,,,,,,,,,,-57.22222222,87,20,75,71.77777778,15.22222222,15.22222222,0.209052667,-0.288606974,1,0,0,1.0339,submitButton,15.18439716,0.054113363,-0.309681871,0,0,0,0,61,61,86,1,87,22158,N,180,2022-02-10_11h49.35.488,orientation adjustment blockN,2021.2.3,MacIntel,60.0024001,,,,,,,
,,,,,,,,,,,,,,,,,73.88888889,-71,20,75,-48.11111111,22.88888889,22.88888889,0.186927151,-0.293260837,1,0,0,0.1463,submitButton,15.34490741,0.075217556,-0.37199056,0,0,0,0,62,62,70,1,71,22158,N,180,2022-02-10_11h49.35.488,orientation adjustment blockN,2021.2.3,MacIntel,60.0024001,,,,,,,
,,,,,,,,,,,,,,,,,55.55555556,70,20,75,227.5555556,22.44444444,22.44444444,0.408886312,-0.286829495,1,0,0,0.0663,submitButton,15.48979592,0.320467597,-0.20496894,0,0,0,0,63,63,69,1,70,22158,N,180,2022-02-10_11h49.35.488,orientation adjustment blockN,2021.2.3,MacIntel,60.0024001,,,,,,,
,,,,,,,,,,,,,,,,,55.55555556,-18,20,75,-31.44444444,13.44444444,13.44444444,0.412592367,-0.265397,1,0,0,0.2859,submitButton,15.44888889,0.046065674,-0.321738146,0,0,0,0,64,64,17,1,18,22158,N,180,2022-02-10_11h49.35.488,orientation adjustment blockN,2021.2.3,MacIntel,60.0024001,,,,,,,
,,,,,,,,,,,,,,,,,-25,-66,20,75,-41,25,25,0.198586833,-0.286375258,1,0,0,0.5504,submitButton,15.63616558,-0.387831048,-0.399845717,0,0,0,0,65,65,140,1,66,22158,N,180,2022-02-10_11h49.35.488,orientation adjustment blockN,2021.2.3,MacIntel,60.0024001,,,,,,,
,,,,,,,,,,,,,,,,,-22.77777778,78,20,75,75.22222222,2.777777778,2.777777778,0.148583442,-0.298217027,1,0,0,0.7001,submitButton,15.38888889,-0.095350613,-0.373461643,0,0,0,0,66,66,77,1,78,22158,N,180,2022-02-10_11h49.35.488,orientation adjustment blockN,2021.2.3,MacIntel,60.0024001,,,,,,,
,,,,,,,,,,,,,,,,,-27.77777778,-23,20,75,-24.77777778,1.777777778,1.777777778,0.204047038,-0.319640503,1,0,0,3.1632,submitButton,15.13207547,-0.364527656,-0.386385566,0,0,0,0,67,67,22,1,23,22158,N,180,2022-02-10_11h49.35.488,orientation adjustment blockN,2021.2.3,MacIntel,60.0024001,,,,,,,
,,,,,,,,,,,,,,,,,67.77777778,-35,20,75,-24.22222222,10.77777778,10.77777778,0.417808567,-0.304540202,1,0,0,0.5357,submitButton,15.05144033,0.127203369,-0.338148329,0,0,0,0,68,68,34,1,35,22158,N,180,2022-02-10_11h49.35.488,orientation adjustment blockN,2021.2.3,MacIntel,60.0024001,,,,,,,
,,,,,,,,,,,,,,,,,-50.55555556,-79,20,75,-85.55555556,6.555555556,6.555555556,0.430487874,-0.319843886,1,0,0,0.5681,submitButton,14.8969697,0.137428453,-0.375700684,0,0,0,0,69,69,78,1,79,22158,N,180,2022-02-10_11h49.35.488,orientation adjustment blockN,2021.2.3,MacIntel,60.0024001,,,,,,,
,,,,,,,,,,,,,,,,,-57.22222222,51,20,75,44.77777778,6.222222222,6.222222222,0.176840481,-0.327140232,1,0,0,0.3689,submitButton,14.74206349,0.030699531,-0.337274238,0,0,0,0,70,70,50,1,51,22158,N,180,2022-02-10_11h49.35.488,orientation adjustment blockN,2021.2.3,MacIntel,60.0024001,,,,,,,
,,,,,,,,,,,,,,,,,71.11111111,-74,20,75,-69.88888889,4.111111111,4.111111111,0.410384115,-0.295305854,1,0,0,0.5658,submitButton,14.55555556,0.15550727,-0.454894409,0,0,0,0,71,71,73,1,74,22158,N,180,2022-02-10_11h49.35.488,orientation adjustment blockN,2021.2.3,MacIntel,60.0024001,,,,,,,
,,,,,,,,,,,,,,,,,74.44444444,53,20,75,211.4444444,21.55555556,21.55555556,0.183644613,-0.305525987,1,0,0,0.5201,submitButton,14.67624521,0.305933431,-0.356088189,0,0,0,0,72,72,52,1,53,22158,N,180,2022-02-10_11h49.35.488,orientation adjustment blockN,2021.2.3,MacIntel,60.0024001,,,,,,,
,,,,,,,,,,,,,,,,,56.11111111,50,20,75,220.1111111,9.888888889,9.888888889,0.164847683,-0.263797743,1,0,0,0.5666,submitButton,14.59510358,0.157013889,-0.309985623,0,0,0,0,73,73,124,1,50,22158,N,180,2022-02-10_11h49.35.488,orientation adjustment blockN,2021.2.3,MacIntel,60.0024001,,,,,,,
,,,,,,,,,,,,,,,,,63.33333333,24,20,75,42.33333333,18.33333333,18.33333333,0.426364068,-0.293837212,1,0,0,0.7334,submitButton,14.65740741,0.336553209,-0.397014499,1,0,0,0,74,74,98,1,24,22158,N,180,2022-02-10_11h49.35.488,orientation adjustment blockN,2021.2.3,MacIntel,60.0024001,continueButton,,,,,,
,,,,,,,,,,,,,,,,,32.22222222,-55,20,75,-22.77777778,32.22222222,32.22222222,-0.34391744,-0.413665025,1,0,0,1.0813,submitButton,14.94535519,-0.030616591,-0.358627726,0,0,0,0,75,75,54,1,55,22158,N,180,2022-02-10_11h49.35.488,orientation adjustment blockN,2021.2.3,MacIntel,60.0024001,,,,,,,
,,,,,,,,,,,,,,,,,-58.33333333,-63,20,75,-217.3333333,25.66666667,25.66666667,0.381134576,-0.325715739,1,0,0,0.2837,submitButton,15.11827957,-0.37514523,-0.388490329,0,0,0,0,76,76,137,1,63,22158,N,180,2022-02-10_11h49.35.488,orientation adjustment blockN,2021.2.3,MacIntel,60.0024001,,,,,,,
,,,,,,,,,,,,,,,,,-60.55555556,-19,20,75,-50.55555556,31.55555556,31.55555556,0.187343547,-0.331468167,1,0,0,0.7041,submitButton,15.37918871,-0.361661241,-0.386729126,0,0,0,0,77,77,18,1,19,22158,N,180,2022-02-10_11h49.35.488,orientation adjustment blockN,2021.2.3,MacIntel,60.0024001,,,,,,,
,,,,,,,,,,,,,,,,,72.77777778,89,20,75,98.77777778,9.777777778,9.777777778,0.439674072,-0.310351902,1,0,0,0.4496,submitButton,15.29166667,-0.351556193,-0.405874295,0,0,0,0,78,78,88,1,89,22158,N,180,2022-02-10_11h49.35.488,orientation adjustment blockN,2021.2.3,MacIntel,60.0024001,,,,,,,
,,,,,,,,,,,,,,,,,-45.55555556,-47,20,75,-55.55555556,8.555555556,8.555555556,0.21971049,-0.30291314,1,0,0,0.6194,submitButton,15.18803419,0.002045695,-0.326080458,0,0,0,0,79,79,46,1,47,22158,N,180,2022-02-10_11h49.35.488,orientation adjustment blockN,2021.2.3,MacIntel,60.0024001,,,,,,,
,,,,,,,,,,,,,,,,,-46.66666667,13,20,75,42.33333333,29.33333333,29.33333333,0.228995158,-0.298749186,1,0,0,1.1621,submitButton,15.4023569,-0.312680088,-0.402354397,0,0,0,0,80,80,12,1,13,22158,N,180,2022-02-10_11h49.35.488,orientation adjustment blockN,2021.2.3,MacIntel,60.0024001,,,,,,,
,,,,,,,,,,,,,,,,,-58.33333333,86,20,75,82.66666667,3.333333333,3.333333333,-0.376786058,-0.389364827,1,0,0,1.6832,submitButton,15.22222222,-0.144200507,-0.355581733,0,0,0,0,81,81,85,1,86,22158,N,180,2022-02-10_11h49.35.488,orientation adjustment blockN,2021.2.3,MacIntel,60.0024001,,,,,,,
,,,,,,,,,,,,,,,,,-31.11111111,-38,20,75,-36.11111111,1.888888889,1.888888889,0.213682726,-0.287978516,1,0,0,0.6177,submitButton,15.02614379,0.130581597,-0.345621677,0,0,0,0,82,82,112,1,38,22158,N,180,2022-02-10_11h49.35.488,orientation adjustment blockN,2021.2.3,MacIntel,60.0024001,,,,,,,
,,,,,,,,,,,,,,,,,66.11111111,-15,20,75,224.1111111,59.11111111,59.11111111,0.25016371,-0.294539388,1,0,0,3.1382,submitButton,15.66505636,0.055135362,-0.323695068,0,0,0,0,83,83,14,1,15,22158,N,180,2022-02-10_11h49.35.488,orientation adjustment blockN,2021.2.3,MacIntel,60.0024001,,,,,,,
,,,,,,,,,,,,,,,,,-68.33333333,56,20,75,40.66666667,15.33333333,15.33333333,0.24611518,-0.297520955,1,0,0,0.8789,submitButton,15.66031746,0.000904066,-0.350994941,0,0,0,0,84,84,130,1,56,22158,N,180,2022-02-10_11h49.35.488,orientation adjustment blockN,2021.2.3,MacIntel,60.0024001,,,,,,,
,,,,,,,,,,,,,,,,,-61.66666667,37,20,75,46.33333333,9.333333333,9.333333333,0.225042318,-0.301461792,1,0,0,0.1356,submitButton,15.57120501,0.094799737,-0.344071181,0,0,0,0,85,85,36,1,37,22158,N,180,2022-02-10_11h49.35.488,orientation adjustment blockN,2021.2.3,MacIntel,60.0024001,,,,,,,
,,,,,,,,,,,,,,,,,-53.88888889,-37,20,75,-45.88888889,8.888888889,8.888888889,0.374125027,-0.297331407,1,0,0,1.7815,submitButton,15.47839506,-0.197860921,-0.360323622,0,0,0,0,86,86,111,1,37,22158,N,180,2022-02-10_11h49.35.488,orientation adjustment blockN,2021.2.3,MacIntel,60.0024001,,,,,,,
,,,,,,,,,,,,,,,,,33.33333333,30,20,75,218.3333333,8.333333333,8.333333333,0.231967773,-0.29796346,1,0,0,0.051,submitButton,15.3805175,0.112958577,-0.269780884,0,0,0,0,87,87,104,1,30,22158,N,180,2022-02-10_11h49.35.488,orientation adjustment blockN,2021.2.3,MacIntel,60.0024001,,,,,,,
,,,,,,,,,,,,,,,,,-63.33333333,41,20,75,42.66666667,1.666666667,1.666666667,0.099139336,-0.293105537,1,0,0,0.4183,submitButton,15.1951952,0.162243585,-0.323873223,0,0,0,0,88,88,115,1,41,22158,N,180,2022-02-10_11h49.35.488,orientation adjustment blockN,2021.2.3,MacIntel,60.0024001,,,,,,,
,,,,,,,,,,,,,,,,,33.88888889,58,20,75,46.88888889,11.11111111,11.11111111,0.415079074,-0.297715115,1,0,0,1.1479,submitButton,15.14074074,0.311193102,-0.402010701,1,0,0,0,89,89,132,1,58,22158,N,180,2022-02-10_11h49.35.488,orientation adjustment blockN,2021.2.3,MacIntel,60.0024001,continueButton,,,,,,
,,,,,,,,,,,,,,,,,-40,-75,20,75,-229,26,26,0.428263075,-0.294916924,1,0,0,0.3505,submitButton,15.28362573,0.221646796,-0.336824544,0,0,0,0,90,90,74,1,75,22158,N,180,2022-02-10_11h49.35.488,orientation adjustment blockN,2021.2.3,MacIntel,60.0024001,,,,,,,
,,,,,,,,,,,,,,,,,43.88888889,-34,20,75,-31.11111111,2.888888889,2.888888889,0.412393121,-0.299599813,1,0,0,0.3992,submitButton,15.12265512,0.385225152,-0.439857178,0,0,0,0,91,91,33,1,34,22158,N,180,2022-02-10_11h49.35.488,orientation adjustment blockN,2021.2.3,MacIntel,60.0024001,,,,,,,
,,,,,,,,,,,,,,,,,37.77777778,-46,20,75,-38.22222222,7.777777778,7.777777778,0.382942844,-0.302744683,1,0,0,0.2216,submitButton,15.02849003,0.400094944,-0.306879069,0,0,0,0,92,92,120,1,46,22158,N,180,2022-02-10_11h49.35.488,orientation adjustment blockN,2021.2.3,MacIntel,60.0024001,,,,,,,
,,,,,,,,,,,,,,,,,-57.77777778,-51,20,75,-205.7777778,25.22222222,25.22222222,0.394314643,-0.297812636,1,0,0,0.3976,submitButton,15.15752461,0.124522502,-0.280974121,0,0,0,0,93,93,125,1,51,22158,N,180,2022-02-10_11h49.35.488,orientation adjustment blockN,2021.2.3,MacIntel,60.0024001,,,,,,,
,,,,,,,,,,,,,,,,,-52.77777778,-28,20,75,-50.77777778,22.77777778,22.77777778,0.390190294,-0.291388957,1,0,0,0.016,submitButton,15.25277778,-0.194537489,-0.364904989,0,0,0,0,94,94,27,1,28,22158,N,180,2022-02-10_11h49.35.488,orientation adjustment blockN,2021.2.3,MacIntel,60.0024001,,,,,,,
,,,,,,,,,,,,,,,,,22.77777778,-59,20,75,-36.22222222,22.77777778,22.77777778,-0.314436001,-0.400308499,1,0,0,1.2987,submitButton,15.34567901,-0.314436001,-0.400308499,0,0,0,0,95,95,58,1,59,22158,N,180,2022-02-10_11h49.35.488,orientation adjustment blockN,2021.2.3,MacIntel,60.0024001,,,,,,,
,,,,,,,,,,,,,,,,,74.44444444,-48,20,75,-37.55555556,10.44444444,10.44444444,0.384921468,-0.300744086,1,0,0,1.05,submitButton,15.28590786,-0.071392076,-0.397236192,0,0,0,0,96,96,47,1,48,22158,N,180,2022-02-10_11h49.35.488,orientation adjustment blockN,2021.2.3,MacIntel,60.0024001,,,,,,,
,,,,,,,,,,,,,,,,,20,-52,20,75,-38,14,14,0.386366102,-0.301738688,1,0,0,1.2995,submitButton,15.27041499,-0.067714776,-0.440631171,0,0,0,0,97,97,126,1,52,22158,N,180,2022-02-10_11h49.35.488,orientation adjustment blockN,2021.2.3,MacIntel,60.0024001,,,,,,,
,,,,,,,,,,,,,,,,,51.66666667,20,20,75,48.66666667,28.66666667,28.66666667,0.17358039,-0.310209622,1,0,0,0.0661,submitButton,15.42989418,-0.295609131,-0.378384332,0,0,0,0,98,98,19,1,20,22158,N,180,2022-02-10_11h49.35.488,orientation adjustment blockN,2021.2.3,MacIntel,60.0024001,,,,,,,
,,,,,,,,,,,,,,,,,21.11111111,-73,20,75,-66.88888889,6.111111111,6.111111111,0.383036567,-0.305611301,1,0,0,0.9137,submitButton,15.32026144,-0.077840305,-0.260485433,0,0,0,0,99,99,147,1,73,22158,N,180,2022-02-10_11h49.35.488,orientation adjustment blockN,2021.2.3,MacIntel,60.0024001,,,,,,,
,,,,,,,,,,,,,,,,,71.11111111,-21,20,75,212.1111111,53.11111111,53.11111111,0.172511393,-0.302971327,1,0,0,0.8337,submitButton,15.75968992,-0.278666585,-0.399699029,0,0,0,0,100,100,95,1,21,22158,N,180,2022-02-10_11h49.35.488,orientation adjustment blockN,2021.2.3,MacIntel,60.0024001,,,,,,,
,,,,,,,,,,,,,,,,,-53.88888889,-76,20,75,-229.8888889,26.11111111,26.11111111,0.409122586,-0.296316257,1,0,0,0.6503,submitButton,15.87867178,-0.316470405,-0.402199504,0,0,0,0,101,101,75,1,76,22158,N,180,2022-02-10_11h49.35.488,orientation adjustment blockN,2021.2.3,MacIntel,60.0024001,,,,,,,
,,,,,,,,,,,,,,,,,-64.44444444,65,20,75,-56.44444444,58.55555556,58.55555556,0.39417589,-0.287439168,1,0,0,1.1841,submitButton,16.36363636,-0.333678046,-0.413813612,0,0,0,0,102,102,139,1,65,22158,N,180,2022-02-10_11h49.35.488,orientation adjustment blockN,2021.2.3,MacIntel,60.0024001,,,,,,,
,,,,,,,,,,,,,,,,,-52.77777778,4,20,75,0.222222222,3.777777778,3.777777778,0.211446872,-0.306931356,1,0,0,1.1854,submitButton,16.22222222,-0.318701918,-0.401117147,0,0,0,0,103,103,3,1,4,22158,N,180,2022-02-10_11h49.35.488,orientation adjustment blockN,2021.2.3,MacIntel,60.0024001,,,,,,,
,,,,,,,,,,,,,,,,,-20.55555556,27,20,75,35.44444444,8.444444444,8.444444444,0.23568929,-0.309293213,1,0,0,0.7166,submitButton,16.13580247,0.36014133,-0.396293403,1,0,0,0,104,104,101,1,27,22158,N,180,2022-02-10_11h49.35.488,orientation adjustment blockN,2021.2.3,MacIntel,60.0024001,continueButton,,,,,,
,,,,,,,,,,,,,,,,,-66.11111111,-55,20,75,-172.1111111,62.88888889,62.88888889,0.408514404,-0.274615275,1,0,0,0.7335,submitButton,16.64957265,-0.369486118,-0.396897515,0,0,0,0,105,105,129,1,55,22158,N,180,2022-02-10_11h49.35.488,orientation adjustment blockN,2021.2.3,MacIntel,60.0024001,,,,,,,
,,,,,,,,,,,,,,,,,37.22222222,25,20,75,-10.77777778,35.77777778,35.77777778,0.386869575,-0.297746107,1,0,0,0.5996,submitButton,16.85748792,-0.29698527,-0.389389106,0,0,0,0,106,106,99,1,25,22158,N,180,2022-02-10_11h49.35.488,orientation adjustment blockN,2021.2.3,MacIntel,60.0024001,,,,,,,
,,,,,,,,,,,,,,,,,53.88888889,31,20,75,30.88888889,0.111111111,0.111111111,0.401762153,-0.307971598,1,0,0,2.3005,submitButton,16.67741935,-0.313643256,-0.391013997,0,0,0,0,107,107,105,1,31,22158,N,180,2022-02-10_11h49.35.488,orientation adjustment blockN,2021.2.3,MacIntel,60.0024001,,,,,,,
,,,,,,,,,,,,,,,,,-55.55555556,-21,20,75,-122.5555556,78.44444444,78.44444444,0.401849094,-0.292886692,1,0,0,1.215,submitButton,17.33451537,0.243234321,-0.390066121,0,0,0,0,108,108,20,1,21,22158,N,180,2022-02-10_11h49.35.488,orientation adjustment blockN,2021.2.3,MacIntel,60.0024001,,,,,,,
,,,,,,,,,,,,,,,,,-46.11111111,36,20,75,35.88888889,0.111111111,0.111111111,0.175990804,-0.297125109,1,0,0,0.5151,submitButton,17.15321637,-0.326364136,-0.408456421,0,0,0,0,109,109,35,1,36,22158,N,180,2022-02-10_11h49.35.488,orientation adjustment blockN,2021.2.3,MacIntel,60.0024001,,,,,,,
,,,,,,,,,,,,,,,,,33.33333333,-67,20,75,-64.66666667,2.333333333,2.333333333,-0.343391791,-0.389700317,1,0,0,1.0489,submitButton,16.99884259,0.056528524,-0.34828871,0,0,0,0,110,110,66,1,67,22158,N,180,2022-02-10_11h49.35.488,orientation adjustment blockN,2021.2.3,MacIntel,60.0024001,,,,,,,
,,,,,,,,,,,,,,,,,35.55555556,-3,20,75,-25.44444444,22.44444444,22.44444444,0.388887804,-0.267957764,1,0,0,0.7473,submitButton,17.05498282,-0.336209547,-0.403834432,0,0,0,0,111,111,2,1,3,22158,N,180,2022-02-10_11h49.35.488,orientation adjustment blockN,2021.2.3,MacIntel,60.0024001,,,,,,,
,,,,,,,,,,,,,,,,,-35.55555556,59,20,75,44.44444444,14.55555556,14.55555556,0.166382921,-0.302310384,1,0,0,1.0162,submitButton,17.02947846,-0.343083021,-0.396584812,0,0,0,0,112,112,133,1,59,22158,N,180,2022-02-10_11h49.35.488,orientation adjustment blockN,2021.2.3,MacIntel,60.0024001,,,,,,,
,,,,,,,,,,,,,,,,,38.33333333,70,20,75,60.33333333,9.666666667,9.666666667,0.412229682,-0.309970839,1,0,0,0.7339,submitButton,16.95510662,0.045403849,-0.334796075,0,0,0,0,113,113,144,1,70,22158,N,180,2022-02-10_11h49.35.488,orientation adjustment blockN,2021.2.3,MacIntel,60.0024001,,,,,,,
,,,,,,,,,,,,,,,,,-45,-43,20,75,-51,8,8,0.182898492,-0.310853475,1,0,0,0.0505,submitButton,16.86555556,-0.298396708,-0.395337524,0,0,0,0,114,114,117,1,43,22158,N,180,2022-02-10_11h49.35.488,orientation adjustment blockN,2021.2.3,MacIntel,60.0024001,,,,,,,
,,,,,,,,,,,,,,,,,32.77777778,68,20,75,114.7777778,46.77777778,46.77777778,0.378187798,-0.314165853,1,0,0,0.4668,submitButton,17.16171617,-0.130104302,-0.392800971,0,0,0,0,115,115,142,1,68,22158,N,180,2022-02-10_11h49.35.488,orientation adjustment blockN,2021.2.3,MacIntel,60.0024001,,,,,,,
,,,,,,,,,,,,,,,,,-57.77777778,-39,20,75,-65.77777778,26.77777778,26.77777778,0.451865234,-0.288703478,1,0,0,0.266,submitButton,17.25599129,0.026486342,-0.328917033,0,0,0,0,116,116,113,1,39,22158,N,180,2022-02-10_11h49.35.488,orientation adjustment blockN,2021.2.3,MacIntel,60.0024001,,,,,,,
,,,,,,,,,,,,,,,,,74.44444444,39,20,75,60.44444444,21.44444444,21.44444444,-0.256949395,-0.333455607,1,0,0,1.2992,submitButton,17.29665588,0.130949843,-0.375733168,0,0,0,0,117,117,38,1,39,22158,N,180,2022-02-10_11h49.35.488,orientation adjustment blockN,2021.2.3,MacIntel,60.0024001,,,,,,,
,,,,,,,,,,,,,,,,,-27.22222222,-36,20,75,-42.22222222,6.222222222,6.222222222,-0.317630005,-0.397252333,1,0,0,1.2504,submitButton,17.19017094,-0.301275465,-0.397856717,0,0,0,0,118,118,110,1,36,22158,N,180,2022-02-10_11h49.35.488,orientation adjustment blockN,2021.2.3,MacIntel,60.0024001,,,,,,,
,,,,,,,,,,,,,,,,,51.11111111,58,20,75,57.11111111,0.888888889,0.888888889,0.409414469,-0.299769084,1,0,0,0.8334,submitButton,17.03492063,0.358270671,-0.410400594,1,0,0,0,119,119,57,1,58,22158,N,180,2022-02-10_11h49.35.488,orientation adjustment blockN,2021.2.3,MacIntel,60.0024001,continueButton,,,,,,
,,,,,,,,,,,,,,,,,39.44444444,46,20,75,51.44444444,5.444444444,5.444444444,0.439802653,-0.290627374,1,0,0,1.1167,submitButton,16.92557652,0.008476088,-0.310851983,0,0,0,0,120,120,45,1,46,22158,N,180,2022-02-10_11h49.35.488,orientation adjustment blockN,2021.2.3,MacIntel,60.0024001,,,,,,,
,,,,,,,,,,,,,,,,,-59.44444444,24,20,75,39.55555556,15.55555556,15.55555556,0.445148112,-0.303936225,1,0,0,0.1503,submitButton,16.91277259,0.085924208,-0.310924683,0,0,0,0,121,121,23,1,24,22158,N,180,2022-02-10_11h49.35.488,orientation adjustment blockN,2021.2.3,MacIntel,60.0024001,,,,,,,
,,,,,,,,,,,,,,,,,-73.33333333,81,20,75,37.66666667,43.33333333,43.33333333,0.213482937,-0.293996718,1,0,0,0.4996,submitButton,17.15740741,0.186079644,-0.314198473,0,0,0,0,122,122,80,1,81,22158,N,180,2022-02-10_11h49.35.488,orientation adjustment blockN,2021.2.3,MacIntel,60.0024001,,,,,,,
,,,,,,,,,,,,,,,,,40.55555556,54,20,75,48.55555556,5.444444444,5.444444444,0.346670871,-0.297162679,1,0,0,0.433,submitButton,17.04994903,-0.359117364,-0.406960992,0,0,0,0,123,123,53,1,54,22158,N,180,2022-02-10_11h49.35.488,orientation adjustment blockN,2021.2.3,MacIntel,60.0024001,,,,,,,
,,,,,,,,,,,,,,,,,-51.66666667,-29,20,75,-80.66666667,51.66666667,51.66666667,-0.352799818,-0.387918362,1,0,0,3.4502,submitButton,17.36464646,-0.099141914,-0.312406887,0,0,0,0,124,124,28,1,29,22158,N,180,2022-02-10_11h49.35.488,orientation adjustment blockN,2021.2.3,MacIntel,60.0024001,,,,,,,
,,,,,,,,,,,,,,,,,-38.33333333,-23,20,75,-48.33333333,25.33333333,25.33333333,0.40971327,-0.306171739,1,0,0,0.2506,submitButton,17.43643644,0.037153592,-0.390116984,0,0,0,0,125,125,97,1,23,22158,N,180,2022-02-10_11h49.35.488,orientation adjustment blockN,2021.2.3,MacIntel,60.0024001,,,,,,,
,,,,,,,,,,,,,,,,,-70.55555556,42,20,75,42.44444444,0.444444444,0.444444444,0.217823758,-0.294112752,1,0,0,0.8334,submitButton,17.28472222,0.218276842,-0.269927639,0,0,0,0,126,126,116,1,42,22158,N,180,2022-02-10_11h49.35.488,orientation adjustment blockN,2021.2.3,MacIntel,60.0024001,,,,,,,
,,,,,,,,,,,,,,,,,-40.55555556,-68,20,75,-225.5555556,22.44444444,22.44444444,0.385955539,-0.29087165,1,0,0,1.2854,submitButton,17.33038348,-0.360376214,-0.384375746,0,0,0,0,127,127,67,1,68,22158,N,180,2022-02-10_11h49.35.488,orientation adjustment blockN,2021.2.3,MacIntel,60.0024001,,,,,,,
,,,,,,,,,,,,,,,,,-75,38,20,75,53,15,15,0.21979282,-0.303910726,1,0,0,0.3987,submitButton,17.30994152,-0.355248549,-0.400694377,0,0,0,0,128,128,37,1,38,22158,N,180,2022-02-10_11h49.35.488,orientation adjustment blockN,2021.2.3,MacIntel,60.0024001,,,,,,,
,,,,,,,,,,,,,,,,,-56.11111111,-77,20,75,-230.1111111,26.88888889,26.88888889,0.421537408,-0.284779392,1,0,0,0.6513,submitButton,17.39323671,-0.376866116,-0.407671577,0,0,0,0,129,129,76,1,77,22158,N,180,2022-02-10_11h49.35.488,orientation adjustment blockN,2021.2.3,MacIntel,60.0024001,,,,,,,
,,,,,,,,,,,,,,,,,51.11111111,-67,20,75,-33.88888889,33.11111111,33.11111111,0.399774441,-0.307529772,1,0,0,0.5825,submitButton,17.52873563,0.268772515,-0.290273641,0,0,0,0,130,130,141,1,67,22158,N,180,2022-02-10_11h49.35.488,orientation adjustment blockN,2021.2.3,MacIntel,60.0024001,,,,,,,
,,,,,,,,,,,,,,,,,39.44444444,-48,20,75,-49.55555556,1.555555556,1.555555556,0.383745795,-0.29388387,1,0,0,0.5355,submitButton,17.39221273,-0.360510796,-0.403631999,0,0,0,0,131,131,122,1,48,22158,N,180,2022-02-10_11h49.35.488,orientation adjustment blockN,2021.2.3,MacIntel,60.0024001,,,,,,,
,,,,,,,,,,,,,,,,,48.33333333,17,20,75,42.33333333,25.33333333,25.33333333,0.364347873,-0.2796089,1,0,0,1.7502,submitButton,17.45951036,-0.353799947,-0.413892958,0,0,0,0,132,132,91,1,17,22158,N,180,2022-02-10_11h49.35.488,orientation adjustment blockN,2021.2.3,MacIntel,60.0024001,,,,,,,
,,,,,,,,,,,,,,,,,-25.55555556,45,20,75,19.44444444,25.55555556,25.55555556,-0.244911872,-0.393754408,1,0,0,1.7021,submitButton,17.52754435,0.257107612,-0.25531311,0,0,0,0,133,133,44,1,45,22158,N,180,2022-02-10_11h49.35.488,orientation adjustment blockN,2021.2.3,MacIntel,60.0024001,,,,,,,
,,,,,,,,,,,,,,,,,72.22222222,-56,20,75,-32.77777778,23.22222222,23.22222222,0.201878594,-0.291555515,1,0,0,0.3829,submitButton,17.575,0.321052585,-0.406142849,1,0,0,0,134,134,55,1,56,22158,N,180,2022-02-10_11h49.35.488,orientation adjustment blockN,2021.2.3,MacIntel,60.0024001,continueButton,,,,,,
,,,,,,,,,,,,,,,,,-30,-34,20,75,-34,0,0,-0.354709744,-0.418132121,1,0,0,1.1328,submitButton,17.42975207,0.119248725,-0.321598375,0,0,0,0,135,135,108,1,34,22158,N,180,2022-02-10_11h49.35.488,orientation adjustment blockN,2021.2.3,MacIntel,60.0024001,,,,,,,
,,,,,,,,,,,,,,,,,-48.88888889,44,20,75,33.11111111,10.88888889,10.88888889,0.132084554,-0.315757921,1,0,0,0.2471,submitButton,17.37613843,0.440234511,-0.334364963,0,0,0,0,136,136,43,1,44,22158,N,180,2022-02-10_11h49.35.488,orientation adjustment blockN,2021.2.3,MacIntel,60.0024001,,,,,,,
,,,,,,,,,,,,,,,,,-49.44444444,2,20,75,2.555555556,0.555555556,0.555555556,0.222782593,-0.287889472,1,0,0,0.6835,submitButton,17.23938573,0.053487888,-0.328802083,0,0,0,0,137,137,1,1,2,22158,N,180,2022-02-10_11h49.35.488,orientation adjustment blockN,2021.2.3,MacIntel,60.0024001,,,,,,,
,,,,,,,,,,,,,,,,,44.44444444,69,20,75,234.4444444,14.55555556,14.55555556,0.231492242,-0.297980211,1,0,0,0.6649,submitButton,17.21774194,0.195103828,-0.284417928,0,0,0,0,138,138,68,1,69,22158,N,180,2022-02-10_11h49.35.488,orientation adjustment blockN,2021.2.3,MacIntel,60.0024001,,,,,,,
,,,,,,,,,,,,,,,,,26.66666667,69,20,75,61.66666667,7.333333333,7.333333333,0.38119222,-0.305110474,1,0,0,0.5173,submitButton,17.13866667,0.08293084,-0.247867093,0,0,0,0,139,139,143,1,69,22158,N,180,2022-02-10_11h49.35.488,orientation adjustment blockN,2021.2.3,MacIntel,60.0024001,,,,,,,
,,,,,,,,,,,,,,,,,-70,17,20,75,-121,42,42,0.220655246,-0.289113837,1,0,0,0.0162,submitButton,17.33597884,-0.191975776,-0.348759969,0,0,0,0,140,140,16,1,17,22158,N,180,2022-02-10_11h49.35.488,orientation adjustment blockN,2021.2.3,MacIntel,60.0024001,,,,,,,
,,,,,,,,,,,,,,,,,-54.44444444,16,20,75,-23.44444444,39.44444444,39.44444444,0.349488797,-0.272455716,1,0,0,0.5833,submitButton,17.51006124,0.011624146,-0.3011714,0,0,0,0,141,141,15,1,16,22158,N,180,2022-02-10_11h49.35.488,orientation adjustment blockN,2021.2.3,MacIntel,60.0024001,,,,,,,
,,,,,,,,,,,,,,,,,22.22222222,62,20,75,107.2222222,45.22222222,45.22222222,0.381632623,-0.292070516,1,0,0,0.8662,submitButton,17.7265625,0.043991767,-0.305873345,0,0,0,0,142,142,136,1,62,22158,N,180,2022-02-10_11h49.35.488,orientation adjustment blockN,2021.2.3,MacIntel,60.0024001,,,,,,,
,,,,,,,,,,,,,,,,,-40,-14,20,75,-46,32,32,-0.354933438,-0.387006836,1,0,0,0.6516,submitButton,17.8372093,-0.253278164,-0.386039022,0,0,0,0,143,143,13,1,14,22158,N,180,2022-02-10_11h49.35.488,orientation adjustment blockN,2021.2.3,MacIntel,60.0024001,,,,,,,
,,,,,,,,,,,,,,,,,68.88888889,-52,20,75,-35.11111111,16.88888889,16.88888889,0.201678263,-0.304790853,1,0,0,0.0494,submitButton,17.82991453,-0.106779989,-0.367687378,0,0,0,0,144,144,51,1,52,22158,N,180,2022-02-10_11h49.35.488,orientation adjustment blockN,2021.2.3,MacIntel,60.0024001,,,,,,,
,,,,,,,,,,,,,,,,,-40.55555556,64,20,75,46.44444444,17.55555556,17.55555556,0.377810059,-0.292745904,1,0,0,0.2171,submitButton,17.82782019,0.389948324,-0.16700236,0,0,0,0,145,145,63,1,64,22158,N,180,2022-02-10_11h49.35.488,orientation adjustment blockN,2021.2.3,MacIntel,60.0024001,,,,,,,
,,,,,,,,,,,,,,,,,-33.33333333,-62,20,75,-62.33333333,0.333333333,0.333333333,0.239302368,-0.288634847,1,0,0,0.233,submitButton,17.6952862,-0.193664754,-0.319290704,0,0,0,0,146,146,61,1,62,22158,N,180,2022-02-10_11h49.35.488,orientation adjustment blockN,2021.2.3,MacIntel,60.0024001,,,,,,,
,,,,,,,,,,,,,,,,,50,-73,20,75,-49,24,24,0.388104791,-0.29143358,1,0,0,0.6017,submitButton,17.74269006,0.132762587,-0.245944824,0,0,0,0,147,147,72,1,73,22158,N,180,2022-02-10_11h49.35.488,orientation adjustment blockN,2021.2.3,MacIntel,60.0024001,,,,,,,
,,,,,,,,,,,,,,,,,-26.11111111,-26,20,75,-63.11111111,37.11111111,37.11111111,0.413661431,-0.299299995,1,0,0,0.3993,submitButton,17.88723051,-0.25076433,-0.384719713,0,0,0,0,148,148,100,1,26,22158,N,180,2022-02-10_11h49.35.488,orientation adjustment blockN,2021.2.3,MacIntel,60.0024001,,,,,,,
,,,,,,,,,,,,,,,,,67.77777778,-66,20,75,-52.22222222,13.77777778,13.77777778,0.396669379,-0.296222466,1,0,0,0.1541,submitButton,17.85679012,-0.348058607,-0.408602159,0,0,0,0,149,149,65,1,66,22158,N,180,2022-02-10_11h49.35.488,orientation adjustment blockN,2021.2.3,MacIntel,60.0024001,,,,,,,
,,,,,,,,,,,,,,,,,,,,,,,,,,,,,,,,,,,,,,,,,,,22158,N,180,2022-02-10_11h49.35.488,orientation adjustment blockN,2021.2.3,MacIntel,60.0024001,,0.262531128,-0.403704631,1,0,0,EndButtonTxt
