consentMouse1.x,consentMouse1.y,consentMouse1.leftButton,consentMouse1.midButton,consentMouse1.rightButton,consentMouse1.clicked_name,consent_Mouse.x,consent_Mouse.y,consent_Mouse.leftButton,consent_Mouse.midButton,consent_Mouse.rightButton,consent_Mouse.clicked_name,startMouse.x,startMouse.y,startMouse.leftButton,startMouse.midButton,startMouse.rightButton,start_distance,fixedOri,minimalDistance,maxOri,this_ori,accuracy,presented_accuracy,submitMouse.x,submitMouse.y,submitMouse.leftButton,submitMouse.midButton,submitMouse.rightButton,submitMouse.time,submitMouse.clicked_name,block_accuracy,continueMouse.x,continueMouse.y,continueMouse.leftButton,continueMouse.midButton,continueMouse.rightButton,trials.thisRepN,trials.thisTrialN,trials.thisN,trials.thisIndex,trials.ran,startOri,participant,condition,nTrials,date,expName,psychopyVersion,OS,frameRate,continueMouse.clicked_name,EndButtonMouse.x,EndButtonMouse.y,EndButtonMouse.leftButton,EndButtonMouse.midButton,EndButtonMouse.rightButton,EndButtonMouse.clicked_name
0.329456028,-0.38333334,1,0,0,consent_button1,0.366493065,-0.409259266,1,0,0,consent_button,0.313715287,-0.35370371,1,0,0,-63.88888889,58,20,75,-5.888888889,63.88888889,63.88888889,-0.185358791,-0.405555562,1,0,0,4.1299,submitButton,63.88888889,-0.185358791,-0.405555562,0,0,0,0,0,0,42,1,58,67528,N,180,2022-02-21_16h28.08.137,orientation adjustment blockN,2021.2.3,Win32,60.24822268,,,,,,,
,,,,,,,,,,,,,,,,,27.77777778,32,20,75,64.77777778,32.77777778,32.77777778,0.197974545,-0.317592599,1,0,0,2.728,submitButton,48.33333333,-0.362210644,-0.40370371,0,0,0,0,1,1,16,1,32,67528,N,180,2022-02-21_16h28.08.137,orientation adjustment blockN,2021.2.3,Win32,60.24822268,,,,,,,
,,,,,,,,,,,,,,,,,-61.66666667,62,20,75,0.333333333,61.66666667,61.66666667,-0.362210644,-0.40370371,1,0,0,2.0329,submitButton,52.77777778,-0.362210644,-0.40370371,0,0,0,0,2,2,46,1,62,67528,N,180,2022-02-21_16h28.08.137,orientation adjustment blockN,2021.2.3,Win32,60.24822268,,,,,,,
,,,,,,,,,,,,,,,,,-34.44444444,-61,20,75,-95.44444444,34.44444444,34.44444444,-0.362210644,-0.40370371,1,0,0,1.1663,submitButton,34.44444444,-0.362210644,-0.40370371,0,0,0,0,3,3,45,1,61,67528,N,180,2022-02-21_16h28.08.137,orientation adjustment blockN,2021.2.3,Win32,60.24822268,,,,,,,
,,,,,,,,,,,,,,,,,26.66666667,-47,20,75,-20.33333333,26.66666667,26.66666667,-0.362210644,-0.40370371,1,0,0,0.3842,submitButton,30.55555556,-0.362210644,-0.40370371,0,0,0,0,4,4,31,1,47,67528,N,180,2022-02-21_16h28.08.137,orientation adjustment blockN,2021.2.3,Win32,60.24822268,,,,,,,
,,,,,,,,,,,,,,,,,-37.22222222,-54,20,75,-91.22222222,37.22222222,37.22222222,-0.362210644,-0.40370371,1,0,0,2.4001,submitButton,32.77777778,-0.362210644,-0.40370371,0,0,0,0,5,5,38,1,54,67528,N,180,2022-02-21_16h28.08.137,orientation adjustment blockN,2021.2.3,Win32,60.24822268,,,,,,,
,,,,,,,,,,,,,,,,,-40,34,20,75,-6,40,40,-0.362210644,-0.40370371,1,0,0,1.5495,submitButton,40,-0.362210644,-0.40370371,0,0,0,0,6,6,18,1,34,67528,N,180,2022-02-21_16h28.08.137,orientation adjustment blockN,2021.2.3,Win32,60.24822268,,,,,,,
,,,,,,,,,,,,,,,,,-52.22222222,24,20,75,-28.22222222,52.22222222,52.22222222,-0.362210644,-0.40370371,1,0,0,0.6501,submitButton,46.11111111,-0.362210644,-0.40370371,0,0,0,0,7,7,8,1,24,67528,N,180,2022-02-21_16h28.08.137,orientation adjustment blockN,2021.2.3,Win32,60.24822268,,,,,,,
,,,,,,,,,,,,,,,,,56.66666667,37,20,75,93.66666667,56.66666667,56.66666667,-0.362210644,-0.40370371,1,0,0,1.3499,submitButton,49.62962963,-0.362210644,-0.40370371,0,0,0,0,8,8,21,1,37,67528,N,180,2022-02-21_16h28.08.137,orientation adjustment blockN,2021.2.3,Win32,60.24822268,,,,,,,
,,,,,,,,,,,,,,,,,30,66,20,75,96,30,30,-0.362210644,-0.40370371,1,0,0,0.614,submitButton,30,-0.362210644,-0.40370371,0,0,0,0,9,9,50,1,66,67528,N,180,2022-02-21_16h28.08.137,orientation adjustment blockN,2021.2.3,Win32,60.24822268,,,,,,,
,,,,,,,,,,,,,,,,,51.66666667,-63,20,75,-11.33333333,51.66666667,51.66666667,-0.362210644,-0.40370371,1,0,0,1.7496,submitButton,40.83333333,-0.362210644,-0.40370371,0,0,0,0,10,10,47,1,63,67528,N,180,2022-02-21_16h28.08.137,orientation adjustment blockN,2021.2.3,Win32,60.24822268,,,,,,,
,,,,,,,,,,,,,,,,,47.22222222,30,20,75,77.22222222,47.22222222,47.22222222,-0.362210644,-0.405555562,1,0,0,0.9501,submitButton,42.96296296,-0.362210644,-0.405555562,0,0,0,0,11,11,14,1,30,67528,N,180,2022-02-21_16h28.08.137,orientation adjustment blockN,2021.2.3,Win32,60.24822268,,,,,,,
,,,,,,,,,,,,,,,,,45.55555556,45,20,75,-0.444444444,45.44444444,45.44444444,0.40630788,-0.300000006,1,0,0,1.0493,submitButton,45.44444444,0.260937509,-0.195370376,0,0,0,0,12,12,29,1,45,67528,N,180,2022-02-21_16h28.08.137,orientation adjustment blockN,2021.2.3,Win32,60.24822268,,,,,,,
,,,,,,,,,,,,,,,,,29.44444444,-25,20,75,-0.555555556,24.44444444,24.44444444,0.403530102,-0.291666673,1,0,0,0.2322,submitButton,34.94444444,0.418344917,-0.177777783,0,0,0,0,13,13,9,1,25,67528,N,180,2022-02-21_16h28.08.137,orientation adjustment blockN,2021.2.3,Win32,60.24822268,,,,,,,
,,,,,,,,,,,,,,,,,-35.55555556,-73,20,75,-181.5555556,71.44444444,71.44444444,0.389641213,-0.293518581,1,0,0,0.5167,submitButton,47.11111111,0.268344916,-0.395370377,1,0,0,0,14,14,57,1,73,67528,N,180,2022-02-21_16h28.08.137,orientation adjustment blockN,2021.2.3,Win32,60.24822268,continueButton,,,,,,
,,,,,,,,,,,,,,,,,-43.33333333,55,20,75,0.666666667,54.33333333,54.33333333,0.40167825,-0.304629692,1,0,0,0.0329,submitButton,54.33333333,0.024826396,-0.283333339,0,0,0,0,15,15,39,1,55,67528,N,180,2022-02-21_16h28.08.137,orientation adjustment blockN,2021.2.3,Win32,60.24822268,,,,,,,
,,,,,,,,,,,,,,,,,65,40,20,75,-1,41,41,0.397048621,-0.299074137,1,0,0,0.8325,submitButton,47.66666667,0.214641212,-0.18518519,0,0,0,0,16,16,24,1,40,67528,N,180,2022-02-21_16h28.08.137,orientation adjustment blockN,2021.2.3,Win32,60.24822268,,,,,,,
,,,,,,,,,,,,,,,,,61.66666667,-75,20,75,-3.333333333,71.66666667,71.66666667,0.240567138,-0.304629692,1,0,0,0.0659,submitButton,55.66666667,0.095196767,-0.153703709,0,0,0,0,17,17,59,1,75,67528,N,180,2022-02-21_16h28.08.137,orientation adjustment blockN,2021.2.3,Win32,60.24822268,,,,,,,
,,,,,,,,,,,,,,,,,-56.11111111,-65,20,75,-180.1111111,64.88888889,64.88888889,0.385937509,-0.274074136,1,0,0,0.533,submitButton,57.97222222,-0.156655031,-0.397222229,0,0,0,0,18,18,49,1,65,67528,N,180,2022-02-21_16h28.08.137,orientation adjustment blockN,2021.2.3,Win32,60.24822268,,,,,,,
,,,,,,,,,,,,,,,,,43.88888889,56,20,75,177.8888889,58.11111111,58.11111111,0.185011582,-0.297222228,1,0,0,0.1328,submitButton,58,-0.142766142,-0.399074137,0,0,0,0,19,19,40,1,56,67528,N,180,2022-02-21_16h28.08.137,orientation adjustment blockN,2021.2.3,Win32,60.24822268,,,,,,,
,,,,,,,,,,,,,,,,,58.88888889,26,20,75,-2.111111111,28.11111111,28.11111111,0.375752437,-0.30370371,1,0,0,0.9662,submitButton,53.01851852,0.024826396,-0.16481482,0,0,0,0,20,20,10,1,26,67528,N,180,2022-02-21_16h28.08.137,orientation adjustment blockN,2021.2.3,Win32,60.24822268,,,,,,,
,,,,,,,,,,,,,,,,,25.55555556,74,20,75,178.5555556,75.44444444,75.44444444,0.201678249,-0.296296359,1,0,0,0.1667,submitButton,56.22222222,0.240567138,-0.296296359,0,0,0,0,21,21,58,1,74,67528,N,180,2022-02-21_16h28.08.137,orientation adjustment blockN,2021.2.3,Win32,60.24822268,,,,,,,
,,,,,,,,,,,,,,,,,22.77777778,-43,20,75,-0.222222222,42.77777778,42.77777778,0.379456028,-0.299074137,1,0,0,0.5828,submitButton,54.54166667,-0.135358791,-0.401851915,0,0,0,0,22,22,27,1,43,67528,N,180,2022-02-21_16h28.08.137,orientation adjustment blockN,2021.2.3,Win32,60.24822268,,,,,,,
,,,,,,,,,,,,,,,,,44.44444444,18,20,75,0.444444444,17.55555556,17.55555556,0.408159732,-0.288888895,1,0,0,0.7171,submitButton,50.43209877,0.151678248,-0.223148154,0,0,0,0,23,23,2,1,18,67528,N,180,2022-02-21_16h28.08.137,orientation adjustment blockN,2021.2.3,Win32,60.24822268,,,,,,,
,,,,,,,,,,,,,,,,,-48.33333333,49,20,75,-2.333333333,51.33333333,51.33333333,0.216493064,-0.302777784,1,0,0,0.6049,submitButton,50.52222222,-0.182581013,-0.393518582,0,0,0,0,24,24,33,1,49,67528,N,180,2022-02-21_16h28.08.137,orientation adjustment blockN,2021.2.3,Win32,60.24822268,,,,,,,
,,,,,,,,,,,,,,,,,55,48,20,75,177,51,51,0.210011582,-0.299074137,1,0,0,2.2326,submitButton,50.56565657,-0.153877253,-0.406481488,0,0,0,0,25,25,32,1,48,67528,N,180,2022-02-21_16h28.08.137,orientation adjustment blockN,2021.2.3,Win32,60.24822268,,,,,,,
,,,,,,,,,,,,,,,,,-70.55555556,69,20,75,-1.555555556,70.55555556,70.55555556,0.215567138,-0.292592598,1,0,0,0.7828,submitButton,52.23148148,-0.197395828,-0.394444451,0,0,0,0,26,26,53,1,69,67528,N,180,2022-02-21_16h28.08.137,orientation adjustment blockN,2021.2.3,Win32,60.24822268,,,,,,,
,,,,,,,,,,,,,,,,,-39.44444444,42,20,75,0.555555556,41.44444444,41.44444444,0.384085771,-0.27870371,1,0,0,0.8825,submitButton,51.4017094,-0.052951383,-0.331481488,0,0,0,0,27,27,26,1,42,67528,N,180,2022-02-21_16h28.08.137,orientation adjustment blockN,2021.2.3,Win32,60.24822268,,,,,,,
,,,,,,,,,,,,,,,,,-42.77777778,-71,20,75,-181.7777778,69.22222222,69.22222222,0.398900473,-0.280555561,1,0,0,1.3829,submitButton,52.67460317,-0.180729161,-0.417592599,0,0,0,0,28,28,55,1,71,67528,N,180,2022-02-21_16h28.08.137,orientation adjustment blockN,2021.2.3,Win32,60.24822268,,,,,,,
,,,,,,,,,,,,,,,,,33.88888889,-52,20,75,-1.111111111,50.88888889,50.88888889,0.388715287,-0.293518581,1,0,0,0.6999,submitButton,52.55555556,0.395196769,-0.402777785,1,0,0,0,29,29,36,1,52,67528,N,180,2022-02-21_16h28.08.137,orientation adjustment blockN,2021.2.3,Win32,60.24822268,continueButton,,,,,,
,,,,,,,,,,,,,,,,,46.66666667,-21,20,75,-0.333333333,20.66666667,20.66666667,0.375752437,-0.292592598,1,0,0,0.4166,submitButton,50.5625,0.161863434,-0.283333339,0,0,0,0,30,30,5,1,21,67528,N,180,2022-02-21_16h28.08.137,orientation adjustment blockN,2021.2.3,Win32,60.24822268,,,,,,,
,,,,,,,,,,,,,,,,,41.11111111,38,20,75,-4.888888889,42.88888889,42.88888889,0.414641213,-0.293518581,1,0,0,1.0492,submitButton,50.11111111,-0.008506938,-0.351851915,0,0,0,0,31,31,22,1,38,67528,N,180,2022-02-21_16h28.08.137,orientation adjustment blockN,2021.2.3,Win32,60.24822268,,,,,,,
,,,,,,,,,,,,,,,,,-68.88888889,31,20,75,0.111111111,30.88888889,30.88888889,0.171122693,-0.297222228,1,0,0,0.9337,submitButton,49.04320988,-0.066840272,-0.323148154,0,0,0,0,32,32,15,1,31,67528,N,180,2022-02-21_16h28.08.137,orientation adjustment blockN,2021.2.3,Win32,60.24822268,,,,,,,
,,,,,,,,,,,,,,,,,-52.22222222,33,20,75,-0.222222222,33.22222222,33.22222222,-0.155729161,-0.384259266,1,0,0,1.2326,submitButton,48.21052632,0.013715285,-0.21944445,0,0,0,0,33,33,17,1,33,67528,N,180,2022-02-21_16h28.08.137,orientation adjustment blockN,2021.2.3,Win32,60.24822268,,,,,,,
,,,,,,,,,,,,,,,,,-20.55555556,35,20,75,-1.555555556,36.55555556,36.55555556,0.185937508,-0.305555562,1,0,0,0.3496,submitButton,47.62777778,-0.099247679,-0.390740804,0,0,0,0,34,34,19,1,35,67528,N,180,2022-02-21_16h28.08.137,orientation adjustment blockN,2021.2.3,Win32,60.24822268,,,,,,,
,,,,,,,,,,,,,,,,,45.55555556,29,20,75,-1.444444444,30.44444444,30.44444444,0.407233806,-0.30370371,1,0,0,0.9329,submitButton,46.80952381,0.035937507,-0.275000006,0,0,0,0,35,35,13,1,29,67528,N,180,2022-02-21_16h28.08.137,orientation adjustment blockN,2021.2.3,Win32,60.24822268,,,,,,,
,,,,,,,,,,,,,,,,,23.88888889,-50,20,75,-0.111111111,49.88888889,49.88888889,0.179456026,-0.281481487,1,0,0,0.2839,submitButton,46.94949495,0.155381952,-0.148148153,0,0,0,0,36,36,34,1,50,67528,N,180,2022-02-21_16h28.08.137,orientation adjustment blockN,2021.2.3,Win32,60.24822268,,,,,,,
,,,,,,,,,,,,,,,,,73.33333333,20,20,75,178.3333333,21.66666667,21.66666667,0.21278936,-0.300925932,1,0,0,0.1488,submitButton,45.85024155,0.285937509,-0.109259264,0,0,0,0,37,37,4,1,20,67528,N,180,2022-02-21_16h28.08.137,orientation adjustment blockN,2021.2.3,Win32,60.24822268,,,,,,,
,,,,,,,,,,,,,,,,,-53.88888889,-53,20,75,-179.8888889,53.11111111,53.11111111,0.399826398,-0.263888895,1,0,0,0.0496,submitButton,46.15277778,-0.206655031,-0.397222229,0,0,0,0,38,38,37,1,53,67528,N,180,2022-02-21_16h28.08.137,orientation adjustment blockN,2021.2.3,Win32,60.24822268,,,,,,,
,,,,,,,,,,,,,,,,,28.33333333,-72,20,75,0.333333333,72.33333333,72.33333333,0.219270842,-0.292592598,1,0,0,0.9672,submitButton,47.2,-0.145543919,-0.393518582,0,0,0,0,39,39,56,1,72,67528,N,180,2022-02-21_16h28.08.137,orientation adjustment blockN,2021.2.3,Win32,60.24822268,,,,,,,
,,,,,,,,,,,,,,,,,37.22222222,-60,20,75,-3.777777778,56.22222222,56.22222222,0.380381954,-0.300925932,1,0,0,0.999,submitButton,47.54700855,-0.108506939,-0.417592599,0,0,0,0,40,40,44,1,60,67528,N,180,2022-02-21_16h28.08.137,orientation adjustment blockN,2021.2.3,Win32,60.24822268,,,,,,,
,,,,,,,,,,,,,,,,,-58.88888889,39,20,75,2.111111111,36.88888889,36.88888889,0.219270842,-0.287037043,1,0,0,0.2171,submitButton,47.15226337,-0.130729161,-0.422222229,0,0,0,0,41,41,23,1,39,67528,N,180,2022-02-21_16h28.08.137,orientation adjustment blockN,2021.2.3,Win32,60.24822268,,,,,,,
,,,,,,,,,,,,,,,,,-75,23,20,75,0,23,23,0.210011582,-0.300000006,1,0,0,1.0665,submitButton,46.28968254,0.023900526,-0.170370375,0,0,0,0,42,42,7,1,23,67528,N,180,2022-02-21_16h28.08.137,orientation adjustment blockN,2021.2.3,Win32,60.24822268,,,,,,,
,,,,,,,,,,,,,,,,,-63.88888889,70,20,75,-2.888888889,72.88888889,72.88888889,0.415567139,-0.285185248,1,0,0,0.4499,submitButton,47.20689655,-0.139988364,-0.387037044,0,0,0,0,43,43,54,1,70,67528,N,180,2022-02-21_16h28.08.137,orientation adjustment blockN,2021.2.3,Win32,60.24822268,,,,,,,
,,,,,,,,,,,,,,,,,-41.11111111,-46,20,75,-181.1111111,44.88888889,44.88888889,0.366493065,-0.291666673,1,0,0,0.5499,submitButton,47.12962963,0.285937509,-0.410185248,1,0,0,0,44,44,30,1,46,67528,N,180,2022-02-21_16h28.08.137,orientation adjustment blockN,2021.2.3,Win32,60.24822268,continueButton,,,,,,
,,,,,,,,,,,,,,,,,54.44444444,22,20,75,-0.555555556,22.55555556,22.55555556,0.364641213,-0.309259265,1,0,0,0.6165,submitButton,46.33691756,0.1535301,-0.217592598,0,0,0,0,45,45,6,1,22,67528,N,180,2022-02-21_16h28.08.137,orientation adjustment blockN,2021.2.3,Win32,60.24822268,,,,,,,
,,,,,,,,,,,,,,,,,63.33333333,67,20,75,177.3333333,69.66666667,69.66666667,0.226678249,-0.30370371,1,0,0,0.4792,submitButton,47.06597222,-0.177025458,-0.418518582,0,0,0,0,46,46,51,1,67,67528,N,180,2022-02-21_16h28.08.137,orientation adjustment blockN,2021.2.3,Win32,60.24822268,,,,,,,
,,,,,,,,,,,,,,,,,-70.55555556,-16,20,75,-0.555555556,15.44444444,15.44444444,0.226678249,-0.310185248,1,0,0,0.2329,submitButton,46.10774411,0.223900471,-0.173148153,0,0,0,0,47,47,0,1,16,67528,N,180,2022-02-21_16h28.08.137,orientation adjustment blockN,2021.2.3,Win32,60.24822268,,,,,,,
,,,,,,,,,,,,,,,,,-23.88888889,51,20,75,-1.888888889,52.88888889,52.88888889,0.391493065,-0.275000006,1,0,0,0.0161,submitButton,46.30718954,0.102604174,-0.168518523,0,0,0,0,48,48,35,1,51,67528,N,180,2022-02-21_16h28.08.137,orientation adjustment blockN,2021.2.3,Win32,60.24822268,,,,,,,
,,,,,,,,,,,,,,,,,67.22222222,19,20,75,-0.777777778,19.77777778,19.77777778,0.352604176,-0.289814821,1,0,0,0.0829,submitButton,45.54920635,-0.17424768,-0.401851915,0,0,0,0,49,49,3,1,19,67528,N,180,2022-02-21_16h28.08.137,orientation adjustment blockN,2021.2.3,Win32,60.24822268,,,,,,,
,,,,,,,,,,,,,,,,,39.44444444,-59,20,75,-2.555555556,56.44444444,56.44444444,0.222974545,-0.292592598,1,0,0,0.0499,submitButton,45.85185185,-0.173321697,-0.402777785,0,0,0,0,50,50,43,1,59,67528,N,180,2022-02-21_16h28.08.137,orientation adjustment blockN,2021.2.3,Win32,60.24822268,,,,,,,
,,,,,,,,,,,,,,,,,-37.22222222,28,20,75,1.777777778,26.22222222,26.22222222,0.397974547,-0.287037043,1,0,0,0.6661,submitButton,45.32132132,-0.025173605,-0.300925932,0,0,0,0,51,51,12,1,28,67528,N,180,2022-02-21_16h28.08.137,orientation adjustment blockN,2021.2.3,Win32,60.24822268,,,,,,,
,,,,,,,,,,,,,,,,,50.55555556,-68,20,75,-1.444444444,66.55555556,66.55555556,0.195196767,-0.311111117,1,0,0,3.5153,submitButton,45.88011696,-0.139062494,-0.412963026,0,0,0,0,52,52,52,1,68,67528,N,180,2022-02-21_16h28.08.137,orientation adjustment blockN,2021.2.3,Win32,60.24822268,,,,,,,
,,,,,,,,,,,,,,,,,-45.55555556,-57,20,75,-181.5555556,55.44444444,55.44444444,0.393344917,-0.291666673,1,0,0,1.3329,submitButton,46.12535613,-0.22887731,-0.40370371,0,0,0,0,53,53,41,1,57,67528,N,180,2022-02-21_16h28.08.137,orientation adjustment blockN,2021.2.3,Win32,60.24822268,,,,,,,
,,,,,,,,,,,,,,,,,66.11111111,-17,20,75,-1.888888889,15.11111111,15.11111111,0.380381954,-0.299074137,1,0,0,0.783,submitButton,45.35,-0.180729161,-0.407407471,0,0,0,0,54,54,1,1,17,67528,N,180,2022-02-21_16h28.08.137,orientation adjustment blockN,2021.2.3,Win32,60.24822268,,,,,,,
,,,,,,,,,,,,,,,,,23.88888889,-36,20,75,-2.111111111,33.88888889,33.88888889,0.404456028,-0.287963025,1,0,0,0.5169,submitButton,45.0704607,-0.17054392,-0.393518582,0,0,0,0,55,55,20,1,36,67528,N,180,2022-02-21_16h28.08.137,orientation adjustment blockN,2021.2.3,Win32,60.24822268,,,,,,,
,,,,,,,,,,,,,,,,,24.44444444,41,20,75,-2.555555556,43.55555556,43.55555556,0.374826398,-0.314814821,1,0,0,1.8166,submitButton,45.03439153,-0.155729161,-0.384259266,0,0,0,0,56,56,25,1,41,67528,N,180,2022-02-21_16h28.08.137,orientation adjustment blockN,2021.2.3,Win32,60.24822268,,,,,,,
,,,,,,,,,,,,,,,,,-23.88888889,44,20,75,2.111111111,41.88888889,41.88888889,-0.164062495,-0.405555562,1,0,0,0.7331,submitButton,44.96124031,0.121122693,-0.192592598,0,0,0,0,57,57,28,1,44,67528,N,180,2022-02-21_16h28.08.137,orientation adjustment blockN,2021.2.3,Win32,60.24822268,,,,,,,
,,,,,,,,,,,,,,,,,-37.22222222,27,20,75,-0.222222222,27.22222222,27.22222222,-0.185358791,-0.392592599,1,0,0,1.1831,submitButton,44.55808081,0.013715285,-0.268518581,0,0,0,0,58,58,11,1,27,67528,N,180,2022-02-21_16h28.08.137,orientation adjustment blockN,2021.2.3,Win32,60.24822268,,,,,,,
,,,,,,,,,,,,,,,,,-75,64,20,75,0,64,64,0.191493064,-0.319444451,1,0,0,0.1161,submitButton,44.99012346,0.349826398,-0.404629693,1,0,0,0,59,59,48,1,64,67528,N,180,2022-02-21_16h28.08.137,orientation adjustment blockN,2021.2.3,Win32,60.24822268,continueButton,,,,,,
,,,,,,,,,,,,,,,,,-20.55555556,35,20,75,1.444444444,33.55555556,33.55555556,0.403530102,-0.304629692,1,0,0,0.1504,submitButton,44.74154589,-0.164062495,-0.393518582,0,0,0,1,0,60,19,1,35,67528,N,180,2022-02-21_16h28.08.137,orientation adjustment blockN,2021.2.3,Win32,60.24822268,,,,,,,
,,,,,,,,,,,,,,,,,-51.11111111,-53,20,75,-183.1111111,49.88888889,49.88888889,0.407233806,-0.283333339,1,0,0,1.5331,submitButton,44.85106383,-0.148321697,-0.380555562,0,0,0,1,1,61,37,1,53,67528,N,180,2022-02-21_16h28.08.137,orientation adjustment blockN,2021.2.3,Win32,60.24822268,,,,,,,
,,,,,,,,,,,,,,,,,-36.66666667,69,20,75,-1.666666667,70.66666667,70.66666667,0.43130788,-0.304629692,1,0,0,0.0826,submitButton,45.38888889,0.060937507,-0.237037043,0,0,0,1,2,62,53,1,69,67528,N,180,2022-02-21_16h28.08.137,orientation adjustment blockN,2021.2.3,Win32,60.24822268,,,,,,,
,,,,,,,,,,,,,,,,,-71.66666667,-48,20,75,-179.6666667,48.33333333,48.33333333,-0.155729161,-0.394444451,1,0,0,2.2161,submitButton,45.44897959,0.311863435,-0.163888894,0,0,0,1,3,63,32,1,48,67528,N,180,2022-02-21_16h28.08.137,orientation adjustment blockN,2021.2.3,Win32,60.24822268,,,,,,,
,,,,,,,,,,,,,,,,,27.77777778,-42,20,75,-2.222222222,39.77777778,39.77777778,0.384085771,-0.310185248,1,0,0,0.4334,submitButton,45.33555556,-0.160358791,-0.374074137,0,0,0,1,4,64,26,1,42,67528,N,180,2022-02-21_16h28.08.137,orientation adjustment blockN,2021.2.3,Win32,60.24822268,,,,,,,
,,,,,,,,,,,,,,,,,44.44444444,37,20,75,1.444444444,35.55555556,35.55555556,0.372974546,-0.292592598,1,0,0,1.2664,submitButton,45.14379085,-0.164988364,-0.375925932,0,0,0,1,5,65,21,1,37,67528,N,180,2022-02-21_16h28.08.137,orientation adjustment blockN,2021.2.3,Win32,60.24822268,,,,,,,
,,,,,,,,,,,,,,,,,23.88888889,-22,20,75,-3.111111111,18.88888889,18.88888889,-0.140914346,-0.387963026,1,0,0,0.7327,submitButton,44.63888889,0.417419104,-0.222222228,0,0,0,1,6,66,6,1,22,67528,N,180,2022-02-21_16h28.08.137,orientation adjustment blockN,2021.2.3,Win32,60.24822268,,,,,,,
,,,,,,,,,,,,,,,,,-21.66666667,-51,20,75,0.333333333,51.33333333,51.33333333,0.219270842,-0.29444445,1,0,0,1.0325,submitButton,44.76519916,-0.121469902,-0.411111118,0,0,0,1,7,67,35,1,51,67528,N,180,2022-02-21_16h28.08.137,orientation adjustment blockN,2021.2.3,Win32,60.24822268,,,,,,,
,,,,,,,,,,,,,,,,,-67.77777778,-72,20,75,-176.7777778,75.22222222,75.22222222,0.399826398,-0.311111117,1,0,0,1.4996,submitButton,45.32921811,-0.155729161,-0.395370377,0,0,0,1,8,68,56,1,72,67528,N,180,2022-02-21_16h28.08.137,orientation adjustment blockN,2021.2.3,Win32,60.24822268,,,,,,,
,,,,,,,,,,,,,,,,,63.33333333,-68,20,75,2.333333333,70.33333333,70.33333333,0.190567138,-0.289814821,1,0,0,0.0334,submitButton,45.78383838,-0.14461805,-0.400000007,0,0,0,1,9,69,52,1,68,67528,N,180,2022-02-21_16h28.08.137,orientation adjustment blockN,2021.2.3,Win32,60.24822268,,,,,,,
,,,,,,,,,,,,,,,,,45,75,20,75,177,78,78,0.188715286,-0.300925932,1,0,0,1.0498,submitButton,46.35912698,-0.128877253,-0.409259266,0,0,0,1,10,70,59,1,75,67528,N,180,2022-02-21_16h28.08.137,orientation adjustment blockN,2021.2.3,Win32,60.24822268,,,,,,,
,,,,,,,,,,,,,,,,,-28.88888889,-66,20,75,-177.8888889,68.11111111,68.11111111,0.366493065,-0.263888895,1,0,0,0.4158,submitButton,46.74074074,-0.176099475,-0.414814822,0,0,0,1,11,71,50,1,66,67528,N,180,2022-02-21_16h28.08.137,orientation adjustment blockN,2021.2.3,Win32,60.24822268,,,,,,,
,,,,,,,,,,,,,,,,,56.11111111,-47,20,75,-2.888888889,44.11111111,44.11111111,0.362789361,-0.276851914,1,0,0,4.0324,submitButton,46.6954023,-0.204803236,-0.411111118,0,0,0,1,12,72,31,1,47,67528,N,180,2022-02-21_16h28.08.137,orientation adjustment blockN,2021.2.3,Win32,60.24822268,,,,,,,
,,,,,,,,,,,,,,,,,-49.44444444,-54,20,75,-179.4444444,54.55555556,54.55555556,-0.183506939,-0.412037044,1,0,0,2.0487,submitButton,46.82862524,-0.183506939,-0.412037044,0,0,0,1,13,73,38,1,54,67528,N,180,2022-02-21_16h28.08.137,orientation adjustment blockN,2021.2.3,Win32,60.24822268,,,,,,,
,,,,,,,,,,,,,,,,,-53.88888889,-23,20,75,-186.8888889,16.11111111,16.11111111,0.402604176,-0.305555562,1,0,0,1.8995,submitButton,46.31666667,0.407233806,-0.407407471,1,0,0,1,14,74,7,1,23,67528,N,180,2022-02-21_16h28.08.137,orientation adjustment blockN,2021.2.3,Win32,60.24822268,continueButton,,,,,,
,,,,,,,,,,,,,,,,,30,-58,20,75,-1,57,57,0.385011584,-0.308333339,1,0,0,0.7661,submitButton,46.49180328,-0.142766142,-0.418518582,0,0,0,1,15,75,42,1,58,67528,N,180,2022-02-21_16h28.08.137,orientation adjustment blockN,2021.2.3,Win32,60.24822268,,,,,,,
,,,,,,,,,,,,,,,,,25,49,20,75,-3,52,52,0.385011584,-0.272222228,1,0,0,1.3664,submitButton,46.58064516,-0.117766141,-0.405555562,0,0,0,1,16,76,33,1,49,67528,N,180,2022-02-21_16h28.08.137,orientation adjustment blockN,2021.2.3,Win32,60.24822268,,,,,,,
,,,,,,,,,,,,,,,,,-58.88888889,-25,20,75,-0.888888889,24.11111111,24.11111111,0.20815973,-0.283333339,1,0,0,1.0167,submitButton,46.22398589,0.227604175,-0.143518523,0,0,0,1,17,77,9,1,25,67528,N,180,2022-02-21_16h28.08.137,orientation adjustment blockN,2021.2.3,Win32,60.24822268,,,,,,,
,,,,,,,,,,,,,,,,,69.44444444,-64,20,75,-1.555555556,62.44444444,62.44444444,0.375752437,-0.285185248,1,0,0,0.1502,submitButton,46.47743056,-0.189988364,-0.393518582,0,0,0,1,18,78,48,1,64,67528,N,180,2022-02-21_16h28.08.137,orientation adjustment blockN,2021.2.3,Win32,60.24822268,,,,,,,
,,,,,,,,,,,,,,,,,-20,31,20,75,-3,34,34,0.367419104,-0.281481487,1,0,0,0.1664,submitButton,46.28547009,-0.214062495,-0.390740804,0,0,0,1,19,79,15,1,31,67528,N,180,2022-02-21_16h28.08.137,orientation adjustment blockN,2021.2.3,Win32,60.24822268,,,,,,,
,,,,,,,,,,,,,,,,,52.22222222,33,20,75,176.2222222,36.77777778,36.77777778,0.214641212,-0.304629692,1,0,0,0.0332,submitButton,46.14141414,-0.175173606,-0.400925933,0,0,0,1,20,80,17,1,33,67528,N,180,2022-02-21_16h28.08.137,orientation adjustment blockN,2021.2.3,Win32,60.24822268,,,,,,,
,,,,,,,,,,,,,,,,,42.77777778,-17,20,75,-3.222222222,13.77777778,13.77777778,-0.114988364,-0.342592599,1,0,0,1.0663,submitButton,45.65837479,-0.183506939,-0.413888896,0,0,0,1,21,81,1,1,17,67528,N,180,2022-02-21_16h28.08.137,orientation adjustment blockN,2021.2.3,Win32,60.24822268,,,,,,,
,,,,,,,,,,,,,,,,,23.88888889,16,20,75,-2.111111111,18.11111111,18.11111111,0.218344916,-0.305555562,1,0,0,0.9667,submitButton,45.25326797,-0.101099475,-0.391666673,0,0,0,1,22,82,0,1,16,67528,N,180,2022-02-21_16h28.08.137,orientation adjustment blockN,2021.2.3,Win32,60.24822268,,,,,,,
,,,,,,,,,,,,,,,,,-35,-36,20,75,-1,35,35,0.199826397,-0.300925932,1,0,0,0.5331,submitButton,45.10466989,-0.16961805,-0.38240747,0,0,0,1,23,83,20,1,36,67528,N,180,2022-02-21_16h28.08.137,orientation adjustment blockN,2021.2.3,Win32,60.24822268,,,,,,,
,,,,,,,,,,,,,,,,,40,-39,20,75,-1,38,38,0.383159732,-0.30370371,1,0,0,0.0499,submitButton,45.0031746,-0.183506939,-0.406481488,0,0,0,1,24,84,23,1,39,67528,N,180,2022-02-21_16h28.08.137,orientation adjustment blockN,2021.2.3,Win32,60.24822268,,,,,,,
,,,,,,,,,,,,,,,,,35,67,20,75,178,69,69,0.195196767,-0.311111117,1,0,0,0.3999,submitButton,45.34115806,-0.188136569,-0.38333334,0,0,0,1,25,85,51,1,67,67528,N,180,2022-02-21_16h28.08.137,orientation adjustment blockN,2021.2.3,Win32,60.24822268,,,,,,,
,,,,,,,,,,,,,,,,,26.11111111,65,20,75,1.111111111,63.88888889,63.88888889,0.385937509,-0.299074137,1,0,0,0.0501,submitButton,45.59876543,-0.126099475,-0.406481488,0,0,0,1,26,86,49,1,65,67528,N,180,2022-02-21_16h28.08.137,orientation adjustment blockN,2021.2.3,Win32,60.24822268,,,,,,,
,,,,,,,,,,,,,,,,,56.11111111,26,20,75,0.111111111,25.88888889,25.88888889,0.409085771,-0.302777784,1,0,0,1.5331,submitButton,45.32876712,-0.186284717,-0.400000007,0,0,0,1,27,87,10,1,26,67528,N,180,2022-02-21_16h28.08.137,orientation adjustment blockN,2021.2.3,Win32,60.24822268,,,,,,,
,,,,,,,,,,,,,,,,,-45.55555556,62,20,75,1.444444444,60.55555556,60.55555556,0.231307879,-0.287963025,1,0,0,0.6318,submitButton,45.53453453,-0.11961805,-0.409259266,0,0,0,1,28,88,46,1,62,67528,N,180,2022-02-21_16h28.08.137,orientation adjustment blockN,2021.2.3,Win32,60.24822268,,,,,,,
,,,,,,,,,,,,,,,,,26.66666667,56,20,75,2.666666667,53.33333333,53.33333333,0.387789361,-0.285185248,1,0,0,2.6329,submitButton,45.63851852,0.313715287,-0.391666673,1,0,0,1,29,89,40,1,56,67528,N,180,2022-02-21_16h28.08.137,orientation adjustment blockN,2021.2.3,Win32,60.24822268,continueButton,,,,,,
,,,,,,,,,,,,,,,,,26.66666667,21,20,75,-0.333333333,21.33333333,21.33333333,0.43593751,-0.293518581,1,0,0,0.7166,submitButton,45.31871345,-0.193692124,-0.417592599,0,0,0,1,30,90,5,1,21,67528,N,180,2022-02-21_16h28.08.137,orientation adjustment blockN,2021.2.3,Win32,60.24822268,,,,,,,
,,,,,,,,,,,,,,,,,23.33333333,24,20,75,-0.666666667,24.66666667,24.66666667,0.391493065,-0.297222228,1,0,0,0.4659,submitButton,45.05050505,-0.177951384,-0.420370377,0,0,0,1,31,91,8,1,24,67528,N,180,2022-02-21_16h28.08.137,orientation adjustment blockN,2021.2.3,Win32,60.24822268,,,,,,,
,,,,,,,,,,,,,,,,,-67.77777778,-27,20,75,-180.7777778,26.22222222,26.22222222,0.189641212,-0.285185248,1,0,0,2.2328,submitButton,44.80911681,-0.186284717,-0.397222229,0,0,0,1,32,92,11,1,27,67528,N,180,2022-02-21_16h28.08.137,orientation adjustment blockN,2021.2.3,Win32,60.24822268,,,,,,,
,,,,,,,,,,,,,,,,,-64.44444444,-55,20,75,-182.4444444,52.55555556,52.55555556,0.360937509,-0.300925932,1,0,0,1.2664,submitButton,44.907173,-0.189988364,-0.411111118,0,0,0,1,33,93,39,1,55,67528,N,180,2022-02-21_16h28.08.137,orientation adjustment blockN,2021.2.3,Win32,60.24822268,,,,,,,
,,,,,,,,,,,,,,,,,-66.66666667,28,20,75,-1.666666667,29.66666667,29.66666667,0.235937508,-0.288888895,1,0,0,0.0496,submitButton,44.71666667,-0.19924768,-0.425925933,0,0,0,1,34,94,12,1,28,67528,N,180,2022-02-21_16h28.08.137,orientation adjustment blockN,2021.2.3,Win32,60.24822268,,,,,,,
,,,,,,,,,,,,,,,,,-20.55555556,74,20,75,-0.555555556,74.55555556,74.55555556,0.388715287,-0.300000006,1,0,0,4.8487,submitButton,45.08504801,-0.155729161,-0.404629693,0,0,0,1,35,95,58,1,74,67528,N,180,2022-02-21_16h28.08.137,orientation adjustment blockN,2021.2.3,Win32,60.24822268,,,,,,,
,,,,,,,,,,,,,,,,,22.77777778,-57,20,75,0.777777778,57.77777778,57.77777778,0.198900471,-0.319444451,1,0,0,11.03,submitButton,45.2398374,-0.164062495,-0.406481488,0,0,0,1,36,96,41,1,57,67528,N,180,2022-02-21_16h28.08.137,orientation adjustment blockN,2021.2.3,Win32,60.24822268,,,,,,,
,,,,,,,,,,,,,,,,,-51.11111111,-29,20,75,-1.111111111,27.88888889,27.88888889,0.139641211,-0.312963026,1,0,0,0.2323,submitButton,45.03078983,-0.17424768,-0.423148155,0,0,0,1,37,97,13,1,29,67528,N,180,2022-02-21_16h28.08.137,orientation adjustment blockN,2021.2.3,Win32,60.24822268,,,,,,,
,,,,,,,,,,,,,,,,,32.22222222,-20,20,75,1.222222222,21.22222222,21.22222222,0.196122693,-0.29444445,1,0,0,0.6332,submitButton,44.7473545,-0.159432808,-0.362963026,0,0,0,1,38,98,4,1,20,67528,N,180,2022-02-21_16h28.08.137,orientation adjustment blockN,2021.2.3,Win32,60.24822268,,,,,,,
,,,,,,,,,,,,,,,,,24.44444444,-34,20,75,-0.555555556,33.44444444,33.44444444,0.189641212,-0.329629692,1,0,0,2.7823,submitButton,44.61437908,-0.103877252,-0.379629693,0,0,0,1,39,99,18,1,34,67528,N,180,2022-02-21_16h28.08.137,orientation adjustment blockN,2021.2.3,Win32,60.24822268,,,,,,,
,,,,,,,,,,,,,,,,,-73.88888889,-52,20,75,-179.8888889,52.11111111,52.11111111,0.405381954,-0.325000006,1,0,0,0.7329,submitButton,44.70155039,-0.102951383,-0.416666673,0,0,0,1,40,100,36,1,52,67528,N,180,2022-02-21_16h28.08.137,orientation adjustment blockN,2021.2.3,Win32,60.24822268,,,,,,,
,,,,,,,,,,,,,,,,,-25,41,20,75,-2,43,43,0.394270843,-0.290740803,1,0,0,0.0664,submitButton,44.68199234,-0.160358791,-0.409259266,0,0,0,1,41,101,25,1,41,67528,N,180,2022-02-21_16h28.08.137,orientation adjustment blockN,2021.2.3,Win32,60.24822268,,,,,,,
,,,,,,,,,,,,,,,,,-42.77777778,-73,20,75,-181.7777778,71.22222222,71.22222222,0.407233806,-0.288888895,1,0,0,1.2331,submitButton,44.98358586,-0.168692124,-0.427777785,0,0,0,1,42,102,57,1,73,67528,N,180,2022-02-21_16h28.08.137,orientation adjustment blockN,2021.2.3,Win32,60.24822268,,,,,,,
,,,,,,,,,,,,,,,,,67.77777778,43,20,75,176.7777778,46.22222222,46.22222222,0.225752436,-0.281481487,1,0,0,1.0162,submitButton,44.99750312,-0.171469902,-0.406481488,0,0,0,1,43,103,27,1,43,67528,N,180,2022-02-21_16h28.08.137,orientation adjustment blockN,2021.2.3,Win32,60.24822268,,,,,,,
,,,,,,,,,,,,,,,,,-31.66666667,-30,20,75,1.333333333,31.33333333,31.33333333,0.184085769,-0.315740803,1,0,0,0.1653,submitButton,44.84567901,0.303530101,-0.384259266,1,0,0,1,44,104,14,1,30,67528,N,180,2022-02-21_16h28.08.137,orientation adjustment blockN,2021.2.3,Win32,60.24822268,continueButton,,,,,,
,,,,,,,,,,,,,,,,,47.77777778,-59,20,75,-1.222222222,57.77777778,57.77777778,0.221122693,-0.317592599,1,0,0,2.287,submitButton,44.98778999,-0.16961805,-0.38333334,0,0,0,1,45,105,43,1,59,67528,N,180,2022-02-21_16h28.08.137,orientation adjustment blockN,2021.2.3,Win32,60.24822268,,,,,,,
,,,,,,,,,,,,,,,,,-56.11111111,45,20,75,-2.111111111,47.11111111,47.11111111,0.235011582,-0.306481487,1,0,0,0.0663,submitButton,45.01086957,-0.145543919,-0.400925933,0,0,0,1,46,106,29,1,45,67528,N,180,2022-02-21_16h28.08.137,orientation adjustment blockN,2021.2.3,Win32,60.24822268,,,,,,,
,,,,,,,,,,,,,,,,,-56.11111111,-70,20,75,-178.1111111,71.88888889,71.88888889,0.385937509,-0.30740747,1,0,0,0.2826,submitButton,45.29988053,0.407233806,-0.325000006,0,0,0,1,47,107,54,1,70,67528,N,180,2022-02-21_16h28.08.137,orientation adjustment blockN,2021.2.3,Win32,60.24822268,,,,,,,
,,,,,,,,,,,,,,,,,-63.33333333,18,20,75,1.666666667,16.33333333,16.33333333,0.221122693,-0.30740747,1,0,0,0.9163,submitButton,44.99172577,-0.109432808,-0.415740804,0,0,0,1,48,108,2,1,18,67528,N,180,2022-02-21_16h28.08.137,orientation adjustment blockN,2021.2.3,Win32,60.24822268,,,,,,,
,,,,,,,,,,,,,,,,,25.55555556,63,20,75,-0.444444444,63.44444444,63.44444444,0.404456028,-0.30370371,1,0,0,0.2823,submitButton,45.18596491,-0.139062494,-0.415740804,0,0,0,1,49,109,47,1,63,67528,N,180,2022-02-21_16h28.08.137,orientation adjustment blockN,2021.2.3,Win32,60.24822268,,,,,,,
,,,,,,,,,,,,,,,,,35.55555556,44,20,75,0.555555556,43.44444444,43.44444444,0.386863435,-0.300925932,1,0,0,1.4827,submitButton,45.16782407,-0.192766199,-0.405555562,0,0,0,1,50,110,28,1,44,67528,N,180,2022-02-21_16h28.08.137,orientation adjustment blockN,2021.2.3,Win32,60.24822268,,,,,,,
,,,,,,,,,,,,,,,,,-58.33333333,-71,20,75,-180.3333333,70.66666667,70.66666667,0.398900473,-0.297222228,1,0,0,0.9497,submitButton,45.43069874,-0.143692124,-0.416666673,0,0,0,1,51,111,55,1,71,67528,N,180,2022-02-21_16h28.08.137,orientation adjustment blockN,2021.2.3,Win32,60.24822268,,,,,,,
,,,,,,,,,,,,,,,,,-68.33333333,-61,20,75,-181.3333333,59.66666667,59.66666667,0.407233806,-0.300000006,1,0,0,2.2992,submitButton,45.57596372,-0.20387731,-0.385185248,0,0,0,1,52,112,45,1,61,67528,N,180,2022-02-21_16h28.08.137,orientation adjustment blockN,2021.2.3,Win32,60.24822268,,,,,,,
,,,,,,,,,,,,,,,,,-39.44444444,-50,20,75,1.555555556,51.55555556,51.55555556,0.210011582,-0.305555562,1,0,0,0.4822,submitButton,45.63636364,-0.183506939,-0.390740804,0,0,0,1,53,113,34,1,50,67528,N,180,2022-02-21_16h28.08.137,orientation adjustment blockN,2021.2.3,Win32,60.24822268,,,,,,,
,,,,,,,,,,,,,,,,,-41.66666667,46,20,75,-2.666666667,48.66666667,48.66666667,0.374826398,-0.284259265,1,0,0,0.0835,submitButton,45.66666667,-0.165914346,-0.376851915,0,0,0,1,54,114,30,1,46,67528,N,180,2022-02-21_16h28.08.137,orientation adjustment blockN,2021.2.3,Win32,60.24822268,,,,,,,
,,,,,,,,,,,,,,,,,-67.77777778,-32,20,75,-183.7777778,28.22222222,28.22222222,0.395196769,-0.289814821,1,0,0,1.3328,submitButton,45.49394939,-0.219618051,-0.40833334,0,0,0,1,55,115,16,1,32,67528,N,180,2022-02-21_16h28.08.137,orientation adjustment blockN,2021.2.3,Win32,60.24822268,,,,,,,
,,,,,,,,,,,,,,,,,26.11111111,-40,20,75,0.111111111,40.11111111,40.11111111,0.195196767,-0.277777784,1,0,0,0.0495,submitButton,45.44117647,0.013715285,-0.314814821,0,0,0,1,56,116,24,1,40,67528,N,180,2022-02-21_16h28.08.137,orientation adjustment blockN,2021.2.3,Win32,60.24822268,,,,,,,
,,,,,,,,,,,,,,,,,-22.22222222,-19,20,75,-0.222222222,18.77777778,18.77777778,-0.11035879,-0.343518581,1,0,0,1.4329,submitButton,45.18230852,-0.195543976,-0.410185248,0,0,0,1,57,117,3,1,19,67528,N,180,2022-02-21_16h28.08.137,orientation adjustment blockN,2021.2.3,Win32,60.24822268,,,,,,,
,,,,,,,,,,,,,,,,,-67.22222222,38,20,75,-0.222222222,38.22222222,38.22222222,0.189641212,-0.316666673,1,0,0,0.6664,submitButton,45.11538462,-0.179803235,-0.395370377,0,0,0,1,58,118,22,1,38,67528,N,180,2022-02-21_16h28.08.137,orientation adjustment blockN,2021.2.3,Win32,60.24822268,,,,,,,
,,,,,,,,,,,,,,,,,-73.88888889,-60,20,75,-180.8888889,59.11111111,59.11111111,0.422974547,-0.300000006,1,0,0,0.7164,submitButton,45.24867725,0.267419103,-0.386111118,1,0,0,1,59,119,44,1,60,67528,N,180,2022-02-21_16h28.08.137,orientation adjustment blockN,2021.2.3,Win32,60.24822268,continueButton,,,,,,
,,,,,,,,,,,,,,,,,36.11111111,-47,20,75,-1.888888889,45.11111111,45.11111111,0.233159731,-0.30370371,1,0,0,0.0835,submitButton,45.24737945,-0.239062495,-0.412963026,0,0,0,2,0,120,31,1,47,67528,N,180,2022-02-21_16h28.08.137,orientation adjustment blockN,2021.2.3,Win32,60.24822268,,,,,,,
,,,,,,,,,,,,,,,,,62.22222222,-68,20,75,-0.777777778,67.22222222,67.22222222,0.197048619,-0.29444445,1,0,0,0.0495,submitButton,45.45275182,-0.216840273,-0.416666673,0,0,0,2,1,121,52,1,68,67528,N,180,2022-02-21_16h28.08.137,orientation adjustment blockN,2021.2.3,Win32,60.24822268,,,,,,,
,,,,,,,,,,,,,,,,,-42.22222222,50,20,75,0.777777778,49.22222222,49.22222222,0.40167825,-0.295370376,1,0,0,0.1362,submitButton,45.48765432,-0.186284717,-0.407407471,0,0,0,2,2,122,34,1,50,67528,N,180,2022-02-21_16h28.08.137,orientation adjustment blockN,2021.2.3,Win32,60.24822268,,,,,,,
,,,,,,,,,,,,,,,,,-49.44444444,55,20,75,-2.444444444,57.44444444,57.44444444,0.407233806,-0.322222228,1,0,0,0.0832,submitButton,45.59734964,-0.141840272,-0.397222229,0,0,0,2,3,123,39,1,55,67528,N,180,2022-02-21_16h28.08.137,orientation adjustment blockN,2021.2.3,Win32,60.24822268,,,,,,,
,,,,,,,,,,,,,,,,,-65,75,20,75,0,75,75,0.410011584,-0.300000006,1,0,0,0.1334,submitButton,45.86464646,-0.142766142,-0.387037044,0,0,0,2,4,124,59,1,75,67528,N,180,2022-02-21_16h28.08.137,orientation adjustment blockN,2021.2.3,Win32,60.24822268,,,,,,,
,,,,,,,,,,,,,,,,,53.33333333,48,20,75,180.3333333,47.66666667,47.66666667,0.194270841,-0.292592598,1,0,0,0.8665,submitButton,45.88088088,-0.204803236,-0.40833334,0,0,0,2,5,125,32,1,48,67528,N,180,2022-02-21_16h28.08.137,orientation adjustment blockN,2021.2.3,Win32,60.24822268,,,,,,,
,,,,,,,,,,,,,,,,,33.88888889,38,20,75,-1.111111111,39.11111111,39.11111111,0.40630788,-0.315740803,1,0,0,0.0834,submitButton,45.82043651,0.193344915,-0.147222227,0,0,0,2,6,126,22,1,38,67528,N,180,2022-02-21_16h28.08.137,orientation adjustment blockN,2021.2.3,Win32,60.24822268,,,,,,,
,,,,,,,,,,,,,,,,,-38.33333333,-32,20,75,-1.333333333,30.66666667,30.66666667,0.181307878,-0.30740747,1,0,0,0.6662,submitButton,45.68633235,-0.128877253,-0.425925933,0,0,0,2,7,127,16,1,32,67528,N,180,2022-02-21_16h28.08.137,orientation adjustment blockN,2021.2.3,Win32,60.24822268,,,,,,,
,,,,,,,,,,,,,,,,,34.44444444,67,20,75,178.4444444,68.55555556,68.55555556,0.205381953,-0.312037043,1,0,0,0.3169,submitButton,45.88693957,-0.132581013,-0.412037044,0,0,0,2,8,128,51,1,67,67528,N,180,2022-02-21_16h28.08.137,orientation adjustment blockN,2021.2.3,Win32,60.24822268,,,,,,,
,,,,,,,,,,,,,,,,,-57.77777778,-63,20,75,-180.7777778,62.22222222,62.22222222,0.370196769,-0.29444445,1,0,0,2.316,submitButton,46.02898551,-0.284432866,-0.401851915,0,0,0,2,9,129,47,1,63,67528,N,180,2022-02-21_16h28.08.137,orientation adjustment blockN,2021.2.3,Win32,60.24822268,,,,,,,
,,,,,,,,,,,,,,,,,49.44444444,-30,20,75,3.444444444,33.44444444,33.44444444,0.41093751,-0.298148154,1,0,0,3.9828,submitButton,45.92049808,-0.177025458,-0.411111118,0,0,0,2,10,130,14,1,30,67528,N,180,2022-02-21_16h28.08.137,orientation adjustment blockN,2021.2.3,Win32,60.24822268,,,,,,,
,,,,,,,,,,,,,,,,,-21.66666667,62,20,75,1.333333333,60.66666667,60.66666667,0.407233806,-0.322222228,1,0,0,4.5652,submitButton,46.04653371,-0.165914346,-0.412963026,0,0,0,2,11,131,46,1,62,67528,N,180,2022-02-21_16h28.08.137,orientation adjustment blockN,2021.2.3,Win32,60.24822268,,,,,,,
,,,,,,,,,,,,,,,,,-23.33333333,-24,20,75,2.666666667,26.66666667,26.66666667,0.223900471,-0.30740747,1,0,0,0.9329,submitButton,45.88229755,-0.214062495,-0.404629693,0,0,0,2,12,132,8,1,24,67528,N,180,2022-02-21_16h28.08.137,orientation adjustment blockN,2021.2.3,Win32,60.24822268,,,,,,,
,,,,,,,,,,,,,,,,,-50,60,20,75,1,59,59,0.380381954,-0.277777784,1,0,0,3.8994,submitButton,45.99253035,0.377604176,-0.279629692,0,0,0,2,13,133,44,1,60,67528,N,180,2022-02-21_16h28.08.137,orientation adjustment blockN,2021.2.3,Win32,60.24822268,,,,,,,
,,,,,,,,,,,,,,,,,28.33333333,-39,20,75,0.333333333,39.33333333,39.33333333,0.419270843,-0.296296359,1,0,0,0.4998,submitButton,45.93703704,0.279456027,-0.407407471,1,0,0,2,14,134,23,1,39,67528,N,180,2022-02-21_16h28.08.137,orientation adjustment blockN,2021.2.3,Win32,60.24822268,continueButton,,,,,,
,,,,,,,,,,,,,,,,,25,20,20,75,0,20,20,0.367419104,-0.30370371,1,0,0,0.7124,submitButton,45.72268136,-0.127025457,-0.394444451,0,0,0,2,15,135,4,1,20,67528,N,180,2022-02-21_16h28.08.137,orientation adjustment blockN,2021.2.3,Win32,60.24822268,,,,,,,
,,,,,,,,,,,,,,,,,44.44444444,-69,20,75,-2.555555556,66.44444444,66.44444444,0.214641212,-0.283333339,1,0,0,0.8326,submitButton,45.89253188,-0.245543977,-0.411111118,0,0,0,2,16,136,53,1,69,67528,N,180,2022-02-21_16h28.08.137,orientation adjustment blockN,2021.2.3,Win32,60.24822268,,,,,,,
,,,,,,,,,,,,,,,,,49.44444444,-49,20,75,0.444444444,49.44444444,49.44444444,-0.209432865,-0.370370377,1,0,0,0.6996,submitButton,45.92140921,-0.216840273,-0.394444451,0,0,0,2,17,137,33,1,49,67528,N,180,2022-02-21_16h28.08.137,orientation adjustment blockN,2021.2.3,Win32,60.24822268,,,,,,,
,,,,,,,,,,,,,,,,,-21.66666667,26,20,75,0.333333333,25.66666667,25.66666667,0.382233806,-0.29444445,1,0,0,0.15,submitButton,45.75806452,-0.172395828,-0.402777785,0,0,0,2,18,138,10,1,26,67528,N,180,2022-02-21_16h28.08.137,orientation adjustment blockN,2021.2.3,Win32,60.24822268,,,,,,,
,,,,,,,,,,,,,,,,,-32.22222222,71,20,75,-1.222222222,72.22222222,72.22222222,0.404456028,-0.281481487,1,0,0,0.7159,submitButton,45.96977778,-0.140914346,-0.391666673,0,0,0,2,19,139,55,1,71,67528,N,180,2022-02-21_16h28.08.137,orientation adjustment blockN,2021.2.3,Win32,60.24822268,,,,,,,
,,,,,,,,,,,,,,,,,63.33333333,51,20,75,180.3333333,50.66666667,50.66666667,0.226678249,-0.295370376,1,0,0,7.7679,submitButton,46.00705467,-0.289988365,-0.397222229,0,0,0,2,20,140,35,1,51,67528,N,180,2022-02-21_16h28.08.137,orientation adjustment blockN,2021.2.3,Win32,60.24822268,,,,,,,
,,,,,,,,,,,,,,,,,48.88888889,-53,20,75,0.888888889,53.88888889,53.88888889,0.201678249,-0.319444451,1,0,0,3.9163,submitButton,46.06911636,-0.202025458,-0.416666673,0,0,0,2,21,141,37,1,53,67528,N,180,2022-02-21_16h28.08.137,orientation adjustment blockN,2021.2.3,Win32,60.24822268,,,,,,,
,,,,,,,,,,,,,,,,,-27.22222222,35,20,75,-0.222222222,35.22222222,35.22222222,0.397974547,-0.312963026,1,0,0,0.0996,submitButton,45.984375,-0.116840272,-0.391666673,0,0,0,2,22,142,19,1,35,67528,N,180,2022-02-21_16h28.08.137,orientation adjustment blockN,2021.2.3,Win32,60.24822268,,,,,,,
,,,,,,,,,,,,,,,,,-35.55555556,65,20,75,-0.555555556,65.55555556,65.55555556,0.211863434,-0.309259265,1,0,0,0.899,submitButton,46.13608958,-0.16961805,-0.397222229,0,0,0,2,23,143,49,1,65,67528,N,180,2022-02-21_16h28.08.137,orientation adjustment blockN,2021.2.3,Win32,60.24822268,,,,,,,
,,,,,,,,,,,,,,,,,-30,-17,20,75,-2,15,15,0.226678249,-0.299074137,1,0,0,0.4665,submitButton,45.8965812,-0.175173606,-0.406481488,0,0,0,2,24,144,1,1,17,67528,N,180,2022-02-21_16h28.08.137,orientation adjustment blockN,2021.2.3,Win32,60.24822268,,,,,,,
,,,,,,,,,,,,,,,,,50,41,20,75,179,42,42,0.185937508,-0.30370371,1,0,0,1.649,submitButton,45.8668363,-0.152025457,-0.395370377,0,0,0,2,25,145,25,1,41,67528,N,180,2022-02-21_16h28.08.137,orientation adjustment blockN,2021.2.3,Win32,60.24822268,,,,,,,
,,,,,,,,,,,,,,,,,-27.22222222,19,20,75,1.777777778,17.22222222,17.22222222,0.206307879,-0.298148154,1,0,0,0.033,submitButton,45.64983165,-0.299247681,-0.401851915,0,0,0,2,26,146,3,1,19,67528,N,180,2022-02-21_16h28.08.137,orientation adjustment blockN,2021.2.3,Win32,60.24822268,,,,,,,
,,,,,,,,,,,,,,,,,-46.11111111,-56,20,75,-183.1111111,52.88888889,52.88888889,0.400752437,-0.29444445,1,0,0,0.5664,submitButton,45.70426065,-0.184432865,-0.400925933,0,0,0,2,27,147,40,1,56,67528,N,180,2022-02-21_16h28.08.137,orientation adjustment blockN,2021.2.3,Win32,60.24822268,,,,,,,
,,,,,,,,,,,,,,,,,-41.11111111,74,20,75,-1.111111111,75.11111111,75.11111111,0.385937509,-0.304629692,1,0,0,0.0168,submitButton,45.92371476,0.20815973,-0.213888894,0,0,0,2,28,148,58,1,74,67528,N,180,2022-02-21_16h28.08.137,orientation adjustment blockN,2021.2.3,Win32,60.24822268,,,,,,,
,,,,,,,,,,,,,,,,,-30.55555556,59,20,75,-0.555555556,59.55555556,59.55555556,-0.212210643,-0.412963026,1,0,0,0.9519,submitButton,46.02469136,-0.212210643,-0.412963026,0,0,0,2,29,149,43,1,59,67528,N,180,2022-02-21_16h28.08.137,orientation adjustment blockN,2021.2.3,Win32,60.24822268,,,,,,,
,,,,,,,,,,,,,,,,,-57.22222222,27,20,75,0.777777778,26.22222222,26.22222222,0.209085769,-0.289814821,1,0,0,1.0826,submitButton,45.87908497,-0.175173606,-0.366666673,0,0,0,2,30,150,11,1,27,67528,N,180,2022-02-21_16h28.08.137,orientation adjustment blockN,2021.2.3,Win32,60.24822268,,,,,,,
,,,,,,,,,,,,,,,,,55.55555556,73,20,75,174.5555556,78.44444444,78.44444444,0.219270842,-0.286111117,1,0,0,0.8997,submitButton,46.11678832,0.21278936,-0.225925931,0,0,0,2,31,151,57,1,73,67528,N,180,2022-02-21_16h28.08.137,orientation adjustment blockN,2021.2.3,Win32,60.24822268,,,,,,,
,,,,,,,,,,,,,,,,,-45.55555556,28,20,75,-1.555555556,29.55555556,29.55555556,-0.177025458,-0.429629693,1,0,0,0.8666,submitButton,45.99677939,-0.179803235,-0.422222229,0,0,0,2,32,152,12,1,28,67528,N,180,2022-02-21_16h28.08.137,orientation adjustment blockN,2021.2.3,Win32,60.24822268,,,,,,,
,,,,,,,,,,,,,,,,,-74.44444444,-61,20,75,-180.4444444,60.55555556,60.55555556,0.392419104,-0.301851914,1,0,0,1.2167,submitButton,46.10151878,0.243344916,-0.232407469,0,0,0,2,33,153,45,1,61,67528,N,180,2022-02-21_16h28.08.137,orientation adjustment blockN,2021.2.3,Win32,60.24822268,,,,,,,
,,,,,,,,,,,,,,,,,35,36,20,75,-1,37,37,0.398900473,-0.302777784,1,0,0,0.1328,submitButton,46.03650794,-0.156655031,-0.40370371,0,0,0,2,34,154,20,1,36,67528,N,180,2022-02-21_16h28.08.137,orientation adjustment blockN,2021.2.3,Win32,60.24822268,,,,,,,
,,,,,,,,,,,,,,,,,53.88888889,57,20,75,181.8888889,55.11111111,55.11111111,0.195196767,-0.273148154,1,0,0,1.2505,submitButton,46.10086682,-0.17887731,-0.394444451,0,0,0,2,35,155,41,1,57,67528,N,180,2022-02-21_16h28.08.137,orientation adjustment blockN,2021.2.3,Win32,60.24822268,,,,,,,
,,,,,,,,,,,,,,,,,50.55555556,23,20,75,0.555555556,22.44444444,22.44444444,0.379456028,-0.289814821,1,0,0,1.3828,submitButton,45.9342723,-0.14924768,-0.404629693,0,0,0,2,36,156,7,1,23,67528,N,180,2022-02-21_16h28.08.137,orientation adjustment blockN,2021.2.3,Win32,60.24822268,,,,,,,
,,,,,,,,,,,,,,,,,56.66666667,-46,20,75,-1.333333333,44.66666667,44.66666667,0.394270843,-0.310185248,1,0,0,0.0166,submitButton,45.92540793,-0.232581014,-0.416666673,0,0,0,2,37,157,30,1,46,67528,N,180,2022-02-21_16h28.08.137,orientation adjustment blockN,2021.2.3,Win32,60.24822268,,,,,,,
,,,,,,,,,,,,,,,,,30,64,20,75,181,63,63,0.18315973,-0.298148154,1,0,0,0.4169,submitButton,46.04398148,-0.197395828,-0.406481488,0,0,0,2,38,158,48,1,64,67528,N,180,2022-02-21_16h28.08.137,orientation adjustment blockN,2021.2.3,Win32,60.24822268,,,,,,,
,,,,,,,,,,,,,,,,,-29.44444444,58,20,75,-1.444444444,59.44444444,59.44444444,0.389641213,-0.300925932,1,0,0,0.4165,submitButton,46.13639847,-0.216840273,-0.398148155,0,0,0,2,39,159,42,1,58,67528,N,180,2022-02-21_16h28.08.137,orientation adjustment blockN,2021.2.3,Win32,60.24822268,,,,,,,
,,,,,,,,,,,,,,,,,50,42,20,75,181,41,41,0.213715286,-0.297222228,1,0,0,0.5658,submitButton,46.10121766,-0.127951383,-0.404629693,0,0,0,2,40,160,26,1,42,67528,N,180,2022-02-21_16h28.08.137,orientation adjustment blockN,2021.2.3,Win32,60.24822268,,,,,,,
,,,,,,,,,,,,,,,,,-27.22222222,52,20,75,2.777777778,49.22222222,49.22222222,-0.221469902,-0.395370377,1,0,0,0.8505,submitButton,46.12244898,-0.221469902,-0.395370377,0,0,0,2,41,161,36,1,52,67528,N,180,2022-02-21_16h28.08.137,orientation adjustment blockN,2021.2.3,Win32,60.24822268,,,,,,,
,,,,,,,,,,,,,,,,,-70.55555556,-29,20,75,-178.5555556,30.44444444,30.44444444,0.412789362,-0.298148154,1,0,0,2.1158,submitButton,46.01651652,-0.236284717,-0.414814822,0,0,0,2,42,162,13,1,29,67528,N,180,2022-02-21_16h28.08.137,orientation adjustment blockN,2021.2.3,Win32,60.24822268,,,,,,,
,,,,,,,,,,,,,,,,,-47.22222222,-70,20,75,-180.2222222,69.77777778,69.77777778,0.397048621,-0.291666673,1,0,0,0.2002,submitButton,46.17598807,-0.145543919,-0.395370377,0,0,0,2,43,163,54,1,70,67528,N,180,2022-02-21_16h28.08.137,orientation adjustment blockN,2021.2.3,Win32,60.24822268,,,,,,,
,,,,,,,,,,,,,,,,,-74.44444444,66,20,75,1.555555556,64.44444444,64.44444444,0.416493065,-0.284259265,1,0,0,0.9164,submitButton,46.29777778,-0.242766199,-0.38240747,0,0,0,2,44,164,50,1,66,67528,N,180,2022-02-21_16h28.08.137,orientation adjustment blockN,2021.2.3,Win32,60.24822268,,,,,,,
,,,,,,,,,,,,,,,,,30,-33,20,75,0,33,33,-0.201099532,-0.412037044,1,0,0,0.8827,submitButton,46.20971302,-0.201099532,-0.412037044,0,0,0,2,45,165,17,1,33,67528,N,180,2022-02-21_16h28.08.137,orientation adjustment blockN,2021.2.3,Win32,60.24822268,,,,,,,
,,,,,,,,,,,,,,,,,72.77777778,-34,20,75,-1.222222222,32.77777778,32.77777778,0.220196768,-0.305555562,1,0,0,1.183,submitButton,46.12134503,-0.191840273,-0.395370377,0,0,0,2,46,166,18,1,34,67528,N,180,2022-02-21_16h28.08.137,orientation adjustment blockN,2021.2.3,Win32,60.24822268,,,,,,,
,,,,,,,,,,,,,,,,,-24.44444444,-40,20,75,-3.444444444,36.55555556,36.55555556,0.215567138,-0.290740803,1,0,0,0.1318,submitButton,46.05882353,-0.14461805,-0.413888896,0,0,0,2,47,167,24,1,40,67528,N,180,2022-02-21_16h28.08.137,orientation adjustment blockN,2021.2.3,Win32,60.24822268,,,,,,,
,,,,,,,,,,,,,,,,,-50.55555556,37,20,75,-0.555555556,37.55555556,37.55555556,-0.182581013,-0.40370371,1,0,0,1.0333,submitButton,46.0036075,-0.182581013,-0.40370371,0,0,0,2,48,168,21,1,37,67528,N,180,2022-02-21_16h28.08.137,orientation adjustment blockN,2021.2.3,Win32,60.24822268,,,,,,,
,,,,,,,,,,,,,,,,,-63.88888889,-31,20,75,-181.8888889,29.11111111,29.11111111,0.181307878,-0.30740747,1,0,0,1.9827,submitButton,45.89462366,-0.036284716,-0.152777783,0,0,0,2,49,169,15,1,31,67528,N,180,2022-02-21_16h28.08.137,orientation adjustment blockN,2021.2.3,Win32,60.24822268,,,,,,,
,,,,,,,,,,,,,,,,,75,18,20,75,181,17,17,0.168344915,-0.312963026,1,0,0,2.4657,submitButton,45.70940171,-0.137210586,-0.404629693,0,0,0,2,50,170,2,1,18,67528,N,180,2022-02-21_16h28.08.137,orientation adjustment blockN,2021.2.3,Win32,60.24822268,,,,,,,
,,,,,,,,,,,,,,,,,42.77777778,-21,20,75,0.777777778,21.77777778,21.77777778,-0.172395828,-0.390740804,1,0,0,1.1333,submitButton,45.55697098,-0.172395828,-0.390740804,0,0,0,2,51,171,5,1,21,67528,N,180,2022-02-21_16h28.08.137,orientation adjustment blockN,2021.2.3,Win32,60.24822268,,,,,,,
,,,,,,,,,,,,,,,,,64.44444444,-43,20,75,2.444444444,45.44444444,45.44444444,0.372974546,-0.292592598,1,0,0,0.0172,submitButton,45.55625879,-0.164062495,-0.407407471,0,0,0,2,52,172,27,1,43,67528,N,180,2022-02-21_16h28.08.137,orientation adjustment blockN,2021.2.3,Win32,60.24822268,,,,,,,
,,,,,,,,,,,,,,,,,46.66666667,-25,20,75,3.666666667,28.66666667,28.66666667,-0.158506939,-0.400925933,1,0,0,1.0994,submitButton,45.45003494,-0.158506939,-0.400925933,0,0,0,2,53,173,9,1,25,67528,N,180,2022-02-21_16h28.08.137,orientation adjustment blockN,2021.2.3,Win32,60.24822268,,,,,,,
,,,,,,,,,,,,,,,,,25.55555556,-72,20,75,0.555555556,72.55555556,72.55555556,0.197974545,-0.29444445,1,0,0,0.9992,submitButton,45.61944444,-0.127951383,-0.411111118,0,0,0,2,54,174,56,1,72,67528,N,180,2022-02-21_16h28.08.137,orientation adjustment blockN,2021.2.3,Win32,60.24822268,,,,,,,
,,,,,,,,,,,,,,,,,29.44444444,-54,20,75,0.444444444,54.44444444,54.44444444,0.165567137,-0.27870371,1,0,0,0.1496,submitButton,45.67425811,-0.209432865,-0.411111118,0,0,0,2,55,175,38,1,54,67528,N,180,2022-02-21_16h28.08.137,orientation adjustment blockN,2021.2.3,Win32,60.24822268,,,,,,,
,,,,,,,,,,,,,,,,,-36.11111111,-22,20,75,0.888888889,22.88888889,22.88888889,0.202604175,-0.30740747,1,0,0,1.1495,submitButton,45.53360768,-0.126099475,-0.393518582,0,0,0,2,56,176,6,1,22,67528,N,180,2022-02-21_16h28.08.137,orientation adjustment blockN,2021.2.3,Win32,60.24822268,,,,,,,
,,,,,,,,,,,,,,,,,-31.66666667,-45,20,75,3.333333333,48.33333333,48.33333333,0.23408577,-0.290740803,1,0,0,0.1484,submitButton,45.55078391,-0.156655031,-0.398148155,0,0,0,2,57,177,29,1,45,67528,N,180,2022-02-21_16h28.08.137,orientation adjustment blockN,2021.2.3,Win32,60.24822268,,,,,,,
,,,,,,,,,,,,,,,,,39.44444444,16,20,75,0.444444444,15.55555556,15.55555556,0.411863436,-0.315740803,1,0,0,0.1493,submitButton,45.36788618,-0.156655031,-0.423148155,0,0,0,2,58,178,0,1,16,67528,N,180,2022-02-21_16h28.08.137,orientation adjustment blockN,2021.2.3,Win32,60.24822268,,,,,,,
,,,,,,,,,,,,,,,,,74.44444444,44,20,75,183.4444444,40.55555556,40.55555556,-0.153877253,-0.406481488,1,0,0,1.6954,submitButton,45.33872054,-0.153877253,-0.406481488,0,0,0,2,59,179,28,1,44,67528,N,180,2022-02-21_16h28.08.137,orientation adjustment blockN,2021.2.3,Win32,60.24822268,,,,,,,
,,,,,,,,,,,,,,,,,,,,,,,,,,,,,,,,,,,,,,,,,,,67528,N,180,2022-02-21_16h28.08.137,orientation adjustment blockN,2021.2.3,Win32,60.24822268,,0.29704862,-0.42129636,1,0,0,EndButtonTxt
