consentMouse1.x,consentMouse1.y,consentMouse1.leftButton,consentMouse1.midButton,consentMouse1.rightButton,consentMouse1.clicked_name,consent_Mouse.x,consent_Mouse.y,consent_Mouse.leftButton,consent_Mouse.midButton,consent_Mouse.rightButton,consent_Mouse.clicked_name,startMouse.x,startMouse.y,startMouse.leftButton,startMouse.midButton,startMouse.rightButton,start_distance,fixedOri,minimalDistance,maxOri,this_ori,accuracy,presented_accuracy,submitMouse.x,submitMouse.y,submitMouse.leftButton,submitMouse.midButton,submitMouse.rightButton,submitMouse.time,submitMouse.clicked_name,block_accuracy,continueMouse.x,continueMouse.y,continueMouse.leftButton,continueMouse.midButton,continueMouse.rightButton,trials.thisRepN,trials.thisTrialN,trials.thisN,trials.thisIndex,trials.ran,startOri,participant,condition,nTrials,date,expName,psychopyVersion,OS,frameRate,continueMouse.clicked_name,EndButtonMouse.x,EndButtonMouse.y,EndButtonMouse.leftButton,EndButtonMouse.midButton,EndButtonMouse.rightButton,EndButtonMouse.clicked_name
0.363203396,-0.391920437,1,0,0,consent_button1,0.378608941,-0.405550741,1,0,0,consent_button,-0.071103923,0.042663405,1,0,0,66.11111111,-25,20,75,35.11111111,60.11111111,60.11111111,0.408978136,-0.290765923,1,0,0,5.3317,submitButton,60.11111111,-0.201379734,-0.414189182,0,0,0,0,0,0,9,1,25,69034,N,180,2022-02-16_12h20.00.546,orientation adjustment blockN,2021.2.3,MacIntel,60.0024001,,,,,,,
,,,,,,,,,,,,,,,,,-69.44444444,57,20,75,116.5555556,59.55555556,59.55555556,0.202187907,-0.314176636,1,0,0,2.5844,submitButton,59.83333333,-0.127407023,-0.416749403,0,0,0,0,1,1,41,1,57,69034,N,180,2022-02-16_12h20.00.546,orientation adjustment blockN,2021.2.3,MacIntel,60.0024001,,,,,,,
,,,,,,,,,,,,,,,,,-24.44444444,-24,20,75,-41.44444444,17.44444444,17.44444444,0.198441705,-0.305735406,1,0,0,3.6002,submitButton,45.7037037,-0.162543335,-0.410834486,0,0,0,0,2,2,8,1,24,69034,N,180,2022-02-16_12h20.00.546,orientation adjustment blockN,2021.2.3,MacIntel,60.0024001,,,,,,,
,,,,,,,,,,,,,,,,,71.66666667,28,20,75,107.6666667,79.66666667,79.66666667,0.172672933,-0.293466187,1,0,0,1.8666,submitButton,79.66666667,-0.297764893,-0.412906765,0,0,0,0,3,3,12,1,28,69034,N,180,2022-02-16_12h20.00.546,orientation adjustment blockN,2021.2.3,MacIntel,60.0024001,,,,,,,
,,,,,,,,,,,,,,,,,-29.44444444,-17,20,75,0.555555556,17.55555556,17.55555556,0.180405816,-0.314498359,1,0,0,0.2664,submitButton,48.61111111,-0.2318868,-0.437335883,0,0,0,0,4,4,1,1,17,69034,N,180,2022-02-16_12h20.00.546,orientation adjustment blockN,2021.2.3,MacIntel,60.0024001,,,,,,,
,,,,,,,,,,,,,,,,,-60,26,20,75,1,25,25,0.16074924,-0.319862128,1,0,0,0.0495,submitButton,40.74074074,-0.385517239,-0.410973104,0,0,0,0,5,5,10,1,26,69034,N,180,2022-02-16_12h20.00.546,orientation adjustment blockN,2021.2.3,MacIntel,60.0024001,,,,,,,
,,,,,,,,,,,,,,,,,-64.44444444,52,20,75,-2.444444444,54.44444444,54.44444444,0.165211724,-0.301836005,1,0,0,0.6115,submitButton,54.44444444,-0.13791782,-0.401584405,0,0,0,0,6,6,36,1,52,69034,N,180,2022-02-16_12h20.00.546,orientation adjustment blockN,2021.2.3,MacIntel,60.0024001,,,,,,,
,,,,,,,,,,,,,,,,,-44.44444444,-69,20,75,-0.444444444,68.55555556,68.55555556,0.186393772,-0.318802694,1,0,0,0.2656,submitButton,61.5,-0.147032742,-0.418162977,0,0,0,0,7,7,53,1,69,69034,N,180,2022-02-16_12h20.00.546,orientation adjustment blockN,2021.2.3,MacIntel,60.0024001,,,,,,,
,,,,,,,,,,,,,,,,,38.33333333,-40,20,75,-3.666666667,36.33333333,36.33333333,0.37693929,-0.30108724,1,0,0,0.4675,submitButton,53.11111111,-0.243364597,-0.425909831,0,0,0,0,8,8,24,1,40,69034,N,180,2022-02-16_12h20.00.546,orientation adjustment blockN,2021.2.3,MacIntel,60.0024001,,,,,,,
,,,,,,,,,,,,,,,,,-55,-19,20,75,2,21,21,0.202061768,-0.297616102,1,0,0,0.1347,submitButton,21,-0.2783353,-0.403370836,0,0,0,0,9,9,3,1,19,69034,N,180,2022-02-16_12h20.00.546,orientation adjustment blockN,2021.2.3,MacIntel,60.0024001,,,,,,,
,,,,,,,,,,,,,,,,,-41.11111111,22,20,75,1.888888889,20.11111111,20.11111111,0.228211941,-0.314187283,1,0,0,0.2161,submitButton,20.55555556,-0.259250217,-0.399765015,0,0,0,0,10,10,6,1,22,69034,N,180,2022-02-16_12h20.00.546,orientation adjustment blockN,2021.2.3,MacIntel,60.0024001,,,,,,,
,,,,,,,,,,,,,,,,,28.33333333,-71,20,75,4.333333333,75.33333333,75.33333333,0.18860555,-0.290491672,1,0,0,0.0676,submitButton,38.81481481,-0.233890449,-0.411904636,0,0,0,0,11,11,55,1,71,69034,N,180,2022-02-16_12h20.00.546,orientation adjustment blockN,2021.2.3,MacIntel,60.0024001,,,,,,,
,,,,,,,,,,,,,,,,,61.11111111,44,20,75,-0.888888889,44.88888889,44.88888889,0.393081055,-0.286483629,1,0,0,1.4821,submitButton,44.88888889,-0.146232775,-0.401437174,0,0,0,0,12,12,28,1,44,69034,N,180,2022-02-16_12h20.00.546,orientation adjustment blockN,2021.2.3,MacIntel,60.0024001,,,,,,,
,,,,,,,,,,,,,,,,,53.33333333,-45,20,75,182.3333333,47.33333333,47.33333333,0.231820407,-0.315398831,1,0,0,2.1337,submitButton,46.11111111,-0.233909505,-0.390303073,0,0,0,0,13,13,29,1,45,69034,N,180,2022-02-16_12h20.00.546,orientation adjustment blockN,2021.2.3,MacIntel,60.0024001,,,,,,,
,,,,,,,,,,,,,,,,,71.11111111,-23,20,75,179.1111111,22.11111111,22.11111111,0.225054728,-0.311224297,1,0,0,1.8011,submitButton,38.11111111,0.426252713,-0.415386217,1,0,0,0,14,14,7,1,23,69034,N,180,2022-02-16_12h20.00.546,orientation adjustment blockN,2021.2.3,MacIntel,60.0024001,continueButton,,,,,,
,,,,,,,,,,,,,,,,,63.88888889,-50,20,75,-0.111111111,49.88888889,49.88888889,0.433950602,-0.318508165,1,0,0,0.2995,submitButton,49.88888889,-0.15680976,-0.412383084,0,0,0,0,15,15,34,1,50,69034,N,180,2022-02-16_12h20.00.546,orientation adjustment blockN,2021.2.3,MacIntel,60.0024001,,,,,,,
,,,,,,,,,,,,,,,,,-31.11111111,-70,20,75,-181.1111111,68.88888889,68.88888889,-0.186769748,-0.411382378,1,0,0,1.8997,submitButton,59.38888889,0.082295058,-0.38495341,0,0,0,0,16,16,54,1,70,69034,N,180,2022-02-16_12h20.00.546,orientation adjustment blockN,2021.2.3,MacIntel,60.0024001,,,,,,,
,,,,,,,,,,,,,,,,,-32.77777778,20,20,75,2.222222222,17.77777778,17.77777778,0.221533067,-0.304757351,1,0,0,0.0987,submitButton,45.51851852,-0.217524414,-0.392838609,0,0,0,0,17,17,4,1,20,69034,N,180,2022-02-16_12h20.00.546,orientation adjustment blockN,2021.2.3,MacIntel,60.0024001,,,,,,,
,,,,,,,,,,,,,,,,,25.55555556,-35,20,75,-181.4444444,33.55555556,33.55555556,0.411710205,-0.32597819,1,0,0,2.1988,submitButton,42.52777778,0.30973504,-0.335534465,0,0,0,0,18,18,19,1,35,69034,N,180,2022-02-16_12h20.00.546,orientation adjustment blockN,2021.2.3,MacIntel,60.0024001,,,,,,,
,,,,,,,,,,,,,,,,,-51.11111111,56,20,75,1.888888889,54.11111111,54.11111111,0.201193983,-0.294126994,1,0,0,0.1994,submitButton,44.84444444,-0.200565389,-0.406923082,0,0,0,0,19,19,40,1,56,69034,N,180,2022-02-16_12h20.00.546,orientation adjustment blockN,2021.2.3,MacIntel,60.0024001,,,,,,,
,,,,,,,,,,,,,,,,,-23.88888889,-61,20,75,2.111111111,63.11111111,63.11111111,-0.301696337,-0.404112684,1,0,0,1.3989,submitButton,47.88888889,-0.301696337,-0.404112684,0,0,0,0,20,20,45,1,61,69034,N,180,2022-02-16_12h20.00.546,orientation adjustment blockN,2021.2.3,MacIntel,60.0024001,,,,,,,
,,,,,,,,,,,,,,,,,55.55555556,-65,20,75,0.555555556,65.55555556,65.55555556,0.370543213,-0.315327555,1,0,0,0.0174,submitButton,50.41269841,-0.135597873,-0.416646864,0,0,0,0,21,21,49,1,65,69034,N,180,2022-02-16_12h20.00.546,orientation adjustment blockN,2021.2.3,MacIntel,60.0024001,,,,,,,
,,,,,,,,,,,,,,,,,63.33333333,-66,20,75,0.333333333,66.33333333,66.33333333,0.41249566,-0.296062283,1,0,0,0.0504,submitButton,52.40277778,-0.179534844,-0.389701402,0,0,0,0,22,22,50,1,66,69034,N,180,2022-02-16_12h20.00.546,orientation adjustment blockN,2021.2.3,MacIntel,60.0024001,,,,,,,
,,,,,,,,,,,,,,,,,-57.77777778,-30,20,75,3.222222222,33.22222222,33.22222222,-0.163748847,-0.398683743,1,0,0,2.0665,submitButton,50.27160494,-0.163748847,-0.398683743,0,0,0,0,23,23,14,1,30,69034,N,180,2022-02-16_12h20.00.546,orientation adjustment blockN,2021.2.3,MacIntel,60.0024001,,,,,,,
,,,,,,,,,,,,,,,,,-25,37,20,75,1,36,36,0.370832113,-0.31644789,1,0,0,0.1824,submitButton,48.84444444,-0.191155735,-0.381009318,0,0,0,0,24,24,21,1,37,69034,N,180,2022-02-16_12h20.00.546,orientation adjustment blockN,2021.2.3,MacIntel,60.0024001,,,,,,,
,,,,,,,,,,,,,,,,,-36.11111111,62,20,75,-2.111111111,64.11111111,64.11111111,0.435377604,-0.291366781,1,0,0,0.2157,submitButton,50.23232323,-0.00745931,-0.336664293,0,0,0,0,25,25,46,1,62,69034,N,180,2022-02-16_12h20.00.546,orientation adjustment blockN,2021.2.3,MacIntel,60.0024001,,,,,,,
,,,,,,,,,,,,,,,,,-20,-74,20,75,-179,75,75,0.376778293,-0.289017334,1,0,0,1.0992,submitButton,52.2962963,-0.189540405,-0.405228407,0,0,0,0,26,26,58,1,74,69034,N,180,2022-02-16_12h20.00.546,orientation adjustment blockN,2021.2.3,MacIntel,60.0024001,,,,,,,
,,,,,,,,,,,,,,,,,-20,73,20,75,-1,74,74,0.388703885,-0.302378337,1,0,0,0.166,submitButton,53.96581197,-0.149465129,-0.417115885,0,0,0,0,27,27,57,1,73,69034,N,180,2022-02-16_12h20.00.546,orientation adjustment blockN,2021.2.3,MacIntel,60.0024001,,,,,,,
,,,,,,,,,,,,,,,,,-62.77777778,-47,20,75,1.222222222,48.22222222,48.22222222,0.232854953,-0.294231974,1,0,0,1.7356,submitButton,53.55555556,0.303379991,-0.412884996,0,0,0,0,28,28,31,1,47,69034,N,180,2022-02-16_12h20.00.546,orientation adjustment blockN,2021.2.3,MacIntel,60.0024001,,,,,,,
,,,,,,,,,,,,,,,,,-40.55555556,53,20,75,-0.555555556,53.55555556,53.55555556,0.399977892,-0.311934543,1,0,0,0.3665,submitButton,53.55555556,0.50022895,-0.404149373,1,0,0,0,29,29,37,1,53,69034,N,180,2022-02-16_12h20.00.546,orientation adjustment blockN,2021.2.3,MacIntel,60.0024001,continueButton,,,,,,
,,,,,,,,,,,,,,,,,-28.33333333,-59,20,75,-87.33333333,28.33333333,28.33333333,-0.262450595,-0.393542277,1,0,0,0.8825,submitButton,51.97916667,0.095737847,-0.400328437,0,0,0,0,30,30,43,1,59,69034,N,180,2022-02-16_12h20.00.546,orientation adjustment blockN,2021.2.3,MacIntel,60.0024001,,,,,,,
,,,,,,,,,,,,,,,,,33.33333333,63,20,75,0.333333333,62.66666667,62.66666667,-0.232534383,-0.416768392,1,0,0,2.0833,submitButton,52.60784314,0.120240275,-0.200768907,0,0,0,0,31,31,47,1,63,69034,N,180,2022-02-16_12h20.00.546,orientation adjustment blockN,2021.2.3,MacIntel,60.0024001,,,,,,,
,,,,,,,,,,,,,,,,,67.77777778,-68,20,75,0.777777778,68.77777778,68.77777778,0.164403687,-0.269566108,1,0,0,0.3359,submitButton,53.50617284,0.239119331,-0.302522651,0,0,0,0,32,32,52,1,68,69034,N,180,2022-02-16_12h20.00.546,orientation adjustment blockN,2021.2.3,MacIntel,60.0024001,,,,,,,
,,,,,,,,,,,,,,,,,-33.33333333,-46,20,75,-176.3333333,49.66666667,49.66666667,0.382641195,-0.291141493,1,0,0,0.7021,submitButton,53.30409357,-0.134953749,-0.392253961,0,0,0,0,33,33,30,1,46,69034,N,180,2022-02-16_12h20.00.546,orientation adjustment blockN,2021.2.3,MacIntel,60.0024001,,,,,,,
,,,,,,,,,,,,,,,,,-75,49,20,75,1,48,48,0.18234653,-0.316987644,1,0,0,0.0809,submitButton,53.03888889,-0.183334757,-0.402232259,0,0,0,0,34,34,33,1,49,69034,N,180,2022-02-16_12h20.00.546,orientation adjustment blockN,2021.2.3,MacIntel,60.0024001,,,,,,,
,,,,,,,,,,,,,,,,,39.44444444,-54,20,75,5.444444444,59.44444444,59.44444444,0.231486545,-0.300951538,1,0,0,0.0514,submitButton,53.34391534,-0.092989841,-0.394812012,0,0,0,0,35,35,38,1,54,69034,N,180,2022-02-16_12h20.00.546,orientation adjustment blockN,2021.2.3,MacIntel,60.0024001,,,,,,,
,,,,,,,,,,,,,,,,,-22.77777778,43,20,75,-1.777777778,44.77777778,44.77777778,-0.282608236,-0.399598456,1,0,0,1.3837,submitButton,52.95454545,-0.282608236,-0.399598456,0,0,0,0,36,36,27,1,43,69034,N,180,2022-02-16_12h20.00.546,orientation adjustment blockN,2021.2.3,MacIntel,60.0024001,,,,,,,
,,,,,,,,,,,,,,,,,62.22222222,42,20,75,5.222222222,36.77777778,36.77777778,-0.229039578,-0.402656589,1,0,0,1.7663,submitButton,52.25120773,-0.229039578,-0.402656589,0,0,0,0,37,37,26,1,42,69034,N,180,2022-02-16_12h20.00.546,orientation adjustment blockN,2021.2.3,MacIntel,60.0024001,,,,,,,
,,,,,,,,,,,,,,,,,67.22222222,-60,20,75,-1.777777778,58.22222222,58.22222222,0.434940457,-0.294528537,1,0,0,0.2843,submitButton,52.5,0.223933784,-0.3476494,0,0,0,0,38,38,44,1,60,69034,N,180,2022-02-16_12h20.00.546,orientation adjustment blockN,2021.2.3,MacIntel,60.0024001,,,,,,,
,,,,,,,,,,,,,,,,,40.55555556,-27,20,75,-0.444444444,26.55555556,26.55555556,0.424972738,-0.310702786,1,0,0,0.0825,submitButton,51.46222222,0.223907945,-0.40158488,0,0,0,0,39,39,11,1,27,69034,N,180,2022-02-16_12h20.00.546,orientation adjustment blockN,2021.2.3,MacIntel,60.0024001,,,,,,,
,,,,,,,,,,,,,,,,,20,-38,20,75,0,38,38,0.202144097,-0.29915941,1,0,0,0.0488,submitButton,50.94444444,0.098321398,-0.356571723,0,0,0,0,40,40,22,1,38,69034,N,180,2022-02-16_12h20.00.546,orientation adjustment blockN,2021.2.3,MacIntel,60.0024001,,,,,,,
,,,,,,,,,,,,,,,,,35,64,20,75,-2,66,66,0.372885471,-0.30335083,1,0,0,0.9002,submitButton,51.50205761,-0.194094916,-0.403624539,0,0,0,0,41,41,48,1,64,69034,N,180,2022-02-16_12h20.00.546,orientation adjustment blockN,2021.2.3,MacIntel,60.0024001,,,,,,,
,,,,,,,,,,,,,,,,,-45,18,20,75,-1,19,19,0.232935655,-0.316086561,1,0,0,2.2831,submitButton,50.34126984,0.306962145,-0.218842299,0,0,0,0,42,42,2,1,18,69034,N,180,2022-02-16_12h20.00.546,orientation adjustment blockN,2021.2.3,MacIntel,60.0024001,,,,,,,
,,,,,,,,,,,,,,,,,-34.44444444,75,20,75,2.555555556,72.44444444,72.44444444,0.401158583,-0.278110962,1,0,0,0.3158,submitButton,51.10344828,-0.206631673,-0.407661608,0,0,0,0,43,43,59,1,75,69034,N,180,2022-02-16_12h20.00.546,orientation adjustment blockN,2021.2.3,MacIntel,60.0024001,,,,,,,
,,,,,,,,,,,,,,,,,46.66666667,16,20,75,-2.333333333,18.33333333,18.33333333,0.41607978,-0.303477241,1,0,0,0.6003,submitButton,50.01111111,0.534088406,-0.402637872,1,0,0,0,44,44,0,1,16,69034,N,180,2022-02-16_12h20.00.546,orientation adjustment blockN,2021.2.3,MacIntel,60.0024001,continueButton,,,,,,
,,,,,,,,,,,,,,,,,-22.77777778,-32,20,75,0.222222222,32.22222222,32.22222222,0.203518338,-0.274091865,1,0,0,0.6327,submitButton,49.43727599,0.400929362,-0.274740804,0,0,0,0,45,45,16,1,32,69034,N,180,2022-02-16_12h20.00.546,orientation adjustment blockN,2021.2.3,MacIntel,60.0024001,,,,,,,
,,,,,,,,,,,,,,,,,-26.11111111,-29,20,75,0.888888889,29.88888889,29.88888889,-0.191797146,-0.392202352,1,0,0,1.1158,submitButton,48.82638889,0.32582628,-0.240665487,0,0,0,0,46,46,13,1,29,69034,N,180,2022-02-16_12h20.00.546,orientation adjustment blockN,2021.2.3,MacIntel,60.0024001,,,,,,,
,,,,,,,,,,,,,,,,,-56.11111111,-58,20,75,0.888888889,58.88888889,58.88888889,-0.178590224,-0.406678738,1,0,0,1.7499,submitButton,49.13131313,-0.178590224,-0.406678738,0,0,0,0,47,47,42,1,58,69034,N,180,2022-02-16_12h20.00.546,orientation adjustment blockN,2021.2.3,MacIntel,60.0024001,,,,,,,
,,,,,,,,,,,,,,,,,-56.66666667,-41,20,75,-2.666666667,38.33333333,38.33333333,0.209997559,-0.29817532,1,0,0,1.3997,submitButton,48.81372549,-0.1539249,-0.396334703,0,0,0,0,48,48,25,1,41,69034,N,180,2022-02-16_12h20.00.546,orientation adjustment blockN,2021.2.3,MacIntel,60.0024001,,,,,,,
,,,,,,,,,,,,,,,,,-53.88888889,-48,20,75,-178.8888889,49.11111111,49.11111111,0.37902615,-0.273706597,1,0,0,0.1495,submitButton,48.82222222,0.381683892,-0.273959554,0,0,0,0,49,49,32,1,48,69034,N,180,2022-02-16_12h20.00.546,orientation adjustment blockN,2021.2.3,MacIntel,60.0024001,,,,,,,
,,,,,,,,,,,,,,,,,-72.77777778,-36,20,75,-180.7777778,35.22222222,35.22222222,0.431059435,-0.300648193,1,0,0,0.3673,submitButton,48.44444444,-0.181863132,-0.404858602,0,0,0,0,50,50,20,1,36,69034,N,180,2022-02-16_12h20.00.546,orientation adjustment blockN,2021.2.3,MacIntel,60.0024001,,,,,,,
,,,,,,,,,,,,,,,,,-27.22222222,31,20,75,-2.222222222,33.22222222,33.22222222,0.398239746,-0.317260607,1,0,0,10.4148,submitButton,48.03303303,-0.127087809,-0.409595608,0,0,0,0,51,51,15,1,31,69034,N,180,2022-02-16_12h20.00.546,orientation adjustment blockN,2021.2.3,MacIntel,60.0024001,,,,,,,
,,,,,,,,,,,,,,,,,-25.55555556,67,20,75,-2.555555556,69.55555556,69.55555556,-0.176161906,-0.398161892,1,0,0,0.8823,submitButton,48.5994152,0.254973348,-0.249655626,0,0,0,0,52,52,51,1,67,69034,N,180,2022-02-16_12h20.00.546,orientation adjustment blockN,2021.2.3,MacIntel,60.0024001,,,,,,,
,,,,,,,,,,,,,,,,,-64.44444444,-33,20,75,1.555555556,34.55555556,34.55555556,-0.194475776,-0.426955566,1,0,0,1.7996,submitButton,48.23931624,0.128772447,-0.323820462,0,0,0,0,53,53,17,1,33,69034,N,180,2022-02-16_12h20.00.546,orientation adjustment blockN,2021.2.3,MacIntel,60.0024001,,,,,,,
,,,,,,,,,,,,,,,,,45.55555556,34,20,75,-0.444444444,34.44444444,34.44444444,0.355977105,-0.307740682,1,0,0,1.133,submitButton,47.89444444,-0.221941461,-0.401297675,0,0,0,0,54,54,18,1,34,69034,N,180,2022-02-16_12h20.00.546,orientation adjustment blockN,2021.2.3,MacIntel,60.0024001,,,,,,,
,,,,,,,,,,,,,,,,,-30.55555556,-55,20,75,-181.5555556,53.44444444,53.44444444,-0.173516778,-0.410764703,1,0,0,1.633,submitButton,48.0298103,-0.173516778,-0.410764703,0,0,0,0,55,55,39,1,55,69034,N,180,2022-02-16_12h20.00.546,orientation adjustment blockN,2021.2.3,MacIntel,60.0024001,,,,,,,
,,,,,,,,,,,,,,,,,-29.44444444,-72,20,75,-179.4444444,72.55555556,72.55555556,-0.213652547,-0.417251587,1,0,0,1.3685,submitButton,48.61375661,-0.213652547,-0.417251587,0,0,0,0,56,56,56,1,72,69034,N,180,2022-02-16_12h20.00.546,orientation adjustment blockN,2021.2.3,MacIntel,60.0024001,,,,,,,
,,,,,,,,,,,,,,,,,44.44444444,-21,20,75,0.444444444,21.44444444,21.44444444,0.355687391,-0.304825779,1,0,0,0.4667,submitButton,47.98191214,-0.219590522,-0.39283332,0,0,0,0,57,57,5,1,21,69034,N,180,2022-02-16_12h20.00.546,orientation adjustment blockN,2021.2.3,MacIntel,60.0024001,,,,,,,
,,,,,,,,,,,,,,,,,-27.22222222,-39,20,75,0.777777778,39.77777778,39.77777778,0.184538574,-0.326499363,1,0,0,0.6999,submitButton,47.79545455,-0.123018528,-0.404248318,0,0,0,0,58,58,23,1,39,69034,N,180,2022-02-16_12h20.00.546,orientation adjustment blockN,2021.2.3,MacIntel,60.0024001,,,,,,,
,,,,,,,,,,,,,,,,,-60.55555556,-51,20,75,-182.5555556,48.44444444,48.44444444,0.380246582,-0.332384711,1,0,0,1.9,submitButton,47.80987654,0.489400635,-0.415311551,1,0,0,0,59,59,35,1,51,69034,N,180,2022-02-16_12h20.00.546,orientation adjustment blockN,2021.2.3,MacIntel,60.0024001,continueButton,,,,,,
,,,,,,,,,,,,,,,,,58.33333333,44,20,75,179.3333333,44.66666667,44.66666667,0.157057766,-0.291338976,1,0,0,2.2651,submitButton,47.74154589,-0.022756619,-0.366813558,0,0,0,1,0,60,28,1,44,69034,N,180,2022-02-16_12h20.00.546,orientation adjustment blockN,2021.2.3,MacIntel,60.0024001,,,,,,,
,,,,,,,,,,,,,,,,,-23.88888889,-18,20,75,3.111111111,21.11111111,21.11111111,0.246497803,-0.33098504,1,0,0,0.3838,submitButton,47.1749409,-0.148532511,-0.396373427,0,0,0,1,1,61,2,1,18,69034,N,180,2022-02-16_12h20.00.546,orientation adjustment blockN,2021.2.3,MacIntel,60.0024001,,,,,,,
,,,,,,,,,,,,,,,,,-59.44444444,70,20,75,3.555555556,66.44444444,66.44444444,0.396753608,-0.298857897,1,0,0,0.3506,submitButton,47.57638889,0.141228366,-0.298585883,0,0,0,1,2,62,54,1,70,69034,N,180,2022-02-16_12h20.00.546,orientation adjustment blockN,2021.2.3,MacIntel,60.0024001,,,,,,,
,,,,,,,,,,,,,,,,,74.44444444,41,20,75,-0.555555556,41.55555556,41.55555556,-0.200623305,-0.417499322,1,0,0,1.7189,submitButton,47.45351474,0.189073758,-0.342132433,0,0,0,1,3,63,25,1,41,69034,N,180,2022-02-16_12h20.00.546,orientation adjustment blockN,2021.2.3,MacIntel,60.0024001,,,,,,,
,,,,,,,,,,,,,,,,,-24.44444444,-34,20,75,-181.4444444,32.55555556,32.55555556,0.42796346,-0.308228014,1,0,0,0.5498,submitButton,47.15555556,-0.148039619,-0.399901598,0,0,0,1,4,64,18,1,34,69034,N,180,2022-02-16_12h20.00.546,orientation adjustment blockN,2021.2.3,MacIntel,60.0024001,,,,,,,
,,,,,,,,,,,,,,,,,23.33333333,-30,20,75,-2.666666667,27.33333333,27.33333333,0.221374444,-0.290226847,1,0,0,0.1514,submitButton,46.76688453,-0.208342963,-0.401247762,0,0,0,1,5,65,14,1,30,69034,N,180,2022-02-16_12h20.00.546,orientation adjustment blockN,2021.2.3,MacIntel,60.0024001,,,,,,,
,,,,,,,,,,,,,,,,,-50.55555556,-73,20,75,-177.5555556,75.44444444,75.44444444,0.391782905,-0.313407661,1,0,0,6.4672,submitButton,47.31837607,-0.229621514,-0.400400662,0,0,0,1,6,66,57,1,73,69034,N,180,2022-02-16_12h20.00.546,orientation adjustment blockN,2021.2.3,MacIntel,60.0024001,,,,,,,
,,,,,,,,,,,,,,,,,20,28,20,75,0,28,28,0.445940077,-0.310866292,1,0,0,0.7506,submitButton,46.95387841,0.569356418,-0.376644897,0,0,0,1,7,67,12,1,28,69034,N,180,2022-02-16_12h20.00.546,orientation adjustment blockN,2021.2.3,MacIntel,60.0024001,,,,,,,
,,,,,,,,,,,,,,,,,55.55555556,-51,20,75,-1.444444444,49.55555556,49.55555556,-0.167149929,-0.414970432,1,0,0,0.7678,submitButton,47.00205761,-0.167149929,-0.414970432,0,0,0,1,8,68,35,1,51,69034,N,180,2022-02-16_12h20.00.546,orientation adjustment blockN,2021.2.3,MacIntel,60.0024001,,,,,,,
,,,,,,,,,,,,,,,,,-71.11111111,47,20,75,-184.1111111,51.11111111,51.11111111,0.42795383,-0.304683092,1,0,0,2.2995,submitButton,47.07676768,-0.16660848,-0.401530219,0,0,0,1,9,69,31,1,47,69034,N,180,2022-02-16_12h20.00.546,orientation adjustment blockN,2021.2.3,MacIntel,60.0024001,,,,,,,
,,,,,,,,,,,,,,,,,-57.77777778,-67,20,75,-179.7777778,67.22222222,67.22222222,-0.180722182,-0.386943902,1,0,0,1.2825,submitButton,47.43650794,-0.180722182,-0.386943902,0,0,0,1,10,70,51,1,67,69034,N,180,2022-02-16_12h20.00.546,orientation adjustment blockN,2021.2.3,MacIntel,60.0024001,,,,,,,
,,,,,,,,,,,,,,,,,38.33333333,-53,20,75,-178.6666667,54.33333333,54.33333333,0.239845649,-0.319851074,1,0,0,2.5499,submitButton,47.55750487,-0.189453396,-0.410610487,0,0,0,1,11,71,37,1,53,69034,N,180,2022-02-16_12h20.00.546,orientation adjustment blockN,2021.2.3,MacIntel,60.0024001,,,,,,,
,,,,,,,,,,,,,,,,,-57.22222222,68,20,75,0.777777778,67.22222222,67.22222222,0.250703668,-0.302279867,1,0,0,0.1645,submitButton,47.89655172,-0.160893283,-0.400283949,0,0,0,1,12,72,52,1,68,69034,N,180,2022-02-16_12h20.00.546,orientation adjustment blockN,2021.2.3,MacIntel,60.0024001,,,,,,,
,,,,,,,,,,,,,,,,,25.55555556,32,20,75,-0.444444444,32.44444444,32.44444444,0.378390571,-0.305201348,1,0,0,0.4987,submitButton,47.6346516,-0.172831896,-0.409363132,0,0,0,1,13,73,16,1,32,69034,N,180,2022-02-16_12h20.00.546,orientation adjustment blockN,2021.2.3,MacIntel,60.0024001,,,,,,,
,,,,,,,,,,,,,,,,,-46.66666667,-66,20,75,-176.6666667,69.33333333,69.33333333,0.380920546,-0.308281047,1,0,0,0.1501,submitButton,47.9962963,0.494399414,-0.398122762,1,0,0,1,14,74,50,1,66,69034,N,180,2022-02-16_12h20.00.546,orientation adjustment blockN,2021.2.3,MacIntel,60.0024001,continueButton,,,,,,
,,,,,,,,,,,,,,,,,51.11111111,-45,20,75,1.111111111,46.11111111,46.11111111,0.227802938,-0.292856649,1,0,0,0.1327,submitButton,47.96539162,0.120009766,-0.357099406,0,0,0,1,15,75,29,1,45,69034,N,180,2022-02-16_12h20.00.546,orientation adjustment blockN,2021.2.3,MacIntel,60.0024001,,,,,,,
,,,,,,,,,,,,,,,,,63.88888889,-59,20,75,2.888888889,61.88888889,61.88888889,-0.202932332,-0.418104655,1,0,0,1.2172,submitButton,48.18996416,0.302871501,-0.241051161,0,0,0,1,16,76,43,1,59,69034,N,180,2022-02-16_12h20.00.546,orientation adjustment blockN,2021.2.3,MacIntel,60.0024001,,,,,,,
,,,,,,,,,,,,,,,,,-70,-72,20,75,-179,73,73,0.40163303,-0.285952827,1,0,0,0.0356,submitButton,48.58377425,-0.194943102,-0.407151218,0,0,0,1,17,77,56,1,72,69034,N,180,2022-02-16_12h20.00.546,orientation adjustment blockN,2021.2.3,MacIntel,60.0024001,,,,,,,
,,,,,,,,,,,,,,,,,-48.33333333,-23,20,75,-0.333333333,22.66666667,22.66666667,0.207523804,-0.300346612,1,0,0,0.5986,submitButton,48.17881944,-0.11329027,-0.387988959,0,0,0,1,18,78,7,1,23,69034,N,180,2022-02-16_12h20.00.546,orientation adjustment blockN,2021.2.3,MacIntel,60.0024001,,,,,,,
,,,,,,,,,,,,,,,,,25.55555556,-17,20,75,3.555555556,20.55555556,20.55555556,0.441422119,-0.306806505,1,0,0,0.0174,submitButton,47.75384615,-0.158612061,-0.407734782,0,0,0,1,19,79,1,1,17,69034,N,180,2022-02-16_12h20.00.546,orientation adjustment blockN,2021.2.3,MacIntel,60.0024001,,,,,,,
,,,,,,,,,,,,,,,,,-44.44444444,-52,20,75,-180.4444444,51.55555556,51.55555556,0.23560635,-0.304912788,1,0,0,2.0353,submitButton,47.81144781,-0.184727444,-0.404137166,0,0,0,1,20,80,36,1,52,69034,N,180,2022-02-16_12h20.00.546,orientation adjustment blockN,2021.2.3,MacIntel,60.0024001,,,,,,,
,,,,,,,,,,,,,,,,,33.33333333,-71,20,75,0.333333333,71.33333333,71.33333333,0.187016059,-0.308712565,1,0,0,0.1493,submitButton,48.16252073,-0.203581679,-0.396205783,0,0,0,1,21,81,55,1,71,69034,N,180,2022-02-16_12h20.00.546,orientation adjustment blockN,2021.2.3,MacIntel,60.0024001,,,,,,,
,,,,,,,,,,,,,,,,,51.11111111,49,20,75,1.111111111,47.88888889,47.88888889,0.38513048,-0.273978407,1,0,0,1.5841,submitButton,48.15849673,0.046887071,-0.387435371,0,0,0,1,22,82,33,1,49,69034,N,180,2022-02-16_12h20.00.546,orientation adjustment blockN,2021.2.3,MacIntel,60.0024001,,,,,,,
,,,,,,,,,,,,,,,,,-21.66666667,75,20,75,-3.666666667,78.66666667,78.66666667,0.419046495,-0.318361884,1,0,0,0.6343,submitButton,48.60064412,-0.188932563,-0.410593194,0,0,0,1,23,83,59,1,75,69034,N,180,2022-02-16_12h20.00.546,orientation adjustment blockN,2021.2.3,MacIntel,60.0024001,,,,,,,
,,,,,,,,,,,,,,,,,28.33333333,40,20,75,1.333333333,38.66666667,38.66666667,0.392121582,-0.309944797,1,0,0,1.0648,submitButton,48.45873016,-0.188951213,-0.393723077,0,0,0,1,24,84,24,1,40,69034,N,180,2022-02-16_12h20.00.546,orientation adjustment blockN,2021.2.3,MacIntel,60.0024001,,,,,,,
,,,,,,,,,,,,,,,,,35.55555556,-25,20,75,-1.444444444,23.55555556,23.55555556,0.40402398,-0.301703695,1,0,0,0.2836,submitButton,48.10798122,-0.164621718,-0.400463121,0,0,0,1,25,85,9,1,25,69034,N,180,2022-02-16_12h20.00.546,orientation adjustment blockN,2021.2.3,MacIntel,60.0024001,,,,,,,
,,,,,,,,,,,,,,,,,65,-57,20,75,3,60,60,0.413232964,-0.306448229,1,0,0,0.0162,submitButton,48.27314815,-0.178964979,-0.401190186,0,0,0,1,26,86,41,1,57,69034,N,180,2022-02-16_12h20.00.546,orientation adjustment blockN,2021.2.3,MacIntel,60.0024001,,,,,,,
,,,,,,,,,,,,,,,,,27.77777778,-27,20,75,-1.222222222,25.77777778,25.77777778,-0.155395372,-0.400199517,1,0,0,0.7333,submitButton,47.96499239,-0.155395372,-0.400199517,0,0,0,1,27,87,11,1,27,69034,N,180,2022-02-16_12h20.00.546,orientation adjustment blockN,2021.2.3,MacIntel,60.0024001,,,,,,,
,,,,,,,,,,,,,,,,,-47.77777778,-39,20,75,2.222222222,41.22222222,41.22222222,0.209394531,-0.32011027,1,0,0,1.1832,submitButton,47.87387387,-0.14298489,-0.408298272,0,0,0,1,28,88,23,1,39,69034,N,180,2022-02-16_12h20.00.546,orientation adjustment blockN,2021.2.3,MacIntel,60.0024001,,,,,,,
,,,,,,,,,,,,,,,,,-58.88888889,-62,20,75,3.111111111,65.11111111,65.11111111,0.217007718,-0.297808499,1,0,0,1.983,submitButton,48.1037037,0.522381321,-0.405454373,1,0,0,1,29,89,46,1,62,69034,N,180,2022-02-16_12h20.00.546,orientation adjustment blockN,2021.2.3,MacIntel,60.0024001,continueButton,,,,,,
,,,,,,,,,,,,,,,,,52.22222222,58,20,75,3.222222222,54.77777778,54.77777778,0.3942315,-0.297544352,1,0,0,1.6828,submitButton,48.19152047,-0.182433268,-0.384600288,0,0,0,1,30,90,42,1,58,69034,N,180,2022-02-16_12h20.00.546,orientation adjustment blockN,2021.2.3,MacIntel,60.0024001,,,,,,,
,,,,,,,,,,,,,,,,,20.55555556,54,20,75,179.5555556,54.44444444,54.44444444,0.245013156,-0.303751085,1,0,0,0.4164,submitButton,48.27272727,-0.19947876,-0.405416192,0,0,0,1,31,91,38,1,54,69034,N,180,2022-02-16_12h20.00.546,orientation adjustment blockN,2021.2.3,MacIntel,60.0024001,,,,,,,
,,,,,,,,,,,,,,,,,52.77777778,21,20,75,1.777777778,19.22222222,19.22222222,0.196209446,-0.297369385,1,0,0,1.3175,submitButton,47.9002849,0.350977376,-0.448512573,0,0,0,1,32,92,5,1,21,69034,N,180,2022-02-16_12h20.00.546,orientation adjustment blockN,2021.2.3,MacIntel,60.0024001,,,,,,,
,,,,,,,,,,,,,,,,,42.22222222,-31,20,75,0.222222222,31.22222222,31.22222222,0.42470459,-0.311321886,1,0,0,0.1493,submitButton,47.68917018,-0.13733256,-0.392117581,0,0,0,1,33,93,15,1,31,69034,N,180,2022-02-16_12h20.00.546,orientation adjustment blockN,2021.2.3,MacIntel,60.0024001,,,,,,,
,,,,,,,,,,,,,,,,,55,20,20,75,1,19,19,-0.149715508,-0.394851752,1,0,0,2.0003,submitButton,47.33055556,-0.149715508,-0.394851752,0,0,0,1,34,94,4,1,20,69034,N,180,2022-02-16_12h20.00.546,orientation adjustment blockN,2021.2.3,MacIntel,60.0024001,,,,,,,
,,,,,,,,,,,,,,,,,-36.11111111,42,20,75,-0.111111111,42.11111111,42.11111111,0.372686632,-0.317077094,1,0,0,0.2503,submitButton,47.26611797,-0.269288262,-0.396246677,0,0,0,1,35,95,26,1,42,69034,N,180,2022-02-16_12h20.00.546,orientation adjustment blockN,2021.2.3,MacIntel,60.0024001,,,,,,,
,,,,,,,,,,,,,,,,,31.11111111,-33,20,75,3.111111111,36.11111111,36.11111111,-0.297111477,-0.427623494,1,0,0,0.4987,submitButton,47.1300813,-0.297111477,-0.427623494,0,0,0,1,36,96,17,1,33,69034,N,180,2022-02-16_12h20.00.546,orientation adjustment blockN,2021.2.3,MacIntel,60.0024001,,,,,,,
,,,,,,,,,,,,,,,,,50,63,20,75,-1,64,64,0.394905328,-0.309286228,1,0,0,7.5339,submitButton,47.33333333,0.136578098,-0.294720527,0,0,0,1,37,97,47,1,63,69034,N,180,2022-02-16_12h20.00.546,orientation adjustment blockN,2021.2.3,MacIntel,60.0024001,,,,,,,
,,,,,,,,,,,,,,,,,34.44444444,22,20,75,2.444444444,19.55555556,19.55555556,0.361012777,-0.28223626,1,0,0,0.4981,submitButton,47.0026455,-0.155276964,-0.401837565,0,0,0,1,38,98,6,1,22,69034,N,180,2022-02-16_12h20.00.546,orientation adjustment blockN,2021.2.3,MacIntel,60.0024001,,,,,,,
,,,,,,,,,,,,,,,,,58.88888889,61,20,75,182.8888889,58.11111111,58.11111111,0.206479492,-0.317667304,1,0,0,0.25,submitButton,47.13333333,-0.138141683,-0.413499688,0,0,0,1,39,99,45,1,61,69034,N,180,2022-02-16_12h20.00.546,orientation adjustment blockN,2021.2.3,MacIntel,60.0024001,,,,,,,
,,,,,,,,,,,,,,,,,-20,-55,20,75,6,61,61,0.198853353,-0.283706529,1,0,0,15.1833,submitButton,47.29457364,-0.170283339,-0.398980374,0,0,0,1,40,100,39,1,55,69034,N,180,2022-02-16_12h20.00.546,orientation adjustment blockN,2021.2.3,MacIntel,60.0024001,,,,,,,
,,,,,,,,,,,,,,,,,-20,24,20,75,-1,25,25,-0.186550225,-0.409235365,1,0,0,0.7478,submitButton,47.03831418,-0.186550225,-0.409235365,0,0,0,1,41,101,8,1,24,69034,N,180,2022-02-16_12h20.00.546,orientation adjustment blockN,2021.2.3,MacIntel,60.0024001,,,,,,,
,,,,,,,,,,,,,,,,,53.33333333,35,20,75,0.333333333,34.66666667,34.66666667,0.444380697,-0.291636624,1,0,0,0.7509,submitButton,46.89772727,-0.174099121,-0.409986979,0,0,0,1,42,102,19,1,35,69034,N,180,2022-02-16_12h20.00.546,orientation adjustment blockN,2021.2.3,MacIntel,60.0024001,,,,,,,
,,,,,,,,,,,,,,,,,55,48,20,75,-2,50,50,0.438125814,-0.278893704,1,0,0,0.4004,submitButton,46.93258427,0.235655721,-0.365103353,0,0,0,1,43,103,32,1,48,69034,N,180,2022-02-16_12h20.00.546,orientation adjustment blockN,2021.2.3,MacIntel,60.0024001,,,,,,,
,,,,,,,,,,,,,,,,,-31.11111111,26,20,75,-0.111111111,26.11111111,26.11111111,0.223299154,-0.303344455,1,0,0,0.1683,submitButton,46.70123457,0.506932644,-0.411542562,1,0,0,1,44,104,10,1,26,69034,N,180,2022-02-16_12h20.00.546,orientation adjustment blockN,2021.2.3,MacIntel,60.0024001,continueButton,,,,,,
,,,,,,,,,,,,,,,,,71.11111111,37,20,75,-1.888888889,38.88888889,38.88888889,0.404016249,-0.286077677,1,0,0,1.7835,submitButton,46.61538462,-0.15299018,-0.398222453,0,0,0,1,45,105,21,1,37,69034,N,180,2022-02-16_12h20.00.546,orientation adjustment blockN,2021.2.3,MacIntel,60.0024001,,,,,,,
,,,,,,,,,,,,,,,,,-41.11111111,-43,20,75,-181.1111111,41.88888889,41.88888889,0.439270562,-0.289187622,1,0,0,1.3838,submitButton,46.56400966,-0.139005534,-0.39399075,0,0,0,1,46,106,27,1,43,69034,N,180,2022-02-16_12h20.00.546,orientation adjustment blockN,2021.2.3,MacIntel,60.0024001,,,,,,,
,,,,,,,,,,,,,,,,,-57.22222222,-69,20,75,-179.2222222,69.77777778,69.77777778,0.386700168,-0.305355225,1,0,0,0.8663,submitButton,46.81362007,-0.188534749,-0.410120917,0,0,0,1,47,107,53,1,69,69034,N,180,2022-02-16_12h20.00.546,orientation adjustment blockN,2021.2.3,MacIntel,60.0024001,,,,,,,
,,,,,,,,,,,,,,,,,-25,64,20,75,2,62,62,0.399311795,-0.292073296,1,0,0,0.2001,submitButton,46.9751773,-0.157536621,-0.399493883,0,0,0,1,48,108,48,1,64,69034,N,180,2022-02-16_12h20.00.546,orientation adjustment blockN,2021.2.3,MacIntel,60.0024001,,,,,,,
,,,,,,,,,,,,,,,,,-53.88888889,46,20,75,-0.888888889,46.88888889,46.88888889,0.234049615,-0.30567627,1,0,0,5.9339,submitButton,46.97426901,-0.197236938,-0.415598416,0,0,0,1,49,109,30,1,46,69034,N,180,2022-02-16_12h20.00.546,orientation adjustment blockN,2021.2.3,MacIntel,60.0024001,,,,,,,
,,,,,,,,,,,,,,,,,-50,-19,20,75,2,21,21,0.213274672,-0.335085449,1,0,0,1.1495,submitButton,46.7037037,-0.176510145,-0.420780911,0,0,0,1,50,110,3,1,19,69034,N,180,2022-02-16_12h20.00.546,orientation adjustment blockN,2021.2.3,MacIntel,60.0024001,,,,,,,
,,,,,,,,,,,,,,,,,-30.55555556,-60,20,75,1.444444444,61.44444444,61.44444444,-0.198683675,-0.407952271,1,0,0,1.717,submitButton,46.8556701,-0.198683675,-0.407952271,0,0,0,1,51,111,44,1,60,69034,N,180,2022-02-16_12h20.00.546,orientation adjustment blockN,2021.2.3,MacIntel,60.0024001,,,,,,,
,,,,,,,,,,,,,,,,,-52.22222222,38,20,75,0.777777778,37.22222222,37.22222222,0.19417494,-0.311905924,1,0,0,0.2682,submitButton,46.75736961,-0.164922418,-0.404796143,0,0,0,1,52,112,22,1,38,69034,N,180,2022-02-16_12h20.00.546,orientation adjustment blockN,2021.2.3,MacIntel,60.0024001,,,,,,,
,,,,,,,,,,,,,,,,,52.22222222,-16,20,75,2.222222222,18.22222222,18.22222222,0.41075236,-0.290213352,1,0,0,0.1347,submitButton,46.4691358,-0.124817301,-0.393567098,0,0,0,1,53,113,0,1,16,69034,N,180,2022-02-16_12h20.00.546,orientation adjustment blockN,2021.2.3,MacIntel,60.0024001,,,,,,,
,,,,,,,,,,,,,,,,,-72.22222222,-65,20,75,0.777777778,65.77777778,65.77777778,0.215434706,-0.318006524,1,0,0,1.5823,submitButton,46.66222222,-0.12246304,-0.377287937,0,0,0,1,54,114,49,1,65,69034,N,180,2022-02-16_12h20.00.546,orientation adjustment blockN,2021.2.3,MacIntel,60.0024001,,,,,,,
,,,,,,,,,,,,,,,,,-52.22222222,56,20,75,-3.222222222,59.22222222,59.22222222,0.405315891,-0.321922607,1,0,0,0.0505,submitButton,46.78657866,0.200519341,-0.257474297,0,0,0,1,55,115,40,1,56,69034,N,180,2022-02-16_12h20.00.546,orientation adjustment blockN,2021.2.3,MacIntel,60.0024001,,,,,,,
,,,,,,,,,,,,,,,,,40.55555556,50,20,75,179.5555556,50.44444444,50.44444444,-0.166910807,-0.411736382,1,0,0,1.8836,submitButton,46.82244009,-0.166910807,-0.411736382,0,0,0,1,56,116,34,1,50,69034,N,180,2022-02-16_12h20.00.546,orientation adjustment blockN,2021.2.3,MacIntel,60.0024001,,,,,,,
,,,,,,,,,,,,,,,,,64.44444444,36,20,75,-0.555555556,36.55555556,36.55555556,0.381250271,-0.301661852,1,0,0,0.2506,submitButton,46.7227616,-0.138222385,-0.41827101,0,0,0,1,57,117,20,1,36,69034,N,180,2022-02-16_12h20.00.546,orientation adjustment blockN,2021.2.3,MacIntel,60.0024001,,,,,,,
,,,,,,,,,,,,,,,,,-51.11111111,74,20,75,-2.111111111,76.11111111,76.11111111,-0.182897135,-0.423083293,1,0,0,0.6342,submitButton,47.00534188,-0.182897135,-0.423083293,0,0,0,1,58,118,58,1,74,69034,N,180,2022-02-16_12h20.00.546,orientation adjustment blockN,2021.2.3,MacIntel,60.0024001,,,,,,,
,,,,,,,,,,,,,,,,,56.66666667,-29,20,75,-0.333333333,28.66666667,28.66666667,-0.114745144,-0.405964627,1,0,0,1.0151,submitButton,46.83068783,0.522219238,-0.41969184,1,0,0,1,59,119,13,1,29,69034,N,180,2022-02-16_12h20.00.546,orientation adjustment blockN,2021.2.3,MacIntel,60.0024001,continueButton,,,,,,
,,,,,,,,,,,,,,,,,43.88888889,-40,20,75,1.888888889,41.88888889,41.88888889,0.423500163,-0.319892849,1,0,0,0.0186,submitButton,46.78406709,-0.142379557,-0.394573093,0,0,0,2,0,120,24,1,40,69034,N,180,2022-02-16_12h20.00.546,orientation adjustment blockN,2021.2.3,MacIntel,60.0024001,,,,,,,
,,,,,,,,,,,,,,,,,73.88888889,-53,20,75,-2.111111111,50.88888889,50.88888889,0.368606228,-0.310127428,1,0,0,0.2501,submitButton,46.82242991,-0.228333469,-0.417307332,0,0,0,2,1,121,37,1,53,69034,N,180,2022-02-16_12h20.00.546,orientation adjustment blockN,2021.2.3,MacIntel,60.0024001,,,,,,,
,,,,,,,,,,,,,,,,,20.55555556,19,20,75,-0.444444444,19.44444444,19.44444444,-0.168770616,-0.391015354,1,0,0,1.5995,submitButton,46.56893004,-0.168770616,-0.391015354,0,0,0,2,2,122,3,1,19,69034,N,180,2022-02-16_12h20.00.546,orientation adjustment blockN,2021.2.3,MacIntel,60.0024001,,,,,,,
,,,,,,,,,,,,,,,,,69.44444444,-51,20,75,1.444444444,52.44444444,52.44444444,0.418739556,-0.277124837,1,0,0,1.5818,submitButton,46.62283384,-0.116741062,-0.394288466,0,0,0,2,3,123,35,1,51,69034,N,180,2022-02-16_12h20.00.546,orientation adjustment blockN,2021.2.3,MacIntel,60.0024001,,,,,,,
,,,,,,,,,,,,,,,,,46.11111111,46,20,75,2.111111111,43.88888889,43.88888889,-0.1179324,-0.390956557,1,0,0,1.6348,submitButton,46.5979798,-0.107945557,-0.372723999,0,0,0,2,4,124,30,1,46,69034,N,180,2022-02-16_12h20.00.546,orientation adjustment blockN,2021.2.3,MacIntel,60.0024001,,,,,,,
,,,,,,,,,,,,,,,,,-25,-59,20,75,2,61,61,0.207961155,-0.298375583,1,0,0,0.8166,submitButton,46.72772773,-0.186915351,-0.414666002,0,0,0,2,5,125,43,1,59,69034,N,180,2022-02-16_12h20.00.546,orientation adjustment blockN,2021.2.3,MacIntel,60.0024001,,,,,,,
,,,,,,,,,,,,,,,,,-72.77777778,69,20,75,2.222222222,66.77777778,66.77777778,-0.188294135,-0.40093221,1,0,0,1.1355,submitButton,46.90674603,-0.188294135,-0.40093221,0,0,0,2,6,126,53,1,69,69034,N,180,2022-02-16_12h20.00.546,orientation adjustment blockN,2021.2.3,MacIntel,60.0024001,,,,,,,
,,,,,,,,,,,,,,,,,35.55555556,-27,20,75,3.555555556,30.55555556,30.55555556,0.405765245,-0.326087307,1,0,0,0.116,submitButton,46.76204523,-0.166017117,-0.421517877,0,0,0,2,7,127,11,1,27,69034,N,180,2022-02-16_12h20.00.546,orientation adjustment blockN,2021.2.3,MacIntel,60.0024001,,,,,,,
,,,,,,,,,,,,,,,,,-42.22222222,47,20,75,0.777777778,46.22222222,46.22222222,-0.159970364,-0.404331597,1,0,0,0.6159,submitButton,46.75730994,-0.159970364,-0.404331597,0,0,0,2,8,128,31,1,47,69034,N,180,2022-02-16_12h20.00.546,orientation adjustment blockN,2021.2.3,MacIntel,60.0024001,,,,,,,
,,,,,,,,,,,,,,,,,-50,-63,20,75,-180,63,63,0.404644911,-0.283201226,1,0,0,1.6185,submitButton,46.89855072,-0.129812893,-0.407094523,0,0,0,2,9,129,47,1,63,69034,N,180,2022-02-16_12h20.00.546,orientation adjustment blockN,2021.2.3,MacIntel,60.0024001,,,,,,,
,,,,,,,,,,,,,,,,,50.55555556,48,20,75,0.555555556,47.44444444,47.44444444,0.374979248,-0.306476305,1,0,0,1.7184,submitButton,46.9032567,-0.134907023,-0.423546617,0,0,0,2,10,130,32,1,48,69034,N,180,2022-02-16_12h20.00.546,orientation adjustment blockN,2021.2.3,MacIntel,60.0024001,,,,,,,
,,,,,,,,,,,,,,,,,-60,-31,20,75,1,32,32,0.219624363,-0.337552829,1,0,0,2.9485,submitButton,46.77587844,-0.17737325,-0.395720011,0,0,0,2,11,131,15,1,31,69034,N,180,2022-02-16_12h20.00.546,orientation adjustment blockN,2021.2.3,MacIntel,60.0024001,,,,,,,
,,,,,,,,,,,,,,,,,-36.66666667,-28,20,75,3.333333333,31.33333333,31.33333333,0.206795519,-0.300772841,1,0,0,0.3004,submitButton,46.64500942,0.408064779,-0.273217638,0,0,0,2,12,132,12,1,28,69034,N,180,2022-02-16_12h20.00.546,orientation adjustment blockN,2021.2.3,MacIntel,60.0024001,,,,,,,
,,,,,,,,,,,,,,,,,-44.44444444,71,20,75,-0.444444444,71.44444444,71.44444444,0.428765191,-0.28177809,1,0,0,0.1173,submitButton,46.85340803,-0.13376987,-0.378036363,0,0,0,2,13,133,55,1,71,69034,N,180,2022-02-16_12h20.00.546,orientation adjustment blockN,2021.2.3,MacIntel,60.0024001,,,,,,,
,,,,,,,,,,,,,,,,,68.88888889,-60,20,75,-3.111111111,56.88888889,56.88888889,0.371368951,-0.328568251,1,0,0,3.916,submitButton,46.93703704,0.54725708,-0.405561523,1,0,0,2,14,134,44,1,60,69034,N,180,2022-02-16_12h20.00.546,orientation adjustment blockN,2021.2.3,MacIntel,60.0024001,continueButton,,,,,,
,,,,,,,,,,,,,,,,,73.33333333,43,20,75,0.333333333,42.66666667,42.66666667,0.389675293,-0.31414917,1,0,0,1.9691,submitButton,46.90174472,-0.154033746,-0.426066013,0,0,0,2,15,135,27,1,43,69034,N,180,2022-02-16_12h20.00.546,orientation adjustment blockN,2021.2.3,MacIntel,60.0024001,,,,,,,
,,,,,,,,,,,,,,,,,42.22222222,-42,20,75,0.222222222,42.22222222,42.22222222,-0.15264072,-0.382602403,1,0,0,0.5831,submitButton,46.86338798,-0.15264072,-0.382602403,0,0,0,2,16,136,26,1,42,69034,N,180,2022-02-16_12h20.00.546,orientation adjustment blockN,2021.2.3,MacIntel,60.0024001,,,,,,,
,,,,,,,,,,,,,,,,,-54.44444444,25,20,75,1.555555556,23.44444444,23.44444444,-0.238809204,-0.419850735,1,0,0,1.1186,submitButton,46.67299006,-0.238809204,-0.419850735,0,0,0,2,17,137,9,1,25,69034,N,180,2022-02-16_12h20.00.546,orientation adjustment blockN,2021.2.3,MacIntel,60.0024001,,,,,,,
,,,,,,,,,,,,,,,,,30.55555556,-32,20,75,-1.444444444,30.55555556,30.55555556,-0.222297092,-0.399271647,1,0,0,0.5505,submitButton,46.54301075,-0.222297092,-0.399271647,0,0,0,2,18,138,16,1,32,69034,N,180,2022-02-16_12h20.00.546,orientation adjustment blockN,2021.2.3,MacIntel,60.0024001,,,,,,,
,,,,,,,,,,,,,,,,,40,66,20,75,1,65,65,0.182225206,-0.287184991,1,0,0,1.7356,submitButton,46.69066667,-0.144466824,-0.410818617,0,0,0,2,19,139,50,1,66,69034,N,180,2022-02-16_12h20.00.546,orientation adjustment blockN,2021.2.3,MacIntel,60.0024001,,,,,,,
,,,,,,,,,,,,,,,,,-23.33333333,-62,20,75,-3.333333333,58.66666667,58.66666667,0.214934964,-0.270484416,1,0,0,154.727,submitButton,46.78571429,-0.128785739,-0.384588962,0,0,0,2,20,140,46,1,62,69034,N,180,2022-02-16_12h20.00.546,orientation adjustment blockN,2021.2.3,MacIntel,60.0024001,,,,,,,
,,,,,,,,,,,,,,,,,40,-57,20,75,2,59,59,0.207808295,-0.322431844,1,0,0,0.2506,submitButton,46.88188976,-0.168583035,-0.415780029,0,0,0,2,21,141,41,1,57,69034,N,180,2022-02-16_12h20.00.546,orientation adjustment blockN,2021.2.3,MacIntel,60.0024001,,,,,,,
,,,,,,,,,,,,,,,,,-50,64,20,75,3,61,61,0.371618381,-0.29304952,1,0,0,0.2333,submitButton,46.9921875,-0.168293457,-0.410154758,0,0,0,2,22,142,48,1,64,69034,N,180,2022-02-16_12h20.00.546,orientation adjustment blockN,2021.2.3,MacIntel,60.0024001,,,,,,,
,,,,,,,,,,,,,,,,,64.44444444,38,20,75,2.444444444,35.55555556,35.55555556,-0.128713854,-0.394489407,1,0,0,1.9649,submitButton,46.90353144,-0.128713854,-0.394489407,0,0,0,2,23,143,22,1,38,69034,N,180,2022-02-16_12h20.00.546,orientation adjustment blockN,2021.2.3,MacIntel,60.0024001,,,,,,,
,,,,,,,,,,,,,,,,,22.77777778,-73,20,75,2.777777778,75.77777778,75.77777778,-0.149077759,-0.413454183,1,0,0,0.9333,submitButton,47.12564103,-0.149077759,-0.413454183,0,0,0,2,24,144,57,1,73,69034,N,180,2022-02-16_12h20.00.546,orientation adjustment blockN,2021.2.3,MacIntel,60.0024001,,,,,,,
,,,,,,,,,,,,,,,,,73.33333333,26,20,75,0.333333333,25.66666667,25.66666667,-0.151236776,-0.393844537,1,0,0,1.9851,submitButton,46.96183206,-0.151236776,-0.393844537,0,0,0,2,25,145,10,1,26,69034,N,180,2022-02-16_12h20.00.546,orientation adjustment blockN,2021.2.3,MacIntel,60.0024001,,,,,,,
,,,,,,,,,,,,,,,,,74.44444444,-29,20,75,-1.555555556,27.44444444,27.44444444,0.402508545,-0.310759616,1,0,0,0.8647,submitButton,46.81397306,-0.132464871,-0.401211344,0,0,0,2,26,146,13,1,29,69034,N,180,2022-02-16_12h20.00.546,orientation adjustment blockN,2021.2.3,MacIntel,60.0024001,,,,,,,
,,,,,,,,,,,,,,,,,37.77777778,-72,20,75,2.777777778,74.77777778,74.77777778,0.224809028,-0.324845174,1,0,0,0.1169,submitButton,47.02422723,-0.147605387,-0.396197849,0,0,0,2,27,147,56,1,72,69034,N,180,2022-02-16_12h20.00.546,orientation adjustment blockN,2021.2.3,MacIntel,60.0024001,,,,,,,
,,,,,,,,,,,,,,,,,73.33333333,58,20,75,-0.666666667,58.66666667,58.66666667,0.22409417,-0.316377157,1,0,0,2.3495,submitButton,47.11111111,-0.146701525,-0.39649075,0,0,0,2,28,148,42,1,58,69034,N,180,2022-02-16_12h20.00.546,orientation adjustment blockN,2021.2.3,MacIntel,60.0024001,,,,,,,
,,,,,,,,,,,,,,,,,-33.88888889,75,20,75,2.111111111,72.88888889,72.88888889,0.159984131,-0.324158732,1,0,0,0.1336,submitButton,47.30205761,-0.141597697,-0.380011258,0,0,0,2,29,149,59,1,75,69034,N,180,2022-02-16_12h20.00.546,orientation adjustment blockN,2021.2.3,MacIntel,60.0024001,,,,,,,
,,,,,,,,,,,,,,,,,-25.55555556,-36,20,75,4.444444444,40.44444444,40.44444444,-0.156522759,-0.413066271,1,0,0,0.999,submitButton,47.25163399,-0.156522759,-0.413066271,0,0,0,2,30,150,20,1,36,69034,N,180,2022-02-16_12h20.00.546,orientation adjustment blockN,2021.2.3,MacIntel,60.0024001,,,,,,,
,,,,,,,,,,,,,,,,,22.22222222,33,20,75,181.2222222,31.77777778,31.77777778,-0.164587267,-0.41471856,1,0,0,2.6491,submitButton,47.13868613,0.127106255,-0.273619385,0,0,0,2,31,151,17,1,33,69034,N,180,2022-02-16_12h20.00.546,orientation adjustment blockN,2021.2.3,MacIntel,60.0024001,,,,,,,
,,,,,,,,,,,,,,,,,22.77777778,-30,20,75,3.777777778,33.77777778,33.77777778,-0.182558594,-0.392373928,1,0,0,0.4162,submitButton,47.04186795,-0.182558594,-0.392373928,0,0,0,2,32,152,14,1,30,69034,N,180,2022-02-16_12h20.00.546,orientation adjustment blockN,2021.2.3,MacIntel,60.0024001,,,,,,,
,,,,,,,,,,,,,,,,,-69.44444444,-17,20,75,-0.444444444,16.55555556,16.55555556,-0.168726671,-0.423890177,1,0,0,1.8319,submitButton,46.82254197,-0.168726671,-0.423890177,0,0,0,2,33,153,1,1,17,69034,N,180,2022-02-16_12h20.00.546,orientation adjustment blockN,2021.2.3,MacIntel,60.0024001,,,,,,,
,,,,,,,,,,,,,,,,,-72.77777778,49,20,75,4.222222222,44.77777778,44.77777778,0.19376865,-0.315025431,1,0,0,0.0819,submitButton,46.80793651,-0.189943712,-0.400971883,0,0,0,2,34,154,33,1,49,69034,N,180,2022-02-16_12h20.00.546,orientation adjustment blockN,2021.2.3,MacIntel,60.0024001,,,,,,,
,,,,,,,,,,,,,,,,,53.88888889,-35,20,75,2.888888889,37.88888889,37.88888889,0.46742947,-0.306319241,1,0,0,2.1664,submitButton,46.74468085,-0.12835083,-0.39845615,0,0,0,2,35,155,19,1,35,69034,N,180,2022-02-16_12h20.00.546,orientation adjustment blockN,2021.2.3,MacIntel,60.0024001,,,,,,,
,,,,,,,,,,,,,,,,,30.55555556,50,20,75,1.555555556,48.44444444,48.44444444,-0.210955878,-0.397225884,1,0,0,1.3677,submitButton,46.75665102,-0.210955878,-0.397225884,0,0,0,2,36,156,34,1,50,69034,N,180,2022-02-16_12h20.00.546,orientation adjustment blockN,2021.2.3,MacIntel,60.0024001,,,,,,,
,,,,,,,,,,,,,,,,,67.22222222,18,20,75,-0.777777778,18.77777778,18.77777778,0.41912991,-0.301821018,1,0,0,3.2355,submitButton,46.56099456,-0.138871596,-0.417070787,0,0,0,2,37,157,2,1,18,69034,N,180,2022-02-16_12h20.00.546,orientation adjustment blockN,2021.2.3,MacIntel,60.0024001,,,,,,,
,,,,,,,,,,,,,,,,,50,-23,20,75,4,27,27,0.414243435,-0.333315226,1,0,0,6.7821,submitButton,46.42515432,-0.156547038,-0.404784139,0,0,0,2,38,158,7,1,23,69034,N,180,2022-02-16_12h20.00.546,orientation adjustment blockN,2021.2.3,MacIntel,60.0024001,,,,,,,
,,,,,,,,,,,,,,,,,44.44444444,74,20,75,182.4444444,71.55555556,71.55555556,0.14954088,-0.326719428,1,0,0,18.5991,submitButton,46.59846743,-0.186797485,-0.403668959,0,0,0,2,39,159,58,1,74,69034,N,180,2022-02-16_12h20.00.546,orientation adjustment blockN,2021.2.3,MacIntel,60.0024001,,,,,,,
,,,,,,,,,,,,,,,,,-23.33333333,-20,20,75,5.666666667,25.66666667,25.66666667,0.204529419,-0.325935059,1,0,0,1.8659,submitButton,46.45509893,-0.179361098,-0.401762153,0,0,0,2,40,160,4,1,20,69034,N,180,2022-02-16_12h20.00.546,orientation adjustment blockN,2021.2.3,MacIntel,60.0024001,,,,,,,
,,,,,,,,,,,,,,,,,-22.22222222,-65,20,75,-0.222222222,64.77777778,64.77777778,-0.129863892,-0.41733412,1,0,0,1.6337,submitButton,46.57974301,-0.129863892,-0.41733412,0,0,0,2,41,161,49,1,65,69034,N,180,2022-02-16_12h20.00.546,orientation adjustment blockN,2021.2.3,MacIntel,60.0024001,,,,,,,
,,,,,,,,,,,,,,,,,60,-55,20,75,-1,54,54,0.394008247,-0.288410373,1,0,0,0.1827,submitButton,46.62987988,0.149848158,-0.302583008,0,0,0,2,42,162,39,1,55,69034,N,180,2022-02-16_12h20.00.546,orientation adjustment blockN,2021.2.3,MacIntel,60.0024001,,,,,,,
,,,,,,,,,,,,,,,,,-74.44444444,-34,20,75,1.555555556,35.55555556,35.55555556,0.244510295,-0.31426039,1,0,0,1.0988,submitButton,46.55555556,-0.142524753,-0.4021521,0,0,0,2,43,163,18,1,34,69034,N,180,2022-02-16_12h20.00.546,orientation adjustment blockN,2021.2.3,MacIntel,60.0024001,,,,,,,
,,,,,,,,,,,,,,,,,68.88888889,-45,20,75,2.888888889,47.88888889,47.88888889,0.433398709,-0.306801351,1,0,0,0.3667,submitButton,46.56444444,-0.137406955,-0.393738132,0,0,0,2,44,164,29,1,45,69034,N,180,2022-02-16_12h20.00.546,orientation adjustment blockN,2021.2.3,MacIntel,60.0024001,,,,,,,
,,,,,,,,,,,,,,,,,62.22222222,56,20,75,178.2222222,57.77777778,57.77777778,0.215514052,-0.278800795,1,0,0,1.3333,submitButton,46.63870493,-0.164819132,-0.39992669,0,0,0,2,45,165,40,1,56,69034,N,180,2022-02-16_12h20.00.546,orientation adjustment blockN,2021.2.3,MacIntel,60.0024001,,,,,,,
,,,,,,,,,,,,,,,,,-55,70,20,75,1,69,69,0.377719184,-0.327857734,1,0,0,0.1156,submitButton,46.78581871,-0.143984578,-0.398728638,0,0,0,2,46,166,54,1,70,69034,N,180,2022-02-16_12h20.00.546,orientation adjustment blockN,2021.2.3,MacIntel,60.0024001,,,,,,,
,,,,,,,,,,,,,,,,,35,-22,20,75,4,26,26,0.365854899,-0.303117065,1,0,0,0.0307,submitButton,46.64996369,-0.139254354,-0.395994737,0,0,0,2,47,167,6,1,22,69034,N,180,2022-02-16_12h20.00.546,orientation adjustment blockN,2021.2.3,MacIntel,60.0024001,,,,,,,
,,,,,,,,,,,,,,,,,-61.11111111,68,20,75,0.888888889,67.11111111,67.11111111,0.367765842,-0.3062382,1,0,0,1.6161,submitButton,46.78282828,-0.142528958,-0.403014662,0,0,0,2,48,168,52,1,68,69034,N,180,2022-02-16_12h20.00.546,orientation adjustment blockN,2021.2.3,MacIntel,60.0024001,,,,,,,
,,,,,,,,,,,,,,,,,33.33333333,21,20,75,-0.666666667,21.66666667,21.66666667,0.402637126,-0.346168416,1,0,0,0.2492,submitButton,46.62078853,-0.133102892,-0.399719984,0,0,0,2,49,169,5,1,21,69034,N,180,2022-02-16_12h20.00.546,orientation adjustment blockN,2021.2.3,MacIntel,60.0024001,,,,,,,
,,,,,,,,,,,,,,,,,-57.22222222,-39,20,75,-183.2222222,35.77777778,35.77777778,0.445489773,-0.309578857,1,0,0,1.0683,submitButton,46.55128205,0.210911797,-0.268710802,0,0,0,2,50,170,23,1,39,69034,N,180,2022-02-16_12h20.00.546,orientation adjustment blockN,2021.2.3,MacIntel,60.0024001,,,,,,,
,,,,,,,,,,,,,,,,,-46.66666667,44,20,75,3.333333333,40.66666667,40.66666667,-0.144462755,-0.416978963,1,0,0,1.2846,submitButton,46.51380042,-0.144462755,-0.416978963,0,0,0,2,51,171,28,1,44,69034,N,180,2022-02-16_12h20.00.546,orientation adjustment blockN,2021.2.3,MacIntel,60.0024001,,,,,,,
,,,,,,,,,,,,,,,,,-50.55555556,-41,20,75,3.444444444,44.44444444,44.44444444,-0.144573025,-0.407927314,1,0,0,1.5814,submitButton,46.50070323,-0.144573025,-0.407927314,0,0,0,2,52,172,25,1,41,69034,N,180,2022-02-16_12h20.00.546,orientation adjustment blockN,2021.2.3,MacIntel,60.0024001,,,,,,,
,,,,,,,,,,,,,,,,,-56.11111111,-52,20,75,2.888888889,54.88888889,54.88888889,0.408189562,-0.29363661,1,0,0,2.7324,submitButton,46.55345912,-0.137525431,-0.398684557,0,0,0,2,53,173,36,1,52,69034,N,180,2022-02-16_12h20.00.546,orientation adjustment blockN,2021.2.3,MacIntel,60.0024001,,,,,,,
,,,,,,,,,,,,,,,,,-46.11111111,37,20,75,1.888888889,35.11111111,35.11111111,0.203078342,-0.307960612,1,0,0,0.014,submitButton,46.48194444,-0.170862698,-0.400717027,0,0,0,2,54,174,21,1,37,69034,N,180,2022-02-16_12h20.00.546,orientation adjustment blockN,2021.2.3,MacIntel,60.0024001,,,,,,,
,,,,,,,,,,,,,,,,,-49.44444444,-54,20,75,-0.444444444,53.55555556,53.55555556,-0.202663574,-0.392965698,1,0,0,1.4512,submitButton,46.52587992,-0.202663574,-0.392965698,0,0,0,2,55,175,38,1,54,69034,N,180,2022-02-16_12h20.00.546,orientation adjustment blockN,2021.2.3,MacIntel,60.0024001,,,,,,,
,,,,,,,,,,,,,,,,,-36.66666667,-24,20,75,0.333333333,24.33333333,24.33333333,-0.18475118,-0.409993015,1,0,0,0.9825,submitButton,46.38888889,-0.18475118,-0.409993015,0,0,0,2,56,176,8,1,24,69034,N,180,2022-02-16_12h20.00.546,orientation adjustment blockN,2021.2.3,MacIntel,60.0024001,,,,,,,
,,,,,,,,,,,,,,,,,33.88888889,-61,20,75,2.888888889,63.88888889,63.88888889,0.199594591,-0.301978895,1,0,0,0.3011,submitButton,46.49625085,-0.149270562,-0.410554131,0,0,0,2,57,177,45,1,61,69034,N,180,2022-02-16_12h20.00.546,orientation adjustment blockN,2021.2.3,MacIntel,60.0024001,,,,,,,
,,,,,,,,,,,,,,,,,-30.55555556,-67,20,75,-2.555555556,64.44444444,64.44444444,0.20812873,-0.318871935,1,0,0,0.9999,submitButton,46.60569106,-0.114477471,-0.398317735,0,0,0,2,58,178,51,1,67,69034,N,180,2022-02-16_12h20.00.546,orientation adjustment blockN,2021.2.3,MacIntel,60.0024001,,,,,,,
,,,,,,,,,,,,,,,,,-62.77777778,16,20,75,5.222222222,10.77777778,10.77777778,0.172543267,-0.306359795,1,0,0,0.5662,submitButton,46.38855219,-0.146052585,-0.421176351,0,0,0,2,59,179,0,1,16,69034,N,180,2022-02-16_12h20.00.546,orientation adjustment blockN,2021.2.3,MacIntel,60.0024001,,,,,,,
,,,,,,,,,,,,,,,,,,,,,,,,,,,,,,,,,,,,,,,,,,,69034,N,180,2022-02-16_12h20.00.546,orientation adjustment blockN,2021.2.3,MacIntel,60.0024001,,0.396436089,-0.39614719,1,0,0,EndButtonTxt
