consentMouse1.x,consentMouse1.y,consentMouse1.leftButton,consentMouse1.midButton,consentMouse1.rightButton,consentMouse1.clicked_name,consent_Mouse.x,consent_Mouse.y,consent_Mouse.leftButton,consent_Mouse.midButton,consent_Mouse.rightButton,consent_Mouse.clicked_name,startMouse.x,startMouse.y,startMouse.leftButton,startMouse.midButton,startMouse.rightButton,startMouse_2.x,startMouse_2.y,startMouse_2.leftButton,startMouse_2.midButton,startMouse_2.rightButton,start_distance,fixedOri,minimalDistance,maxOri,this_ori,accuracy,presented_accuracy,presented_this_ori,submitMouse.x,submitMouse.y,submitMouse.leftButton,submitMouse.midButton,submitMouse.rightButton,submitMouse.time,submitMouse.clicked_name,pauseMouse.x,pauseMouse.y,pauseMouse.leftButton,pauseMouse.midButton,pauseMouse.rightButton,trials.thisRepN,trials.thisTrialN,trials.thisN,trials.thisIndex,trials.ran,startOri,participant,condition,nTrials,date,expName,psychopyVersion,OS,frameRate,pauseMouse.clicked_name,EndButtonMouse.x,EndButtonMouse.y,EndButtonMouse.leftButton,EndButtonMouse.midButton,EndButtonMouse.rightButton,EndButtonMouse.clicked_name
0.425000133,-0.393518532,1,0,0,consent_button1,0.410185205,-0.414814828,1,0,0,consent_button,0.368518537,-0.226851863,1,0,0,0.586111133,-0.078703712,1,0,0,-57.22222222,-48,20,75,-81.22222222,33.22222222,26.57777778,-164.5777778,0.187962979,-0.294444456,1,0,0,0.8159,submitButton,-0.240740731,-0.407407421,0,0,0,0,0,0,32,1,48,67051,2,180,2022-02-16_21h01.45.323,orientation adjustment 2,2021.2.3,Win32,58.76476465,,,,,,,
,,,,,,,,,,,,,,,,,,,,,,57.22222222,52,20,75,46.22222222,5.777777778,2.311111111,-40.31111111,0.406481614,-0.325000012,1,0,0,0.2667,submitButton,-0.237962953,-0.381481551,0,0,0,0,1,1,36,1,52,67051,2,180,2022-02-16_21h01.45.323,orientation adjustment 2,2021.2.3,Win32,58.76476465,,,,,,,
,,,,,,,,,,,,,,,,,,,,,,62.77777778,44,20,75,61.77777778,17.77777778,11.55555556,-34.44444444,0.372222241,-0.300925938,1,0,0,0.733,submitButton,-0.374074066,-0.411111125,0,0,0,0,2,2,28,1,44,67051,2,180,2022-02-16_21h01.45.323,orientation adjustment 2,2021.2.3,Win32,58.76476465,,,,,,,
,,,,,,,,,,,,,,,,,,,,,,-71.66666667,-51,20,75,-54.66666667,3.666666667,1.466666667,-142.4666667,0.181481497,-0.301851864,1,0,0,0.1832,submitButton,-0.308333325,-0.418518589,0,0,0,0,3,3,35,1,51,67051,2,180,2022-02-16_21h01.45.323,orientation adjustment 2,2021.2.3,Win32,58.76476465,,,,,,,
,,,,,,,,,,,,,,,,,,,,,,-40.55555556,56,20,75,27.44444444,28.55555556,18.56111111,-52.56111111,0.184259275,-0.295370382,1,0,0,0.4667,submitButton,-0.24999999,-0.387962976,0,0,0,0,4,4,40,1,56,67051,2,180,2022-02-16_21h01.45.323,orientation adjustment 2,2021.2.3,Win32,58.76476465,,,,,,,
,,,,,,,,,,,,,,,,,,,,,,-49.44444444,24,20,75,-169.4444444,13.44444444,5.377777778,-71.37777778,0.422222242,-0.299074086,1,0,0,0.6168,submitButton,-0.29351851,-0.40000007,0,0,0,0,5,5,8,1,24,67051,2,180,2022-02-16_21h01.45.323,orientation adjustment 2,2021.2.3,Win32,58.76476465,,,,,,,
,,,,,,,,,,,,,,,,,,,,,,38.88888889,20,20,75,9.888888889,10.11111111,4.044444444,-74.04444444,0.443518651,-0.282407419,1,0,0,0.3625,submitButton,-0.230555546,-0.405555569,0,0,0,0,6,6,4,1,20,67051,2,180,2022-02-16_21h01.45.323,orientation adjustment 2,2021.2.3,Win32,58.76476465,,,,,,,
,,,,,,,,,,,,,,,,,,,,,,-27.22222222,50,20,75,48.77777778,1.222222222,0.488888889,-40.48888889,0.201851868,-0.287037049,1,0,0,0.7456,submitButton,-0.243518452,-0.389814828,0,0,0,0,7,7,34,1,50,67051,2,180,2022-02-16_21h01.45.323,orientation adjustment 2,2021.2.3,Win32,58.76476465,,,,,,,
,,,,,,,,,,,,,,,,,,,,,,70.55555556,70,20,75,86.55555556,16.55555556,10.76111111,-9.238888889,0.426851871,-0.290740753,1,0,0,0.546,submitButton,-0.243518452,-0.392592606,0,0,0,0,8,8,54,1,70,67051,2,180,2022-02-16_21h01.45.323,orientation adjustment 2,2021.2.3,Win32,58.76476465,,,,,,,
,,,,,,,,,,,,,,,,,,,,,,-36.11111111,-59,20,75,-49.11111111,9.888888889,3.955555556,-145.0444444,0.173148164,-0.32777779,1,0,0,0.1212,submitButton,0.02592594,-0.201851862,0,0,0,0,9,9,43,1,59,67051,2,180,2022-02-16_21h01.45.323,orientation adjustment 2,2021.2.3,Win32,58.76476465,,,,,,,
,,,,,,,,,,,,,,,,,,,,,,-51.11111111,67,20,75,53.88888889,13.11111111,5.244444444,-28.24444444,0.164814831,-0.254629641,1,0,0,0.4665,submitButton,-0.204629619,-0.398148162,0,0,0,0,10,10,51,1,67,67051,2,180,2022-02-16_21h01.45.323,orientation adjustment 2,2021.2.3,Win32,58.76476465,,,,,,,
,,,,,,,,,,,,,,,,,,,,,,60,71,20,75,74,3,1.2,-17.8,0.374074206,-0.300925938,1,0,0,0.2292,submitButton,-0.233333324,-0.388888902,0,0,0,0,11,11,55,1,71,67051,2,180,2022-02-16_21h01.45.323,orientation adjustment 2,2021.2.3,Win32,58.76476465,,,,,,,
,,,,,,,,,,,,,,,,,,,,,,-64.44444444,68,20,75,42.55555556,25.44444444,16.53888889,-38.53888889,0.198148164,-0.309259271,1,0,0,0.0168,submitButton,-0.239814805,-0.412962977,0,0,0,0,12,12,52,1,68,67051,2,180,2022-02-16_21h01.45.323,orientation adjustment 2,2021.2.3,Win32,58.76476465,,,,,,,
,,,,,,,,,,,,,,,,,,,,,,60,-42,20,75,-41,1,0.4,-131.6,0.415740873,-0.283333345,1,0,0,0.3334,submitButton,-0.184259249,-0.398148162,0,0,0,0,13,13,26,1,42,67051,2,180,2022-02-16_21h01.45.323,orientation adjustment 2,2021.2.3,Win32,58.76476465,,,,,,,
,,,,,,,,,,,,,,,,,,,,,,28.88888889,-53,20,75,-38.11111111,14.88888889,5.955555556,-137.0444444,0.455555576,-0.285185197,1,0,0,0.4328,submitButton,0.312962981,-0.389814828,1,0,0,0,14,14,37,1,53,67051,2,180,2022-02-16_21h01.45.323,orientation adjustment 2,2021.2.3,Win32,58.76476465,pause_continueButton,,,,,,
,,,,,,,,,,,,,,,,,,,,,,57.22222222,-34,20,75,-26.77777778,7.222222222,2.888888889,-121.1111111,0.462962983,-0.284259327,1,0,0,0.0494,submitButton,0.185185201,-0.26851853,0,0,0,0,15,15,18,1,34,67051,2,180,2022-02-16_21h01.45.323,orientation adjustment 2,2021.2.3,Win32,58.76476465,,,,,,,
,,,,,,,,,,,,,,,,,,,,,,-22.22222222,49,20,75,51.77777778,2.777777778,1.111111111,-39.88888889,0.225000017,-0.304629642,1,0,0,0.2163,submitButton,-0.078703692,-0.312962975,0,0,0,0,16,16,33,1,49,67051,2,180,2022-02-16_21h01.45.323,orientation adjustment 2,2021.2.3,Win32,58.76476465,,,,,,,
,,,,,,,,,,,,,,,,,,,,,,-71.66666667,-57,20,75,-61.66666667,4.666666667,1.866666667,-148.8666667,0.210185202,-0.282407419,1,0,0,1.3461,submitButton,0.0851852,-0.306481493,0,0,0,0,17,17,41,1,57,67051,2,180,2022-02-16_21h01.45.323,orientation adjustment 2,2021.2.3,Win32,58.76476465,,,,,,,
,,,,,,,,,,,,,,,,,,,,,,53.88888889,-28,20,75,-19.11111111,8.888888889,3.555555556,-114.4444444,0.409259279,-0.283333345,1,0,0,0.3497,submitButton,-0.211111044,-0.392592606,0,0,0,0,18,18,12,1,28,67051,2,180,2022-02-16_21h01.45.323,orientation adjustment 2,2021.2.3,Win32,58.76476465,,,,,,,
,,,,,,,,,,,,,,,,,,,,,,23.33333333,16,20,75,15.33333333,0.666666667,0.266666667,-74.26666667,0.405555575,-0.309259271,1,0,0,0.3331,submitButton,-0.245370361,-0.41666668,0,0,0,0,19,19,0,1,16,67051,2,180,2022-02-16_21h01.45.323,orientation adjustment 2,2021.2.3,Win32,58.76476465,,,,,,,
,,,,,,,,,,,,,,,,,,,,,,31.66666667,-66,20,75,31.66666667,82.33333333,65.86666667,-90.13333333,0.212962979,-0.261111179,1,0,0,0.563,submitButton,-0.27592586,-0.399074087,0,0,0,0,20,20,50,1,66,67051,2,180,2022-02-16_21h01.45.323,orientation adjustment 2,2021.2.3,Win32,58.76476465,,,,,,,
,,,,,,,,,,,,,,,,,,,,,,-20,36,20,75,40,4,1.6,-52.4,0.229629646,-0.294444456,1,0,0,0.5458,submitButton,-0.231481472,-0.412962977,0,0,0,0,21,21,20,1,36,67051,2,180,2022-02-16_21h01.45.323,orientation adjustment 2,2021.2.3,Win32,58.76476465,,,,,,,
,,,,,,,,,,,,,,,,,,,,,,-51.11111111,-75,20,75,-82.11111111,7.111111111,2.844444444,-167.8444444,0.212962979,-0.292592604,1,0,0,0.8292,submitButton,-0.178703637,-0.33240742,0,0,0,0,22,22,59,1,75,67051,2,180,2022-02-16_21h01.45.323,orientation adjustment 2,2021.2.3,Win32,58.76476465,,,,,,,
,,,,,,,,,,,,,,,,,,,,,,-65.55555556,-45,20,75,-56.55555556,11.55555556,4.622222222,-139.6222222,0.212962979,-0.287037049,1,0,0,0.1335,submitButton,-0.232407398,-0.412037051,0,0,0,0,23,23,29,1,45,67051,2,180,2022-02-16_21h01.45.323,orientation adjustment 2,2021.2.3,Win32,58.76476465,,,,,,,
,,,,,,,,,,,,,,,,,,,,,,-39.44444444,-41,20,75,-29.44444444,11.55555556,4.622222222,-126.3777778,0.209259276,-0.307407476,1,0,0,0.0336,submitButton,-0.24999999,-0.412962977,0,0,0,0,24,24,25,1,41,67051,2,180,2022-02-16_21h01.45.323,orientation adjustment 2,2021.2.3,Win32,58.76476465,,,,,,,
,,,,,,,,,,,,,,,,,,,,,,44.44444444,62,20,75,73.44444444,11.44444444,4.577777778,-23.42222222,0.360185317,-0.292592604,1,0,0,0.7665,submitButton,-0.228703694,-0.420370384,0,0,0,0,25,25,46,1,62,67051,2,180,2022-02-16_21h01.45.323,orientation adjustment 2,2021.2.3,Win32,58.76476465,,,,,,,
,,,,,,,,,,,,,,,,,,,,,,-22.22222222,-30,20,75,-27.22222222,2.777777778,1.111111111,-118.8888889,0.213888905,-0.282407419,1,0,0,0.3337,submitButton,-0.159259248,-0.389814828,0,0,0,0,26,26,14,1,30,67051,2,180,2022-02-16_21h01.45.323,orientation adjustment 2,2021.2.3,Win32,58.76476465,,,,,,,
,,,,,,,,,,,,,,,,,,,,,,-72.22222222,37,20,75,-118.2222222,24.77777778,16.10555556,-69.10555556,0.396296315,-0.298148217,1,0,0,0.2511,submitButton,-0.243518452,-0.413888959,0,0,0,0,27,27,21,1,37,67051,2,180,2022-02-16_21h01.45.323,orientation adjustment 2,2021.2.3,Win32,58.76476465,,,,,,,
,,,,,,,,,,,,,,,,,,,,,,22.22222222,43,20,75,40.22222222,2.777777778,1.111111111,-48.11111111,0.388888908,-0.280555567,1,0,0,0.4,submitButton,-0.314814806,-0.413888959,0,0,0,0,28,28,27,1,43,67051,2,180,2022-02-16_21h01.45.323,orientation adjustment 2,2021.2.3,Win32,58.76476465,,,,,,,
,,,,,,,,,,,,,,,,,,,,,,57.77777778,63,20,75,74.77777778,11.77777778,4.711111111,-22.28888889,0.437962983,-0.298148217,1,0,0,0.511,submitButton,0.461111131,-0.407407421,1,0,0,0,29,29,47,1,63,67051,2,180,2022-02-16_21h01.45.323,orientation adjustment 2,2021.2.3,Win32,58.76476465,pause_continueButton,,,,,,
,,,,,,,,,,,,,,,,,,,,,,36.66666667,35,20,75,44.66666667,9.666666667,3.866666667,-51.13333333,0.421296316,-0.269444456,1,0,0,0.0833,submitButton,0.368518537,-0.250000011,0,0,0,0,30,30,19,1,35,67051,2,180,2022-02-16_21h01.45.323,orientation adjustment 2,2021.2.3,Win32,58.76476465,,,,,,,
,,,,,,,,,,,,,,,,,,,,,,70.55555556,-22,20,75,-17.44444444,4.555555556,1.822222222,-110.1777778,0.443518651,-0.300925938,1,0,0,0.4666,submitButton,-0.19074073,-0.406481495,0,0,0,0,31,31,6,1,22,67051,2,180,2022-02-16_21h01.45.323,orientation adjustment 2,2021.2.3,Win32,58.76476465,,,,,,,
,,,,,,,,,,,,,,,,,,,,,,41.11111111,21,20,75,25.11111111,4.111111111,1.644444444,-67.35555556,0.362037056,-0.291666678,1,0,0,0.1111,submitButton,-0.233333324,-0.379629643,0,0,0,0,32,32,5,1,21,67051,2,180,2022-02-16_21h01.45.323,orientation adjustment 2,2021.2.3,Win32,58.76476465,,,,,,,
,,,,,,,,,,,,,,,,,,,,,,72.77777778,32,20,75,162.7777778,49.22222222,39.37777778,-18.62222222,0.190740757,-0.294444456,1,0,0,0.1665,submitButton,-0.321296288,-0.411111125,0,0,0,0,33,33,16,1,32,67051,2,180,2022-02-16_21h01.45.323,orientation adjustment 2,2021.2.3,Win32,58.76476465,,,,,,,
,,,,,,,,,,,,,,,,,,,,,,35.55555556,25,20,75,36.55555556,11.55555556,4.622222222,-60.37777778,0.378703836,-0.300000012,1,0,0,0.1333,submitButton,-0.302777769,-0.408333347,0,0,0,0,34,34,9,1,25,67051,2,180,2022-02-16_21h01.45.323,orientation adjustment 2,2021.2.3,Win32,58.76476465,,,,,,,
,,,,,,,,,,,,,,,,,,,,,,-44.44444444,-69,20,75,-66.44444444,2.555555556,1.022222222,-157.9777778,0.38611113,-0.300925938,1,0,0,1.3791,submitButton,-0.281481472,-0.410185199,0,0,0,0,35,35,53,1,69,67051,2,180,2022-02-16_21h01.45.323,orientation adjustment 2,2021.2.3,Win32,58.76476465,,,,,,,
,,,,,,,,,,,,,,,,,,,,,,-21.11111111,46,20,75,49.88888889,3.888888889,1.555555556,-42.44444444,0.200000016,-0.300000012,1,0,0,0.0329,submitButton,-0.224074064,-0.39629631,0,0,0,0,36,36,30,1,46,67051,2,180,2022-02-16_21h01.45.323,orientation adjustment 2,2021.2.3,Win32,58.76476465,,,,,,,
,,,,,,,,,,,,,,,,,,,,,,-47.77777778,60,20,75,49.22222222,10.77777778,4.311111111,-34.31111111,0.212037053,-0.303703716,1,0,0,0.0165,submitButton,-0.185185175,-0.375000013,0,0,0,0,37,37,44,1,60,67051,2,180,2022-02-16_21h01.45.323,orientation adjustment 2,2021.2.3,Win32,58.76476465,,,,,,,
,,,,,,,,,,,,,,,,,,,,,,-23.88888889,54,20,75,18.11111111,35.88888889,28.71111111,-64.71111111,0.379629649,-0.287962975,1,0,0,0.1213,submitButton,0.014814828,-0.278703715,0,0,0,0,38,38,38,1,54,67051,2,180,2022-02-16_21h01.45.323,orientation adjustment 2,2021.2.3,Win32,58.76476465,,,,,,,
,,,,,,,,,,,,,,,,,,,,,,-34.44444444,40,20,75,30.55555556,9.444444444,3.777777778,-53.77777778,0.193518535,-0.287037049,1,0,0,0.2288,submitButton,-0.219444434,-0.400925939,0,0,0,0,39,39,24,1,40,67051,2,180,2022-02-16_21h01.45.323,orientation adjustment 2,2021.2.3,Win32,58.76476465,,,,,,,
,,,,,,,,,,,,,,,,,,,,,,58.88888889,65,20,75,72.88888889,7.888888889,3.155555556,-21.84444444,0.421296316,-0.287962975,1,0,0,0.4166,submitButton,-0.341666659,-0.402777791,0,0,0,0,40,40,49,1,65,67051,2,180,2022-02-16_21h01.45.323,orientation adjustment 2,2021.2.3,Win32,58.76476465,,,,,,,
,,,,,,,,,,,,,,,,,,,,,,-25,38,20,75,38,0,0,-52,0.201851868,-0.312962975,1,0,0,1.5996,submitButton,-0.257407341,-0.400925939,0,0,0,0,41,41,22,1,38,67051,2,180,2022-02-16_21h01.45.323,orientation adjustment 2,2021.2.3,Win32,58.76476465,,,,,,,
,,,,,,,,,,,,,,,,,,,,,,-61.11111111,-74,20,75,-78.11111111,4.111111111,1.644444444,-165.6444444,0.221296313,-0.292592604,1,0,0,0.629,submitButton,0.036111125,-0.284259327,0,0,0,0,42,42,58,1,74,67051,2,180,2022-02-16_21h01.45.323,orientation adjustment 2,2021.2.3,Win32,58.76476465,,,,,,,
,,,,,,,,,,,,,,,,,,,,,,43.88888889,-73,20,75,-71.11111111,1.888888889,0.755555556,-162.2444444,0.374074206,-0.299074086,1,0,0,0.2626,submitButton,-0.238888823,-0.402777791,0,0,0,0,43,43,57,1,73,67051,2,180,2022-02-16_21h01.45.323,orientation adjustment 2,2021.2.3,Win32,58.76476465,,,,,,,
,,,,,,,,,,,,,,,,,,,,,,37.77777778,39,20,75,53.77777778,14.77777778,5.911111111,-45.08888889,0.405555575,-0.275925937,1,0,0,0.4283,submitButton,0.51388891,-0.407407421,1,0,0,0,44,44,23,1,39,67051,2,180,2022-02-16_21h01.45.323,orientation adjustment 2,2021.2.3,Win32,58.76476465,pause_continueButton,,,,,,
,,,,,,,,,,,,,,,,,,,,,,62.77777778,47,20,75,41.77777778,5.222222222,2.088888889,-45.08888889,0.414814834,-0.318518531,1,0,0,0.5167,submitButton,0.154629645,-0.40000007,0,0,0,0,45,45,31,1,47,67051,2,180,2022-02-16_21h01.45.323,orientation adjustment 2,2021.2.3,Win32,58.76476465,,,,,,,
,,,,,,,,,,,,,,,,,,,,,,-36.11111111,23,20,75,12.88888889,10.11111111,4.044444444,-71.04444444,0.16944446,-0.294444456,1,0,0,0.3797,submitButton,-0.305555547,-0.407407421,0,0,0,0,46,46,7,1,23,67051,2,180,2022-02-16_21h01.45.323,orientation adjustment 2,2021.2.3,Win32,58.76476465,,,,,,,
,,,,,,,,,,,,,,,,,,,,,,64.44444444,-64,20,75,101.4444444,14.55555556,5.822222222,-148.1777778,-0.376851844,-0.411111125,1,0,0,3.4616,submitButton,-0.376851844,-0.411111125,0,0,0,0,47,47,48,1,64,67051,2,180,2022-02-16_21h01.45.323,orientation adjustment 2,2021.2.3,Win32,58.76476465,,,,,,,
,,,,,,,,,,,,,,,,,,,,,,-51.11111111,-72,20,75,-73.11111111,1.111111111,0.444444444,-162.4444444,-0.191666656,-0.379629643,1,0,0,1.8607,submitButton,-0.191666656,-0.379629643,0,0,0,0,48,48,56,1,72,67051,2,180,2022-02-16_21h01.45.323,orientation adjustment 2,2021.2.3,Win32,58.76476465,,,,,,,
,,,,,,,,,,,,,,,,,,,,,,-51.66666667,-33,20,75,-31.66666667,1.333333333,0.533333333,-122.4666667,0.207407424,-0.287962975,1,0,0,0.224,submitButton,-0.245370361,-0.40000007,0,0,0,0,49,49,17,1,33,67051,2,180,2022-02-16_21h01.45.323,orientation adjustment 2,2021.2.3,Win32,58.76476465,,,,,,,
,,,,,,,,,,,,,,,,,,,,,,67.77777778,-26,20,75,-14.22222222,11.77777778,4.711111111,-111.2888889,0.384259278,-0.292592604,1,0,0,0.2837,submitButton,-0.287037028,-0.409259329,0,0,0,0,50,50,10,1,26,67051,2,180,2022-02-16_21h01.45.323,orientation adjustment 2,2021.2.3,Win32,58.76476465,,,,,,,
,,,,,,,,,,,,,,,,,,,,,,-55,31,20,75,28,3,1.2,-60.2,-0.223148138,-0.41666668,1,0,0,1.5542,submitButton,-0.223148138,-0.41666668,0,0,0,0,51,51,15,1,31,67051,2,180,2022-02-16_21h01.45.323,orientation adjustment 2,2021.2.3,Win32,58.76476465,,,,,,,
,,,,,,,,,,,,,,,,,,,,,,61.11111111,61,20,75,61.11111111,0.111111111,0.044444444,-28.95555556,0.441666686,-0.289814827,1,0,0,1.0127,submitButton,-0.171296286,-0.393518532,0,0,0,0,52,52,45,1,61,67051,2,180,2022-02-16_21h01.45.323,orientation adjustment 2,2021.2.3,Win32,58.76476465,,,,,,,
,,,,,,,,,,,,,,,,,,,,,,-50,-17,20,75,-29,12,4.8,-111.8,0.212962979,-0.305555568,1,0,0,0.3124,submitButton,-0.260185176,-0.387962976,0,0,0,0,53,53,1,1,17,67051,2,180,2022-02-16_21h01.45.323,orientation adjustment 2,2021.2.3,Win32,58.76476465,,,,,,,
,,,,,,,,,,,,,,,,,,,,,,-74.44444444,19,20,75,-161.4444444,0.444444444,0.177777778,-71.17777778,0.437037057,-0.286111123,1,0,0,1.4201,submitButton,-0.219444434,-0.379629643,0,0,0,0,54,54,3,1,19,67051,2,180,2022-02-16_21h01.45.323,orientation adjustment 2,2021.2.3,Win32,58.76476465,,,,,,,
,,,,,,,,,,,,,,,,,,,,,,-45.55555556,-58,20,75,-68.55555556,10.55555556,4.222222222,-152.2222222,-0.175925915,-0.378703717,1,0,0,1.4838,submitButton,-0.175925915,-0.378703717,0,0,0,0,55,55,42,1,58,67051,2,180,2022-02-16_21h01.45.323,orientation adjustment 2,2021.2.3,Win32,58.76476465,,,,,,,
,,,,,,,,,,,,,,,,,,,,,,63.88888889,-27,20,75,-29.11111111,2.111111111,0.844444444,-117.8444444,0.375925945,-0.301851864,1,0,0,0.4379,submitButton,-0.28888888,-0.386111181,0,0,0,0,56,56,11,1,27,67051,2,180,2022-02-16_21h01.45.323,orientation adjustment 2,2021.2.3,Win32,58.76476465,,,,,,,
,,,,,,,,,,,,,,,,,,,,,,38.33333333,29,20,75,24.33333333,4.666666667,1.866666667,-62.86666667,0.378703836,-0.290740753,1,0,0,0.1499,submitButton,-0.214814805,-0.393518532,0,0,0,0,57,57,13,1,29,67051,2,180,2022-02-16_21h01.45.323,orientation adjustment 2,2021.2.3,Win32,58.76476465,,,,,,,
,,,,,,,,,,,,,,,,,,,,,,38.33333333,-55,20,75,-40.66666667,14.33333333,5.733333333,-139.2666667,0.372222241,-0.286111123,1,0,0,0.3552,submitButton,-0.249074065,-0.377777791,0,0,0,0,58,58,39,1,55,67051,2,180,2022-02-16_21h01.45.323,orientation adjustment 2,2021.2.3,Win32,58.76476465,,,,,,,
,,,,,,,,,,,,,,,,,,,,,,-47.77777778,-18,20,75,-24.77777778,6.777777778,2.711111111,-110.7111111,0.187037053,-0.32314816,1,0,0,0.4128,submitButton,0.275925943,-0.387962976,1,0,0,0,59,59,2,1,18,67051,2,180,2022-02-16_21h01.45.323,orientation adjustment 2,2021.2.3,Win32,58.76476465,pause_continueButton,,,,,,
,,,,,,,,,,,,,,,,,,,,,,75,51,20,75,52,1,0.4,-38.6,0.429629762,-0.301851864,1,0,0,0.2798,submitButton,-0.235185175,-0.38703705,0,0,0,1,0,60,35,1,51,67051,2,180,2022-02-16_21h01.45.323,orientation adjustment 2,2021.2.3,Win32,58.76476465,,,,,,,
,,,,,,,,,,,,,,,,,,,,,,-39.44444444,-27,20,75,-30.44444444,3.444444444,1.377777778,-118.3777778,0.157407423,-0.294444456,1,0,0,0.0839,submitButton,-0.164814748,-0.40000007,0,0,0,1,1,61,11,1,27,67051,2,180,2022-02-16_21h01.45.323,orientation adjustment 2,2021.2.3,Win32,58.76476465,,,,,,,
,,,,,,,,,,,,,,,,,,,,,,-24.44444444,74,20,75,77.55555556,3.555555556,1.422222222,-14.57777778,-0.230555546,-0.388888902,1,0,0,1.2114,submitButton,-0.230555546,-0.388888902,0,0,0,1,2,62,58,1,74,67051,2,180,2022-02-16_21h01.45.323,orientation adjustment 2,2021.2.3,Win32,58.76476465,,,,,,,
,,,,,,,,,,,,,,,,,,,,,,-55.55555556,41,20,75,38.44444444,2.555555556,1.022222222,-50.02222222,-0.271296231,-0.403703717,1,0,0,1.5624,submitButton,0.097222237,-0.313888901,0,0,0,1,3,63,25,1,41,67051,2,180,2022-02-16_21h01.45.323,orientation adjustment 2,2021.2.3,Win32,58.76476465,,,,,,,
,,,,,,,,,,,,,,,,,,,,,,37.22222222,-63,20,75,-51.77777778,11.22222222,4.488888889,-148.5111111,0.387963095,-0.281481493,1,0,0,0.0504,submitButton,0.087037052,-0.335185254,0,0,0,1,4,64,47,1,63,67051,2,180,2022-02-16_21h01.45.323,orientation adjustment 2,2021.2.3,Win32,58.76476465,,,,,,,
,,,,,,,,,,,,,,,,,,,,,,55.55555556,-19,20,75,-14.44444444,4.555555556,1.822222222,-107.1777778,0.422222242,-0.261111179,1,0,0,0.0331,submitButton,-0.155555488,-0.398148162,0,0,0,1,5,65,3,1,19,67051,2,180,2022-02-16_21h01.45.323,orientation adjustment 2,2021.2.3,Win32,58.76476465,,,,,,,
,,,,,,,,,,,,,,,,,,,,,,37.77777778,16,20,75,15.77777778,0.222222222,0.088888889,-74.08888889,0.377777797,-0.300000012,1,0,0,0.2004,submitButton,-0.206481415,-0.402777791,0,0,0,1,6,66,0,1,16,67051,2,180,2022-02-16_21h01.45.323,orientation adjustment 2,2021.2.3,Win32,58.76476465,,,,,,,
,,,,,,,,,,,,,,,,,,,,,,-39.44444444,58,20,75,42.55555556,15.44444444,10.03888889,-42.03888889,0.165740756,-0.312962975,1,0,0,0.0498,submitButton,-0.216666657,-0.406481495,0,0,0,1,7,67,42,1,58,67051,2,180,2022-02-16_21h01.45.323,orientation adjustment 2,2021.2.3,Win32,58.76476465,,,,,,,
,,,,,,,,,,,,,,,,,,,,,,57.77777778,-70,20,75,-43.22222222,26.77777778,17.40555556,-142.5944444,0.387963095,-0.287962975,1,0,0,0.1803,submitButton,0.138888904,-0.305555568,0,0,0,1,8,68,54,1,70,67051,2,180,2022-02-16_21h01.45.323,orientation adjustment 2,2021.2.3,Win32,58.76476465,,,,,,,
,,,,,,,,,,,,,,,,,,,,,,68.88888889,-17,20,75,-14.11111111,2.888888889,1.155555556,-105.8444444,0.427777797,-0.270370438,1,0,0,0.1332,submitButton,-0.067592524,-0.287037049,0,0,0,1,9,69,1,1,17,67051,2,180,2022-02-16_21h01.45.323,orientation adjustment 2,2021.2.3,Win32,58.76476465,,,,,,,
,,,,,,,,,,,,,,,,,,,,,,-45,49,20,75,41,8,3.2,-44.2,0.225925943,-0.290740753,1,0,0,1.0057,submitButton,-0.173148137,-0.376851921,0,0,0,1,10,70,33,1,49,67051,2,180,2022-02-16_21h01.45.323,orientation adjustment 2,2021.2.3,Win32,58.76476465,,,,,,,
,,,,,,,,,,,,,,,,,,,,,,42.22222222,-25,20,75,-43.77777778,18.77777778,12.20555556,-127.2055556,0.372222241,-0.310185197,1,0,0,0.1003,submitButton,-0.121296285,-0.398148162,0,0,0,1,11,71,9,1,25,67051,2,180,2022-02-16_21h01.45.323,orientation adjustment 2,2021.2.3,Win32,58.76476465,,,,,,,
,,,,,,,,,,,,,,,,,,,,,,-52.77777778,33,20,75,32.22222222,0.777777778,0.311111111,-57.31111111,0.212037053,-0.305555568,1,0,0,0.185,submitButton,-0.276851843,-0.408333347,0,0,0,1,12,72,17,1,33,67051,2,180,2022-02-16_21h01.45.323,orientation adjustment 2,2021.2.3,Win32,58.76476465,,,,,,,
,,,,,,,,,,,,,,,,,,,,,,69.44444444,-28,20,75,-19.55555556,8.444444444,3.377777778,-114.6222222,0.389814834,-0.311111123,1,0,0,0.333,submitButton,-0.154629619,-0.382407421,0,0,0,1,13,73,12,1,28,67051,2,180,2022-02-16_21h01.45.323,orientation adjustment 2,2021.2.3,Win32,58.76476465,,,,,,,
,,,,,,,,,,,,,,,,,,,,,,-33.88888889,-64,20,75,-72.88888889,8.888888889,3.555555556,-157.5555556,-0.283333324,-0.393518532,1,0,0,1.2167,submitButton,0.397222354,-0.41666668,1,0,0,1,14,74,48,1,64,67051,2,180,2022-02-16_21h01.45.323,orientation adjustment 2,2021.2.3,Win32,58.76476465,pause_continueButton,,,,,,
,,,,,,,,,,,,,,,,,,,,,,-22.77777778,69,20,75,-11.77777778,80.77777778,64.62222222,-85.62222222,0.403703723,-0.278703715,1,0,0,1.7067,submitButton,-0.287962954,-0.413888959,0,0,0,1,15,75,53,1,69,67051,2,180,2022-02-16_21h01.45.323,orientation adjustment 2,2021.2.3,Win32,58.76476465,,,,,,,
,,,,,,,,,,,,,,,,,,,,,,63.33333333,-37,20,75,-27.66666667,9.333333333,3.733333333,-123.2666667,0.417592612,-0.283333345,1,0,0,0.1856,submitButton,-0.24999999,-0.386111181,0,0,0,1,16,76,21,1,37,67051,2,180,2022-02-16_21h01.45.323,orientation adjustment 2,2021.2.3,Win32,58.76476465,,,,,,,
,,,,,,,,,,,,,,,,,,,,,,45.55555556,34,20,75,46.55555556,12.55555556,5.022222222,-50.97777778,0.383333465,-0.322222234,1,0,0,0.7198,submitButton,-0.204629619,-0.38703705,0,0,0,1,17,77,18,1,34,67051,2,180,2022-02-16_21h01.45.323,orientation adjustment 2,2021.2.3,Win32,58.76476465,,,,,,,
,,,,,,,,,,,,,,,,,,,,,,20.55555556,-24,20,75,-29.44444444,5.444444444,2.177777778,-116.1777778,0.349074093,-0.276851863,1,0,0,0.1258,submitButton,-0.184259249,-0.408333347,0,0,0,1,18,78,8,1,24,67051,2,180,2022-02-16_21h01.45.323,orientation adjustment 2,2021.2.3,Win32,58.76476465,,,,,,,
,,,,,,,,,,,,,,,,,,,,,,27.22222222,65,20,75,61.22222222,3.777777778,1.511111111,-26.51111111,-0.234259193,-0.392592606,1,0,0,1.5711,submitButton,-0.234259193,-0.392592606,0,0,0,1,19,79,49,1,65,67051,2,180,2022-02-16_21h01.45.323,orientation adjustment 2,2021.2.3,Win32,58.76476465,,,,,,,
,,,,,,,,,,,,,,,,,,,,,,42.22222222,22,20,75,16.22222222,5.777777778,2.311111111,-70.31111111,0.380555574,-0.317592605,1,0,0,0.5183,submitButton,-0.243518452,-0.379629643,0,0,0,1,20,80,6,1,22,67051,2,180,2022-02-16_21h01.45.323,orientation adjustment 2,2021.2.3,Win32,58.76476465,,,,,,,
,,,,,,,,,,,,,,,,,,,,,,-70.55555556,-18,20,75,-44.55555556,26.55555556,17.26111111,-125.2611111,0.239814832,-0.305555568,1,0,0,0.2794,submitButton,-0.320370362,-0.4046297,0,0,0,1,21,81,2,1,18,67051,2,180,2022-02-16_21h01.45.323,orientation adjustment 2,2021.2.3,Win32,58.76476465,,,,,,,
,,,,,,,,,,,,,,,,,,,,,,-66.11111111,-47,20,75,-57.11111111,10.11111111,4.044444444,-141.0444444,0.180555571,-0.307407476,1,0,0,0.362,submitButton,-0.246296287,-0.392592606,0,0,0,1,22,82,31,1,47,67051,2,180,2022-02-16_21h01.45.323,orientation adjustment 2,2021.2.3,Win32,58.76476465,,,,,,,
,,,,,,,,,,,,,,,,,,,,,,-71.66666667,-39,20,75,-213.6666667,5.333333333,2.133333333,-131.1333333,0.365740759,-0.317592605,1,0,0,0.0997,submitButton,-0.200925916,-0.40000007,0,0,0,1,23,83,23,1,39,67051,2,180,2022-02-16_21h01.45.323,orientation adjustment 2,2021.2.3,Win32,58.76476465,,,,,,,
,,,,,,,,,,,,,,,,,,,,,,-28.88888889,-32,20,75,-34.88888889,2.888888889,1.155555556,-123.1555556,0.209259276,-0.303703716,1,0,0,0.2962,submitButton,-0.297222213,-0.400925939,0,0,0,1,24,84,16,1,32,67051,2,180,2022-02-16_21h01.45.323,orientation adjustment 2,2021.2.3,Win32,58.76476465,,,,,,,
,,,,,,,,,,,,,,,,,,,,,,-27.77777778,35,20,75,40.22222222,5.222222222,2.088888889,-52.91111111,0.221296313,-0.289814827,1,0,0,0.117,submitButton,-0.260185176,-0.390740811,0,0,0,1,25,85,19,1,35,67051,2,180,2022-02-16_21h01.45.323,orientation adjustment 2,2021.2.3,Win32,58.76476465,,,,,,,
,,,,,,,,,,,,,,,,,,,,,,-63.33333333,-52,20,75,-229.3333333,2.666666667,1.066666667,-143.0666667,0.414814834,-0.275925937,1,0,0,1.7501,submitButton,-0.292592584,-0.39166668,0,0,0,1,26,86,36,1,52,67051,2,180,2022-02-16_21h01.45.323,orientation adjustment 2,2021.2.3,Win32,58.76476465,,,,,,,
,,,,,,,,,,,,,,,,,,,,,,-53.33333333,-36,20,75,-58.33333333,22.33333333,14.51666667,-140.5166667,-0.276851843,-0.420370384,1,0,0,1.3665,submitButton,0.120370385,-0.324074086,0,0,0,1,27,87,20,1,36,67051,2,180,2022-02-16_21h01.45.323,orientation adjustment 2,2021.2.3,Win32,58.76476465,,,,,,,
,,,,,,,,,,,,,,,,,,,,,,-73.33333333,42,20,75,32.66666667,9.333333333,3.733333333,-51.73333333,0.210185202,-0.266666678,1,0,0,0.1537,submitButton,-0.372222215,-0.403703717,0,0,0,1,28,88,26,1,42,67051,2,180,2022-02-16_21h01.45.323,orientation adjustment 2,2021.2.3,Win32,58.76476465,,,,,,,
,,,,,,,,,,,,,,,,,,,,,,50.55555556,-43,20,75,-37.44444444,5.555555556,2.222222222,-130.7777778,0.409259279,-0.275000068,1,0,0,0.0329,submitButton,0.314814833,-0.39537044,1,0,0,1,29,89,27,1,43,67051,2,180,2022-02-16_21h01.45.323,orientation adjustment 2,2021.2.3,Win32,58.76476465,pause_continueButton,,,,,,
,,,,,,,,,,,,,,,,,,,,,,38.33333333,44,20,75,45.33333333,1.333333333,0.533333333,-45.46666667,0.385185204,-0.275000068,1,0,0,0.084,submitButton,-0.223148138,-0.418518589,0,0,0,1,30,90,28,1,44,67051,2,180,2022-02-16_21h01.45.323,orientation adjustment 2,2021.2.3,Win32,58.76476465,,,,,,,
,,,,,,,,,,,,,,,,,,,,,,-50,50,20,75,41,9,3.6,-43.6,0.214814831,-0.32777779,1,0,0,0.8156,submitButton,-0.141666599,-0.411111125,0,0,0,1,31,91,34,1,50,67051,2,180,2022-02-16_21h01.45.323,orientation adjustment 2,2021.2.3,Win32,58.76476465,,,,,,,
,,,,,,,,,,,,,,,,,,,,,,72.77777778,-56,20,75,112.7777778,11.22222222,4.488888889,-141.5111111,0.20370372,-0.283333345,1,0,0,0.1051,submitButton,0.103703718,-0.314814827,0,0,0,1,32,92,40,1,56,67051,2,180,2022-02-16_21h01.45.323,orientation adjustment 2,2021.2.3,Win32,58.76476465,,,,,,,
,,,,,,,,,,,,,,,,,,,,,,-55.55555556,-26,20,75,-35.55555556,9.555555556,3.822222222,-119.8222222,0.195370387,-0.300925938,1,0,0,0.1336,submitButton,-0.260185176,-0.405555569,0,0,0,1,33,93,10,1,26,67051,2,180,2022-02-16_21h01.45.323,orientation adjustment 2,2021.2.3,Win32,58.76476465,,,,,,,
,,,,,,,,,,,,,,,,,,,,,,-71.11111111,68,20,75,-110.1111111,1.888888889,0.755555556,-22.75555556,-0.211111044,-0.412037051,1,0,0,2.7077,submitButton,-0.211111044,-0.412037051,0,0,0,1,34,94,52,1,68,67051,2,180,2022-02-16_21h01.45.323,orientation adjustment 2,2021.2.3,Win32,58.76476465,,,,,,,
,,,,,,,,,,,,,,,,,,,,,,51.66666667,40,20,75,40.66666667,0.666666667,0.266666667,-49.73333333,0.439814835,-0.297222234,1,0,0,0.1336,submitButton,-0.177777767,-0.394444458,0,0,0,1,35,95,24,1,40,67051,2,180,2022-02-16_21h01.45.323,orientation adjustment 2,2021.2.3,Win32,58.76476465,,,,,,,
,,,,,,,,,,,,,,,,,,,,,,-20,-73,20,75,-74,1,0.4,-163.4,0.180555571,-0.292592604,1,0,0,0.2003,submitButton,-0.334259251,-0.405555569,0,0,0,1,36,96,57,1,73,67051,2,180,2022-02-16_21h01.45.323,orientation adjustment 2,2021.2.3,Win32,58.76476465,,,,,,,
,,,,,,,,,,,,,,,,,,,,,,52.22222222,72,20,75,100.2222222,28.22222222,18.34444444,0.344444444,0.418518538,-0.285185197,1,0,0,1.8997,submitButton,0.189814831,-0.311111123,0,0,0,1,37,97,56,1,72,67051,2,180,2022-02-16_21h01.45.323,orientation adjustment 2,2021.2.3,Win32,58.76476465,,,,,,,
,,,,,,,,,,,,,,,,,,,,,,-30,60,20,75,60,0,0,-30,-0.312962954,-0.390740811,1,0,0,1.0626,submitButton,0.059259273,-0.283333345,0,0,0,1,38,98,44,1,60,67051,2,180,2022-02-16_21h01.45.323,orientation adjustment 2,2021.2.3,Win32,58.76476465,,,,,,,
,,,,,,,,,,,,,,,,,,,,,,-27.77777778,-66,20,75,-71.77777778,5.777777778,2.311111111,-158.3111111,-0.226851842,-0.407407421,1,0,0,0.7613,submitButton,-0.226851842,-0.407407421,0,0,0,1,39,99,50,1,66,67051,2,180,2022-02-16_21h01.45.323,orientation adjustment 2,2021.2.3,Win32,58.76476465,,,,,,,
,,,,,,,,,,,,,,,,,,,,,,25,-21,20,75,-18,3,1.2,-109.8,0.375000019,-0.280555567,1,0,0,0.2171,submitButton,-0.28055549,-0.403703717,0,0,0,1,40,100,5,1,21,67051,2,180,2022-02-16_21h01.45.323,orientation adjustment 2,2021.2.3,Win32,58.76476465,,,,,,,
,,,,,,,,,,,,,,,,,,,,,,28.88888889,-62,20,75,-45.11111111,16.88888889,10.97777778,-141.0222222,0.254629647,-0.312037106,1,0,0,0.0876,submitButton,0.05092594,-0.346296309,0,0,0,1,41,101,46,1,62,67051,2,180,2022-02-16_21h01.45.323,orientation adjustment 2,2021.2.3,Win32,58.76476465,,,,,,,
,,,,,,,,,,,,,,,,,,,,,,57.77777778,46,20,75,48.77777778,2.777777778,1.111111111,-42.88888889,0.475926059,-0.272222234,1,0,0,0.1996,submitButton,-0.205555545,-0.389814828,0,0,0,1,42,102,30,1,46,67051,2,180,2022-02-16_21h01.45.323,orientation adjustment 2,2021.2.3,Win32,58.76476465,,,,,,,
,,,,,,,,,,,,,,,,,,,,,,51.66666667,-53,20,75,-48.33333333,4.666666667,1.866666667,-141.1333333,0.431481501,-0.288888957,1,0,0,0.4542,submitButton,-0.150925858,-0.410185199,0,0,0,1,43,103,37,1,53,67051,2,180,2022-02-16_21h01.45.323,orientation adjustment 2,2021.2.3,Win32,58.76476465,,,,,,,
,,,,,,,,,,,,,,,,,,,,,,-62.77777778,23,20,75,-146.7777778,10.22222222,4.088888889,-71.08888889,0.377777797,-0.292592604,1,0,0,0.0164,submitButton,0.3814815,-0.386111181,1,0,0,1,44,104,7,1,23,67051,2,180,2022-02-16_21h01.45.323,orientation adjustment 2,2021.2.3,Win32,58.76476465,pause_continueButton,,,,,,
,,,,,,,,,,,,,,,,,,,,,,46.66666667,-48,20,75,-45.33333333,2.666666667,1.066666667,-136.9333333,0.447222242,-0.292592604,1,0,0,0.1163,submitButton,-0.29351851,-0.385185198,0,0,0,1,45,105,32,1,48,67051,2,180,2022-02-16_21h01.45.323,orientation adjustment 2,2021.2.3,Win32,58.76476465,,,,,,,
,,,,,,,,,,,,,,,,,,,,,,-26.66666667,38,20,75,33.33333333,4.666666667,1.866666667,-53.86666667,-0.271296231,-0.405555569,1,0,0,0.971,submitButton,-0.271296231,-0.405555569,0,0,0,1,46,106,22,1,38,67051,2,180,2022-02-16_21h01.45.323,orientation adjustment 2,2021.2.3,Win32,58.76476465,,,,,,,
,,,,,,,,,,,,,,,,,,,,,,-42.22222222,-31,20,75,-40.22222222,9.222222222,3.688888889,-124.6888889,0.20833335,-0.281481493,1,0,0,0.382,submitButton,0.037037051,-0.278703715,0,0,0,1,47,107,15,1,31,67051,2,180,2022-02-16_21h01.45.323,orientation adjustment 2,2021.2.3,Win32,58.76476465,,,,,,,
,,,,,,,,,,,,,,,,,,,,,,40,-59,20,75,-40,19,12.35,-136.65,0.45000002,-0.275925937,1,0,0,0.696,submitButton,-0.234259193,-0.417592606,0,0,0,1,48,108,43,1,59,67051,2,180,2022-02-16_21h01.45.323,orientation adjustment 2,2021.2.3,Win32,58.76476465,,,,,,,
,,,,,,,,,,,,,,,,,,,,,,34.44444444,54,20,75,50.44444444,3.555555556,1.422222222,-37.42222222,0.376851871,-0.297222234,1,0,0,0.0342,submitButton,-0.174999989,-0.392592606,0,0,0,1,49,109,38,1,54,67051,2,180,2022-02-16_21h01.45.323,orientation adjustment 2,2021.2.3,Win32,58.76476465,,,,,,,
,,,,,,,,,,,,,,,,,,,,,,-31.11111111,55,20,75,37.88888889,17.11111111,11.12222222,-46.12222222,-0.325925918,-0.375925939,1,0,0,0.7427,submitButton,-0.325925918,-0.375925939,0,0,0,1,50,110,39,1,55,67051,2,180,2022-02-16_21h01.45.323,orientation adjustment 2,2021.2.3,Win32,58.76476465,,,,,,,
,,,,,,,,,,,,,,,,,,,,,,-40.55555556,-57,20,75,-51.55555556,5.444444444,2.177777778,-144.8222222,0.156481497,-0.319444457,1,0,0,0.6795,submitButton,-0.337962955,-0.417592606,0,0,0,1,51,111,41,1,57,67051,2,180,2022-02-16_21h01.45.323,orientation adjustment 2,2021.2.3,Win32,58.76476465,,,,,,,
,,,,,,,,,,,,,,,,,,,,,,30,30,20,75,35,5,2,-58,0.410185205,-0.2638889,1,0,0,0.0201,submitButton,-0.212962953,-0.407407421,0,0,0,1,52,112,14,1,30,67051,2,180,2022-02-16_21h01.45.323,orientation adjustment 2,2021.2.3,Win32,58.76476465,,,,,,,
,,,,,,,,,,,,,,,,,,,,,,-21.66666667,-67,20,75,-63.66666667,3.333333333,1.333333333,-155.6666667,0.157407423,-0.307407476,1,0,0,0.5165,submitButton,-0.207407397,-0.400925939,0,0,0,1,53,113,51,1,67,67051,2,180,2022-02-16_21h01.45.323,orientation adjustment 2,2021.2.3,Win32,58.76476465,,,,,,,
,,,,,,,,,,,,,,,,,,,,,,32.22222222,75,20,75,82.22222222,7.222222222,2.888888889,-12.11111111,0.388888908,-0.303703716,1,0,0,1.0053,submitButton,-0.172222212,-0.4046297,0,0,0,1,54,114,59,1,75,67051,2,180,2022-02-16_21h01.45.323,orientation adjustment 2,2021.2.3,Win32,58.76476465,,,,,,,
,,,,,,,,,,,,,,,,,,,,,,-72.77777778,20,20,75,21.22222222,1.222222222,0.488888889,-69.51111111,0.204629646,-0.294444456,1,0,0,0.1,submitButton,-0.168518508,-0.389814828,0,0,0,1,55,115,4,1,20,67051,2,180,2022-02-16_21h01.45.323,orientation adjustment 2,2021.2.3,Win32,58.76476465,,,,,,,
,,,,,,,,,,,,,,,,,,,,,,-55,-45,20,75,-52,7,2.8,-137.8,0.197222238,-0.313888901,1,0,0,0.1501,submitButton,-0.28518512,-0.397222236,0,0,0,1,56,116,29,1,45,67051,2,180,2022-02-16_21h01.45.323,orientation adjustment 2,2021.2.3,Win32,58.76476465,,,,,,,
,,,,,,,,,,,,,,,,,,,,,,53.88888889,61,20,75,72.88888889,11.88888889,4.755555556,-24.24444444,0.3564815,-0.303703716,1,0,0,0.7186,submitButton,-0.19537036,-0.40000007,0,0,0,1,57,117,45,1,61,67051,2,180,2022-02-16_21h01.45.323,orientation adjustment 2,2021.2.3,Win32,58.76476465,,,,,,,
,,,,,,,,,,,,,,,,,,,,,,33.33333333,71,20,75,63.33333333,7.666666667,3.066666667,-22.06666667,0.438889022,-0.310185197,1,0,0,0.1875,submitButton,-0.194444434,-0.392592606,0,0,0,1,58,118,55,1,71,67051,2,180,2022-02-16_21h01.45.323,orientation adjustment 2,2021.2.3,Win32,58.76476465,,,,,,,
,,,,,,,,,,,,,,,,,,,,,,60,29,20,75,26,3,1.2,-62.2,0.36111113,-0.325925995,1,0,0,0.0661,submitButton,0.324074092,-0.39629631,1,0,0,1,59,119,13,1,29,67051,2,180,2022-02-16_21h01.45.323,orientation adjustment 2,2021.2.3,Win32,58.76476465,pause_continueButton,,,,,,
,,,,,,,,,,,,,,,,,,,,,,50,64,20,75,91,27,17.55,-8.45,0.393518538,-0.334259272,1,0,0,0.9002,submitButton,0.173148164,-0.219444512,0,0,0,2,0,120,48,1,64,67051,2,180,2022-02-16_21h01.45.323,orientation adjustment 2,2021.2.3,Win32,58.76476465,,,,,,,
,,,,,,,,,,,,,,,,,,,,,,-26.11111111,-28,20,75,-42.11111111,14.11111111,5.644444444,-123.6444444,-0.359259251,-0.408333347,1,0,0,0.5961,submitButton,-0.359259251,-0.408333347,0,0,0,2,1,121,12,1,28,67051,2,180,2022-02-16_21h01.45.323,orientation adjustment 2,2021.2.3,Win32,58.76476465,,,,,,,
,,,,,,,,,,,,,,,,,,,,,,-46.66666667,18,20,75,20.33333333,2.333333333,0.933333333,-71.06666667,0.187962979,-0.315740753,1,0,0,0.2465,submitButton,-0.221296286,-0.389814828,0,0,0,2,2,122,2,1,18,67051,2,180,2022-02-16_21h01.45.323,orientation adjustment 2,2021.2.3,Win32,58.76476465,,,,,,,
,,,,,,,,,,,,,,,,,,,,,,61.11111111,-56,20,75,-47.88888889,8.111111111,3.244444444,-142.7555556,0.407407427,-0.276851863,1,0,0,0.2164,submitButton,-0.253703694,-0.407407421,0,0,0,2,3,123,40,1,56,67051,2,180,2022-02-16_21h01.45.323,orientation adjustment 2,2021.2.3,Win32,58.76476465,,,,,,,
,,,,,,,,,,,,,,,,,,,,,,21.66666667,-23,20,75,-28.33333333,5.333333333,2.133333333,-115.1333333,0.364814947,-0.285185197,1,0,0,0.1665,submitButton,-0.187962896,-0.39629631,0,0,0,2,4,124,7,1,23,67051,2,180,2022-02-16_21h01.45.323,orientation adjustment 2,2021.2.3,Win32,58.76476465,,,,,,,
,,,,,,,,,,,,,,,,,,,,,,64.44444444,62,20,75,59.44444444,2.555555556,1.022222222,-29.02222222,0.389814834,-0.282407419,1,0,0,0.6832,submitButton,-0.187962896,-0.419444458,0,0,0,2,5,125,46,1,62,67051,2,180,2022-02-16_21h01.45.323,orientation adjustment 2,2021.2.3,Win32,58.76476465,,,,,,,
,,,,,,,,,,,,,,,,,,,,,,39.44444444,63,20,75,61.44444444,1.555555556,0.622222222,-27.62222222,0.385185204,-0.321296365,1,0,0,0.3538,submitButton,-0.137036969,-0.394444458,0,0,0,2,6,126,47,1,63,67051,2,180,2022-02-16_21h01.45.323,orientation adjustment 2,2021.2.3,Win32,58.76476465,,,,,,,
,,,,,,,,,,,,,,,,,,,,,,68.88888889,22,20,75,47.88888889,25.88888889,16.82777778,-51.17222222,0.411111244,-0.27314816,1,0,0,0.4355,submitButton,-0.19074073,-0.378703717,0,0,0,2,7,127,6,1,22,67051,2,180,2022-02-16_21h01.45.323,orientation adjustment 2,2021.2.3,Win32,58.76476465,,,,,,,
,,,,,,,,,,,,,,,,,,,,,,-21.11111111,46,20,75,37.88888889,8.111111111,3.244444444,-47.24444444,0.328703722,-0.279629698,1,0,0,1.012,submitButton,-0.149074063,-0.379629643,0,0,0,2,8,128,30,1,46,67051,2,180,2022-02-16_21h01.45.323,orientation adjustment 2,2021.2.3,Win32,58.76476465,,,,,,,
,,,,,,,,,,,,,,,,,,,,,,-72.22222222,-49,20,75,-52.22222222,3.222222222,1.288888889,-140.2888889,-0.26388888,-0.398148162,1,0,0,1.5462,submitButton,-0.26388888,-0.398148162,0,0,0,2,9,129,33,1,49,67051,2,180,2022-02-16_21h01.45.323,orientation adjustment 2,2021.2.3,Win32,58.76476465,,,,,,,
,,,,,,,,,,,,,,,,,,,,,,-26.11111111,-19,20,75,-21.11111111,2.111111111,0.844444444,-109.8444444,0.237037054,-0.290740753,1,0,0,0.7328,submitButton,-0.247222213,-0.388888902,0,0,0,2,10,130,3,1,19,67051,2,180,2022-02-16_21h01.45.323,orientation adjustment 2,2021.2.3,Win32,58.76476465,,,,,,,
,,,,,,,,,,,,,,,,,,,,,,-62.22222222,70,20,75,-105.2222222,4.777777778,1.911111111,-21.91111111,0.407407427,-0.291666678,1,0,0,0.084,submitButton,-0.156481471,-0.39629631,0,0,0,2,11,131,54,1,70,67051,2,180,2022-02-16_21h01.45.323,orientation adjustment 2,2021.2.3,Win32,58.76476465,,,,,,,
,,,,,,,,,,,,,,,,,,,,,,-36.66666667,67,20,75,66.33333333,0.666666667,0.266666667,-23.26666667,0.20370372,-0.33240742,1,0,0,0.633,submitButton,-0.250925916,-0.394444458,0,0,0,2,12,132,51,1,67,67051,2,180,2022-02-16_21h01.45.323,orientation adjustment 2,2021.2.3,Win32,58.76476465,,,,,,,
,,,,,,,,,,,,,,,,,,,,,,34.44444444,50,20,75,62.44444444,12.44444444,4.977777778,-35.02222222,0.403703723,-0.293518587,1,0,0,0.1504,submitButton,-0.128703692,-0.393518532,0,0,0,2,13,133,34,1,50,67051,2,180,2022-02-16_21h01.45.323,orientation adjustment 2,2021.2.3,Win32,58.76476465,,,,,,,
,,,,,,,,,,,,,,,,,,,,,,-33.33333333,34,20,75,32.66666667,1.333333333,0.533333333,-56.53333333,0.205555572,-0.265740809,1,0,0,0.2492,submitButton,0.280555573,-0.40000007,1,0,0,2,14,134,18,1,34,67051,2,180,2022-02-16_21h01.45.323,orientation adjustment 2,2021.2.3,Win32,58.76476465,pause_continueButton,,,,,,
,,,,,,,,,,,,,,,,,,,,,,-25,-43,20,75,-46,3,1.2,-134.2,0.245370387,-0.279629698,1,0,0,0.6498,submitButton,-0.181481471,-0.400925939,0,0,0,2,15,135,27,1,43,67051,2,180,2022-02-16_21h01.45.323,orientation adjustment 2,2021.2.3,Win32,58.76476465,,,,,,,
,,,,,,,,,,,,,,,,,,,,,,-68.88888889,-17,20,75,-41.88888889,24.88888889,16.17777778,-123.1777778,0.224074091,-0.291666678,1,0,0,0.4129,submitButton,-0.188888878,-0.387962976,0,0,0,2,16,136,1,1,17,67051,2,180,2022-02-16_21h01.45.323,orientation adjustment 2,2021.2.3,Win32,58.76476465,,,,,,,
,,,,,,,,,,,,,,,,,,,,,,73.88888889,45,20,75,60.88888889,15.88888889,10.32777778,-34.67222222,0.420370503,-0.294444456,1,0,0,0.0335,submitButton,-0.104629561,-0.394444458,0,0,0,2,17,137,29,1,45,67051,2,180,2022-02-16_21h01.45.323,orientation adjustment 2,2021.2.3,Win32,58.76476465,,,,,,,
,,,,,,,,,,,,,,,,,,,,,,-35,36,20,75,38,2,0.8,-53.2,0.220370387,-0.278703715,1,0,0,0.133,submitButton,-0.269444435,-0.406481495,0,0,0,2,18,138,20,1,36,67051,2,180,2022-02-16_21h01.45.323,orientation adjustment 2,2021.2.3,Win32,58.76476465,,,,,,,
,,,,,,,,,,,,,,,,,,,,,,38.88888889,21,20,75,15.88888889,5.111111111,2.044444444,-71.04444444,0.405555575,-0.297222234,1,0,0,0.1506,submitButton,-0.230555546,-0.401851865,0,0,0,2,19,139,5,1,21,67051,2,180,2022-02-16_21h01.45.323,orientation adjustment 2,2021.2.3,Win32,58.76476465,,,,,,,
,,,,,,,,,,,,,,,,,,,,,,-37.77777778,-33,20,75,-31.77777778,1.222222222,0.488888889,-122.5111111,0.220370387,-0.288888957,1,0,0,0.6131,submitButton,-0.218518509,-0.397222236,0,0,0,2,20,140,17,1,33,67051,2,180,2022-02-16_21h01.45.323,orientation adjustment 2,2021.2.3,Win32,58.76476465,,,,,,,
,,,,,,,,,,,,,,,,,,,,,,-47.22222222,-48,20,75,-33.22222222,14.77777778,5.911111111,-132.0888889,0.20833335,-0.295370382,1,0,0,0.1664,submitButton,-0.163888878,-0.394444458,0,0,0,2,21,141,32,1,48,67051,2,180,2022-02-16_21h01.45.323,orientation adjustment 2,2021.2.3,Win32,58.76476465,,,,,,,
,,,,,,,,,,,,,,,,,,,,,,-28.88888889,-65,20,75,-51.88888889,13.11111111,5.244444444,-149.7555556,0.206481498,-0.315740753,1,0,0,0.0333,submitButton,-0.238888823,-0.406481495,0,0,0,2,22,142,49,1,65,67051,2,180,2022-02-16_21h01.45.323,orientation adjustment 2,2021.2.3,Win32,58.76476465,,,,,,,
,,,,,,,,,,,,,,,,,,,,,,47.22222222,37,20,75,57.22222222,20.22222222,13.14444444,-39.85555556,0.442592612,-0.301851864,1,0,0,0.4977,submitButton,-0.189814804,-0.373148161,0,0,0,2,23,143,21,1,37,67051,2,180,2022-02-16_21h01.45.323,orientation adjustment 2,2021.2.3,Win32,58.76476465,,,,,,,
,,,,,,,,,,,,,,,,,,,,,,33.33333333,-54,20,75,54.33333333,71.66666667,57.33333333,-86.66666667,0.184259275,-0.310185197,1,0,0,1.115,submitButton,-0.174999989,-0.39166668,0,0,0,2,24,144,38,1,54,67051,2,180,2022-02-16_21h01.45.323,orientation adjustment 2,2021.2.3,Win32,58.76476465,,,,,,,
,,,,,,,,,,,,,,,,,,,,,,-31.66666667,-41,20,75,-47.66666667,6.666666667,2.666666667,-133.6666667,0.209259276,-0.294444456,1,0,0,0.05,submitButton,-0.274074065,-0.414814828,0,0,0,2,25,145,25,1,41,67051,2,180,2022-02-16_21h01.45.323,orientation adjustment 2,2021.2.3,Win32,58.76476465,,,,,,,
,,,,,,,,,,,,,,,,,,,,,,61.66666667,38,20,75,47.66666667,9.666666667,3.866666667,-48.13333333,0.441666686,-0.326851864,1,0,0,0.0208,submitButton,-0.230555546,-0.425000014,0,0,0,2,26,146,22,1,38,67051,2,180,2022-02-16_21h01.45.323,orientation adjustment 2,2021.2.3,Win32,58.76476465,,,,,,,
,,,,,,,,,,,,,,,,,,,,,,64.44444444,-68,20,75,-57.55555556,10.44444444,4.177777778,-153.8222222,0.407407427,-0.282407419,1,0,0,0.8831,submitButton,-0.193518508,-0.405555569,0,0,0,2,27,147,52,1,68,67051,2,180,2022-02-16_21h01.45.323,orientation adjustment 2,2021.2.3,Win32,58.76476465,,,,,,,
,,,,,,,,,,,,,,,,,,,,,,33.33333333,-69,20,75,-61.66666667,7.333333333,2.933333333,-156.0666667,0.36111113,-0.272222234,1,0,0,0.0998,submitButton,-0.12777771,-0.4046297,0,0,0,2,28,148,53,1,69,67051,2,180,2022-02-16_21h01.45.323,orientation adjustment 2,2021.2.3,Win32,58.76476465,,,,,,,
,,,,,,,,,,,,,,,,,,,,,,71.66666667,31,20,75,16.66666667,14.33333333,5.733333333,-64.73333333,0.369444576,-0.284259327,1,0,0,1.5499,submitButton,0.44537039,-0.419444458,1,0,0,2,29,149,15,1,31,67051,2,180,2022-02-16_21h01.45.323,orientation adjustment 2,2021.2.3,Win32,58.76476465,pause_continueButton,,,,,,
,,,,,,,,,,,,,,,,,,,,,,-40,55,20,75,37,18,11.7,-46.7,-0.295370362,-0.343518531,1,0,0,0.9275,submitButton,0.145370386,-0.236111122,0,0,0,2,30,150,39,1,55,67051,2,180,2022-02-16_21h01.45.323,orientation adjustment 2,2021.2.3,Win32,58.76476465,,,,,,,
,,,,,,,,,,,,,,,,,,,,,,-53.33333333,-61,20,75,-56.33333333,4.666666667,1.866666667,-149.1333333,-0.162962952,-0.4046297,1,0,0,1.3125,submitButton,-0.162962952,-0.4046297,0,0,0,2,31,151,45,1,61,67051,2,180,2022-02-16_21h01.45.323,orientation adjustment 2,2021.2.3,Win32,58.76476465,,,,,,,
,,,,,,,,,,,,,,,,,,,,,,67.22222222,-75,20,75,-70.77777778,4.222222222,1.688888889,-163.3111111,0.3814815,-0.293518587,1,0,0,0.3484,submitButton,-0.138888878,-0.412037051,0,0,0,2,32,152,59,1,75,67051,2,180,2022-02-16_21h01.45.323,orientation adjustment 2,2021.2.3,Win32,58.76476465,,,,,,,
,,,,,,,,,,,,,,,,,,,,,,-26.66666667,44,20,75,29.33333333,14.66666667,5.866666667,-51.86666667,-0.242592583,-0.418518589,1,0,0,0.6334,submitButton,-0.242592583,-0.418518589,0,0,0,2,33,153,28,1,44,67051,2,180,2022-02-16_21h01.45.323,orientation adjustment 2,2021.2.3,Win32,58.76476465,,,,,,,
,,,,,,,,,,,,,,,,,,,,,,-32.77777778,-30,20,75,-31.77777778,1.777777778,0.711111111,-120.7111111,0.23796298,-0.289814827,1,0,0,0.08,submitButton,-0.215740674,-0.403703717,0,0,0,2,34,154,14,1,30,67051,2,180,2022-02-16_21h01.45.323,orientation adjustment 2,2021.2.3,Win32,58.76476465,,,,,,,
,,,,,,,,,,,,,,,,,,,,,,55.55555556,-52,20,75,3.555555556,55.55555556,44.44444444,-97.55555556,0.219444461,-0.279629698,1,0,0,1.5296,submitButton,-0.198148138,-0.382407421,0,0,0,2,35,155,36,1,52,67051,2,180,2022-02-16_21h01.45.323,orientation adjustment 2,2021.2.3,Win32,58.76476465,,,,,,,
,,,,,,,,,,,,,,,,,,,,,,20.55555556,47,20,75,56.55555556,9.555555556,3.822222222,-39.17777778,0.392592725,-0.292592604,1,0,0,0.2792,submitButton,-0.164814748,-0.385185198,0,0,0,2,36,156,31,1,47,67051,2,180,2022-02-16_21h01.45.323,orientation adjustment 2,2021.2.3,Win32,58.76476465,,,,,,,
,,,,,,,,,,,,,,,,,,,,,,-36.11111111,29,20,75,26.88888889,2.111111111,0.844444444,-61.84444444,0.39074076,-0.290740753,1,0,0,1.6164,submitButton,-0.252777712,-0.42129631,0,0,0,2,37,157,13,1,29,67051,2,180,2022-02-16_21h01.45.323,orientation adjustment 2,2021.2.3,Win32,58.76476465,,,,,,,
,,,,,,,,,,,,,,,,,,,,,,-73.33333333,32,20,75,31.66666667,0.333333333,0.133333333,-58.13333333,0.184259275,-0.305555568,1,0,0,0.394,submitButton,-0.230555546,-0.408333347,0,0,0,2,38,158,16,1,32,67051,2,180,2022-02-16_21h01.45.323,orientation adjustment 2,2021.2.3,Win32,58.76476465,,,,,,,
,,,,,,,,,,,,,,,,,,,,,,-21.66666667,-25,20,75,-21.66666667,3.333333333,1.333333333,-113.6666667,0.22870372,-0.294444456,1,0,0,0.2464,submitButton,-0.270370361,-0.406481495,0,0,0,2,39,159,9,1,25,67051,2,180,2022-02-16_21h01.45.323,orientation adjustment 2,2021.2.3,Win32,58.76476465,,,,,,,
,,,,,,,,,,,,,,,,,,,,,,-55,-58,20,75,-70,12,4.8,-152.8,-0.252777712,-0.408333347,1,0,0,1.3457,submitButton,-0.252777712,-0.408333347,0,0,0,2,40,160,42,1,58,67051,2,180,2022-02-16_21h01.45.323,orientation adjustment 2,2021.2.3,Win32,58.76476465,,,,,,,
,,,,,,,,,,,,,,,,,,,,,,-54.44444444,-26,20,75,-49.44444444,23.44444444,15.23888889,-131.2388889,-0.317592584,-0.409259329,1,0,0,0.8626,submitButton,-0.317592584,-0.409259329,0,0,0,2,41,161,10,1,26,67051,2,180,2022-02-16_21h01.45.323,orientation adjustment 2,2021.2.3,Win32,58.76476465,,,,,,,
,,,,,,,,,,,,,,,,,,,,,,48.88888889,-39,20,75,-22.11111111,16.88888889,10.97777778,-118.0222222,0.403703723,-0.284259327,1,0,0,0.0497,submitButton,-0.121296285,-0.40000007,0,0,0,2,42,162,23,1,39,67051,2,180,2022-02-16_21h01.45.323,orientation adjustment 2,2021.2.3,Win32,58.76476465,,,,,,,
,,,,,,,,,,,,,,,,,,,,,,-39.44444444,42,20,75,35.55555556,6.444444444,2.577777778,-50.57777778,-0.29351851,-0.444444459,1,0,0,1.0339,submitButton,-0.31851851,-0.412962977,0,0,0,2,43,163,26,1,42,67051,2,180,2022-02-16_21h01.45.323,orientation adjustment 2,2021.2.3,Win32,58.76476465,,,,,,,
,,,,,,,,,,,,,,,,,,,,,,-62.22222222,-51,20,75,-66.22222222,15.22222222,9.894444444,-150.8944444,0.235185202,-0.290740753,1,0,0,0.0332,submitButton,0.305555573,-0.415740754,1,0,0,2,44,164,35,1,51,67051,2,180,2022-02-16_21h01.45.323,orientation adjustment 2,2021.2.3,Win32,58.76476465,pause_continueButton,,,,,,
,,,,,,,,,,,,,,,,,,,,,,46.11111111,16,20,75,30.11111111,14.11111111,5.644444444,-68.35555556,0.377777797,-0.27314816,1,0,0,0.0472,submitButton,-0.142592581,-0.38703705,0,0,0,2,45,165,0,1,16,67051,2,180,2022-02-16_21h01.45.323,orientation adjustment 2,2021.2.3,Win32,58.76476465,,,,,,,
,,,,,,,,,,,,,,,,,,,,,,-45,-60,20,75,-125,65,52,-202,0.379629649,-0.286111123,1,0,0,0.9111,submitButton,-0.171296286,-0.408333347,0,0,0,2,46,166,44,1,60,67051,2,180,2022-02-16_21h01.45.323,orientation adjustment 2,2021.2.3,Win32,58.76476465,,,,,,,
,,,,,,,,,,,,,,,,,,,,,,31.66666667,72,20,75,61.66666667,10.33333333,4.133333333,-22.13333333,-0.118518451,-0.405555569,1,0,0,1.5831,submitButton,-0.118518451,-0.405555569,0,0,0,2,47,167,56,1,72,67051,2,180,2022-02-16_21h01.45.323,orientation adjustment 2,2021.2.3,Win32,58.76476465,,,,,,,
,,,,,,,,,,,,,,,,,,,,,,64.44444444,57,20,75,54.44444444,2.555555556,1.022222222,-34.02222222,-0.238888823,-0.40000007,1,0,0,1.7629,submitButton,-0.238888823,-0.40000007,0,0,0,2,48,168,41,1,57,67051,2,180,2022-02-16_21h01.45.323,orientation adjustment 2,2021.2.3,Win32,58.76476465,,,,,,,
,,,,,,,,,,,,,,,,,,,,,,50,35,20,75,32,3,1.2,-56.2,-0.148148137,-0.392592606,1,0,0,1.3663,submitButton,-0.148148137,-0.392592606,0,0,0,2,49,169,19,1,35,67051,2,180,2022-02-16_21h01.45.323,orientation adjustment 2,2021.2.3,Win32,58.76476465,,,,,,,
,,,,,,,,,,,,,,,,,,,,,,57.77777778,-53,20,75,-33.22222222,19.77777778,12.85555556,-130.1444444,-0.350925918,-0.407407421,1,0,0,1.4953,submitButton,0.010185199,-0.259259271,0,0,0,2,50,170,37,1,53,67051,2,180,2022-02-16_21h01.45.323,orientation adjustment 2,2021.2.3,Win32,58.76476465,,,,,,,
,,,,,,,,,,,,,,,,,,,,,,-70,40,20,75,36,4,1.6,-51.6,0.190740757,-0.267592604,1,0,0,0.0177,submitButton,-0.167592582,-0.393518532,0,0,0,2,51,171,24,1,40,67051,2,180,2022-02-16_21h01.45.323,orientation adjustment 2,2021.2.3,Win32,58.76476465,,,,,,,
,,,,,,,,,,,,,,,,,,,,,,48.33333333,66,20,75,60.33333333,5.666666667,2.266666667,-26.26666667,0.204629646,-0.279629698,1,0,0,0.0359,submitButton,-0.138888878,-0.383333346,0,0,0,2,52,172,50,1,66,67051,2,180,2022-02-16_21h01.45.323,orientation adjustment 2,2021.2.3,Win32,58.76476465,,,,,,,
,,,,,,,,,,,,,,,,,,,,,,38.33333333,-73,20,75,-75.66666667,2.666666667,1.066666667,-164.0666667,0.39537039,-0.316666735,1,0,0,0.5664,submitButton,-0.133333322,-0.398148162,0,0,0,2,53,173,57,1,73,67051,2,180,2022-02-16_21h01.45.323,orientation adjustment 2,2021.2.3,Win32,58.76476465,,,,,,,
,,,,,,,,,,,,,,,,,,,,,,-47.22222222,-74,20,75,-75.22222222,1.222222222,0.488888889,-164.4888889,-0.261111102,-0.399074087,1,0,0,1.463,submitButton,-0.261111102,-0.399074087,0,0,0,2,54,174,58,1,74,67051,2,180,2022-02-16_21h01.45.323,orientation adjustment 2,2021.2.3,Win32,58.76476465,,,,,,,
,,,,,,,,,,,,,,,,,,,,,,30.55555556,-24,20,75,-33.44444444,9.444444444,3.777777778,-117.7777778,0.385185204,-0.302777846,1,0,0,0.0326,submitButton,-0.154629619,-0.389814828,0,0,0,2,55,175,8,1,24,67051,2,180,2022-02-16_21h01.45.323,orientation adjustment 2,2021.2.3,Win32,58.76476465,,,,,,,
,,,,,,,,,,,,,,,,,,,,,,-73.88888889,-71,20,75,-245.8888889,5.111111111,2.044444444,-163.0444444,0.387963095,-0.300000012,1,0,0,0.4835,submitButton,-0.236111101,-0.410185199,0,0,0,2,56,176,55,1,71,67051,2,180,2022-02-16_21h01.45.323,orientation adjustment 2,2021.2.3,Win32,58.76476465,,,,,,,
,,,,,,,,,,,,,,,,,,,,,,-25,27,20,75,17,10,4,-67,0.370370389,-0.285185197,1,0,0,0.2729,submitButton,-0.186111101,-0.389814828,0,0,0,2,57,177,11,1,27,67051,2,180,2022-02-16_21h01.45.323,orientation adjustment 2,2021.2.3,Win32,58.76476465,,,,,,,
,,,,,,,,,,,,,,,,,,,,,,-34.44444444,59,20,75,44.55555556,14.44444444,5.777777778,-36.77777778,0.194444461,-0.318518531,1,0,0,0.1372,submitButton,-0.302777769,-0.41666668,0,0,0,2,58,178,43,1,59,67051,2,180,2022-02-16_21h01.45.323,orientation adjustment 2,2021.2.3,Win32,58.76476465,,,,,,,
,,,,,,,,,,,,,,,,,,,,,,69.44444444,20,20,75,18.44444444,1.555555556,0.622222222,-70.62222222,0.366666685,-0.294444456,1,0,0,0.2003,submitButton,-0.308333325,-0.381481551,0,0,0,2,59,179,4,1,20,67051,2,180,2022-02-16_21h01.45.323,orientation adjustment 2,2021.2.3,Win32,58.76476465,,,,,,,
,,,,,,,,,,,,,,,,,,,,,,,,,,,,,,,,,,,,,,,,,,,,,,,,67051,2,180,2022-02-16_21h01.45.323,orientation adjustment 2,2021.2.3,Win32,58.76476465,,0.221296313,-0.423148218,1,0,0,EndButtonTxt
