consentMouse1.x,consentMouse1.y,consentMouse1.leftButton,consentMouse1.midButton,consentMouse1.rightButton,consentMouse1.clicked_name,consent_Mouse.x,consent_Mouse.y,consent_Mouse.leftButton,consent_Mouse.midButton,consent_Mouse.rightButton,consent_Mouse.clicked_name,startMouse.x,startMouse.y,startMouse.leftButton,startMouse.midButton,startMouse.rightButton,startMouse_2.x,startMouse_2.y,startMouse_2.leftButton,startMouse_2.midButton,startMouse_2.rightButton,start_distance,fixedOri,minimalDistance,maxOri,this_ori,accuracy,presented_accuracy,presented_this_ori,submitMouse.x,submitMouse.y,submitMouse.leftButton,submitMouse.midButton,submitMouse.rightButton,submitMouse.time,submitMouse.clicked_name,pauseMouse.x,pauseMouse.y,pauseMouse.leftButton,pauseMouse.midButton,pauseMouse.rightButton,trials.thisRepN,trials.thisTrialN,trials.thisN,trials.thisIndex,trials.ran,startOri,participant,condition,nTrials,date,expName,psychopyVersion,OS,frameRate,pauseMouse.clicked_name,EndButtonMouse.x,EndButtonMouse.y,EndButtonMouse.leftButton,EndButtonMouse.midButton,EndButtonMouse.rightButton,EndButtonMouse.clicked_name
0.348148185,-0.395370397,1,0,0,consent_button1,0.374074112,-0.385185268,1,0,0,consent_button,0.061111139,-0.20925928,1,0,0,0.05648151,-0.376851934,1,0,0,-52.22222222,60,20,75,32.77777778,27.22222222,17.69444444,-47.69444444,0.193518551,-0.328703728,1,0,0,2.5648,submitButton,0.062962991,-0.099074092,0,0,0,0,0,0,44,1,60,67174,2,180,2022-02-18_21h53.34.595,orientation adjustment 2,2021.2.3,Win32,60.83465142,,,,,,,
,,,,,,,,,,,,,,,,,,,,,,29.44444444,-35,20,75,34.44444444,69.44444444,55.55555556,-69.44444444,0.212962996,-0.318518599,1,0,0,0.1002,submitButton,-0.136111089,-0.397222249,0,0,0,0,1,1,19,1,35,67174,2,180,2022-02-18_21h53.34.595,orientation adjustment 2,2021.2.3,Win32,60.83465142,,,,,,,
,,,,,,,,,,,,,,,,,,,,,,30.55555556,-74,20,75,-43.44444444,30.55555556,24.44444444,-139.5555556,-0.308333316,-0.387037063,1,0,0,1.5286,submitButton,-0.301851834,-0.387963046,0,0,0,0,2,2,58,1,74,67174,2,180,2022-02-18_21h53.34.595,orientation adjustment 2,2021.2.3,Win32,60.83465142,,,,,,,
,,,,,,,,,,,,,,,,,,,,,,-22.77777778,-19,20,75,-28.77777778,9.777777778,3.911111111,-112.9111111,0.234259293,-0.308333357,1,0,0,0.1965,submitButton,-0.011111085,-0.298148172,0,0,0,0,3,3,3,1,19,67174,2,180,2022-02-18_21h53.34.595,orientation adjustment 2,2021.2.3,Win32,60.83465142,,,,,,,
,,,,,,,,,,,,,,,,,,,,,,32.22222222,20,20,75,201.2222222,1.222222222,0.488888889,-69.51111111,0.195370403,-0.285185265,1,0,0,0.7998,submitButton,0.041666694,-0.326851933,0,0,0,0,4,4,4,1,20,67174,2,180,2022-02-18_21h53.34.595,orientation adjustment 2,2021.2.3,Win32,60.83465142,,,,,,,
,,,,,,,,,,,,,,,,,,,,,,53.88888889,-31,20,75,-29.11111111,1.888888889,0.755555556,-120.2444444,0.409259298,-0.30462971,1,0,0,0.2835,submitButton,-0.024999974,-0.357407489,0,0,0,0,5,5,15,1,31,67174,2,180,2022-02-18_21h53.34.595,orientation adjustment 2,2021.2.3,Win32,60.83465142,,,,,,,
,,,,,,,,,,,,,,,,,,,,,,57.77777778,-24,20,75,-37.22222222,13.22222222,5.288888889,-119.2888889,0.405555594,-0.30462971,1,0,0,0.4492,submitButton,-0.152777756,-0.38333336,0,0,0,0,6,6,8,1,24,67174,2,180,2022-02-18_21h53.34.595,orientation adjustment 2,2021.2.3,Win32,60.83465142,,,,,,,
,,,,,,,,,,,,,,,,,,,,,,-42.77777778,-62,20,75,-80.77777778,18.77777778,12.20555556,-164.2055556,0.161111142,-0.318518599,1,0,0,0.1162,submitButton,-0.124999977,-0.325000025,0,0,0,0,7,7,46,1,62,67174,2,180,2022-02-18_21h53.34.595,orientation adjustment 2,2021.2.3,Win32,60.83465142,,,,,,,
,,,,,,,,,,,,,,,,,,,,,,-36.11111111,-36,20,75,-46.11111111,10.11111111,4.044444444,-130.0444444,0.196296329,-0.293518599,1,0,0,0.1825,submitButton,-0.159259181,-0.412037064,0,0,0,0,8,8,20,1,36,67174,2,180,2022-02-18_21h53.34.595,orientation adjustment 2,2021.2.3,Win32,60.83465142,,,,,,,
,,,,,,,,,,,,,,,,,,,,,,61.66666667,-64,20,75,96.66666667,19.33333333,12.56666667,-141.4333333,0.225925959,-0.275000023,1,0,0,1.7821,submitButton,-0.094444421,-0.276851932,0,0,0,0,9,9,48,1,64,67174,2,180,2022-02-18_21h53.34.595,orientation adjustment 2,2021.2.3,Win32,60.83465142,,,,,,,
,,,,,,,,,,,,,,,,,,,,,,66.11111111,55,20,75,76.11111111,21.11111111,13.72222222,-21.27777778,0.386111149,-0.28703706,1,0,0,0.5997,submitButton,-0.084259179,-0.337963044,0,0,0,0,10,10,39,1,55,67174,2,180,2022-02-18_21h53.34.595,orientation adjustment 2,2021.2.3,Win32,60.83465142,,,,,,,
,,,,,,,,,,,,,,,,,,,,,,38.88888889,73,20,75,85.88888889,12.88888889,5.155555556,-11.84444444,0.37685189,-0.311111135,1,0,0,0.4671,submitButton,-0.178703683,-0.423148176,0,0,0,0,11,11,57,1,73,67174,2,180,2022-02-18_21h53.34.595,orientation adjustment 2,2021.2.3,Win32,60.83465142,,,,,,,
,,,,,,,,,,,,,,,,,,,,,,71.11111111,-25,20,75,-31.88888889,6.888888889,2.755555556,-117.7555556,0.395370409,-0.287963043,1,0,0,1.5168,submitButton,-0.153703625,-0.41759262,0,0,0,0,12,12,9,1,25,67174,2,180,2022-02-18_21h53.34.595,orientation adjustment 2,2021.2.3,Win32,60.83465142,,,,,,,
,,,,,,,,,,,,,,,,,,,,,,-65.55555556,-40,20,75,-193.5555556,26.44444444,17.18888889,-147.1888889,0.381481519,-0.28703706,1,0,0,0.199,submitButton,-0.18611109,-0.458333362,0,0,0,0,13,13,24,1,40,67174,2,180,2022-02-18_21h53.34.595,orientation adjustment 2,2021.2.3,Win32,60.83465142,,,,,,,
,,,,,,,,,,,,,,,,,,,,,,-70,-33,20,75,-205,8,3.2,-126.2,0.360185222,-0.329629711,1,0,0,1.1829,submitButton,0.275000035,-0.419444472,1,0,0,0,14,14,17,1,33,67174,2,180,2022-02-18_21h53.34.595,orientation adjustment 2,2021.2.3,Win32,60.83465142,pause_continueButton,,,,,,
,,,,,,,,,,,,,,,,,,,,,,37.77777778,-50,20,75,-25.22222222,24.77777778,16.10555556,-123.8944444,0.392592631,-0.34444447,1,0,0,0.9998,submitButton,0.103703733,-0.499074104,0,0,0,0,15,15,34,1,50,67174,2,180,2022-02-18_21h53.34.595,orientation adjustment 2,2021.2.3,Win32,60.83465142,,,,,,,
,,,,,,,,,,,,,,,,,,,,,,38.88888889,37,20,75,40.88888889,3.888888889,1.555555556,-51.44444444,0.405555594,-0.30462971,1,0,0,0.5331,submitButton,-0.216666647,-0.398148175,0,0,0,0,16,16,21,1,37,67174,2,180,2022-02-18_21h53.34.595,orientation adjustment 2,2021.2.3,Win32,60.83465142,,,,,,,
,,,,,,,,,,,,,,,,,,,,,,-57.22222222,-58,20,75,-243.2222222,5.222222222,2.088888889,-150.0888889,0.428703743,-0.302777802,1,0,0,2.6828,submitButton,-0.19074072,-0.404629713,0,0,0,0,17,17,42,1,58,67174,2,180,2022-02-18_21h53.34.595,orientation adjustment 2,2021.2.3,Win32,60.83465142,,,,,,,
,,,,,,,,,,,,,,,,,,,,,,-40.55555556,39,20,75,36.44444444,2.555555556,1.022222222,-52.02222222,0.148148179,-0.30555558,1,0,0,1.0162,submitButton,-0.226851832,-0.39629638,0,0,0,0,18,18,23,1,39,67174,2,180,2022-02-18_21h53.34.595,orientation adjustment 2,2021.2.3,Win32,60.83465142,,,,,,,
,,,,,,,,,,,,,,,,,,,,,,-26.66666667,-42,20,75,-213.6666667,8.333333333,3.333333333,-135.3333333,0.416666706,-0.296296377,1,0,0,0.7997,submitButton,-0.321296279,-0.384259286,0,0,0,0,19,19,26,1,42,67174,2,180,2022-02-18_21h53.34.595,orientation adjustment 2,2021.2.3,Win32,60.83465142,,,,,,,
,,,,,,,,,,,,,,,,,,,,,,-38.33333333,-65,20,75,-67.33333333,2.333333333,0.933333333,-155.9333333,0.162037068,-0.29166669,1,0,0,0.4169,submitButton,-0.191666646,-0.413888916,0,0,0,0,20,20,49,1,65,67174,2,180,2022-02-18_21h53.34.595,orientation adjustment 2,2021.2.3,Win32,60.83465142,,,,,,,
,,,,,,,,,,,,,,,,,,,,,,-44.44444444,49,20,75,36.55555556,12.44444444,4.977777778,-45.97777778,0.190740773,-0.307407488,1,0,0,0.5501,submitButton,-0.359259243,-0.424074158,0,0,0,0,21,21,33,1,49,67174,2,180,2022-02-18_21h53.34.595,orientation adjustment 2,2021.2.3,Win32,60.83465142,,,,,,,
,,,,,,,,,,,,,,,,,,,,,,36.11111111,-18,20,75,-17.88888889,0.111111111,0.044444444,-107.9555556,0.417592632,-0.283333357,1,0,0,0.2826,submitButton,-0.207407387,-0.406481508,0,0,0,0,22,22,2,1,18,67174,2,180,2022-02-18_21h53.34.595,orientation adjustment 2,2021.2.3,Win32,60.83465142,,,,,,,
,,,,,,,,,,,,,,,,,,,,,,-67.22222222,61,20,75,46.77777778,14.22222222,5.688888889,-34.68888889,-0.219444424,-0.448148176,1,0,0,1.2666,submitButton,-0.314814798,-0.40833336,0,0,0,0,23,23,45,1,61,67174,2,180,2022-02-18_21h53.34.595,orientation adjustment 2,2021.2.3,Win32,60.83465142,,,,,,,
,,,,,,,,,,,,,,,,,,,,,,-22.77777778,-43,20,75,-42.77777778,0.222222222,0.088888889,-132.9111111,0.209259292,-0.299074154,1,0,0,0.1162,submitButton,-0.243518499,-0.412963047,0,0,0,0,24,24,27,1,43,67174,2,180,2022-02-18_21h53.34.595,orientation adjustment 2,2021.2.3,Win32,60.83465142,,,,,,,
,,,,,,,,,,,,,,,,,,,,,,33.88888889,-68,20,75,-80.11111111,12.11111111,4.844444444,-162.8444444,0.396296335,-0.273148171,1,0,0,0.7333,submitButton,-0.251851833,-0.423148176,0,0,0,0,25,25,52,1,68,67174,2,180,2022-02-18_21h53.34.595,orientation adjustment 2,2021.2.3,Win32,60.83465142,,,,,,,
,,,,,,,,,,,,,,,,,,,,,,-21.11111111,-59,20,75,-66.11111111,7.111111111,2.844444444,-151.8444444,-0.281481463,-0.404629713,1,0,0,0.7993,submitButton,-0.281481463,-0.404629713,0,0,0,0,26,26,43,1,59,67174,2,180,2022-02-18_21h53.34.595,orientation adjustment 2,2021.2.3,Win32,60.83465142,,,,,,,
,,,,,,,,,,,,,,,,,,,,,,-71.11111111,45,20,75,35.88888889,9.111111111,3.644444444,-48.64444444,0.213888922,-0.30462971,1,0,0,0.4667,submitButton,-0.330555539,-0.41759262,0,0,0,0,27,27,29,1,45,67174,2,180,2022-02-18_21h53.34.595,orientation adjustment 2,2021.2.3,Win32,60.83465142,,,,,,,
,,,,,,,,,,,,,,,,,,,,,,-42.22222222,66,20,75,35.77777778,30.22222222,24.17777778,-48.17777778,0.221296329,-0.280555579,1,0,0,0.5995,submitButton,-0.142592514,-0.400925953,0,0,0,0,28,28,50,1,66,67174,2,180,2022-02-18_21h53.34.595,orientation adjustment 2,2021.2.3,Win32,60.83465142,,,,,,,
,,,,,,,,,,,,,,,,,,,,,,-70.55555556,-38,20,75,-55.55555556,17.55555556,11.41111111,-139.4111111,0.225925959,-0.30092595,1,0,0,0.1505,submitButton,0.218518552,-0.420370398,1,0,0,0,29,29,22,1,38,67174,2,180,2022-02-18_21h53.34.595,orientation adjustment 2,2021.2.3,Win32,60.83465142,pause_continueButton,,,,,,
,,,,,,,,,,,,,,,,,,,,,,74.44444444,-48,20,75,-49.55555556,1.555555556,0.622222222,-138.6222222,0.370370408,-0.310185266,1,0,0,1.1006,submitButton,-0.133333311,-0.324074155,0,0,0,0,30,30,32,1,48,67174,2,180,2022-02-18_21h53.34.595,orientation adjustment 2,2021.2.3,Win32,60.83465142,,,,,,,
,,,,,,,,,,,,,,,,,,,,,,32.22222222,22,20,75,32.22222222,10.22222222,4.088888889,-63.91111111,0.422222261,-0.300000024,1,0,0,0.4496,submitButton,-0.016666641,-0.340740822,0,0,0,0,31,31,6,1,22,67174,2,180,2022-02-18_21h53.34.595,orientation adjustment 2,2021.2.3,Win32,60.83465142,,,,,,,
,,,,,,,,,,,,,,,,,,,,,,-42.77777778,56,20,75,49.22222222,6.777777778,2.711111111,-36.71111111,-0.214814795,-0.416666694,1,0,0,1.05,submitButton,-0.048148067,-0.29166669,0,0,0,0,32,32,40,1,56,67174,2,180,2022-02-18_21h53.34.595,orientation adjustment 2,2021.2.3,Win32,60.83465142,,,,,,,
,,,,,,,,,,,,,,,,,,,,,,73.33333333,47,20,75,213.3333333,13.66666667,5.466666667,-37.53333333,-0.163888867,-0.392592619,1,0,0,2.3165,submitButton,-0.077777754,-0.329629711,0,0,0,0,33,33,31,1,47,67174,2,180,2022-02-18_21h53.34.595,orientation adjustment 2,2021.2.3,Win32,60.83465142,,,,,,,
,,,,,,,,,,,,,,,,,,,,,,-59.44444444,-30,20,75,-218.4444444,8.444444444,3.377777778,-123.3777778,-0.159259181,-0.414814842,1,0,0,2.5493,submitButton,-0.159259181,-0.414814842,0,0,0,0,34,34,14,1,30,67174,2,180,2022-02-18_21h53.34.595,orientation adjustment 2,2021.2.3,Win32,60.83465142,,,,,,,
,,,,,,,,,,,,,,,,,,,,,,22.22222222,-28,20,75,-26.77777778,1.222222222,0.488888889,-117.5111111,-0.202777757,-0.428703731,1,0,0,0.9328,submitButton,-0.262962944,-0.404629713,0,0,0,0,35,35,12,1,28,67174,2,180,2022-02-18_21h53.34.595,orientation adjustment 2,2021.2.3,Win32,60.83465142,,,,,,,
,,,,,,,,,,,,,,,,,,,,,,-68.33333333,52,20,75,42.66666667,9.333333333,3.733333333,-41.73333333,-0.244444425,-0.416666694,1,0,0,1.5995,submitButton,-0.244444425,-0.416666694,0,0,0,0,36,36,36,1,52,67174,2,180,2022-02-18_21h53.34.595,orientation adjustment 2,2021.2.3,Win32,60.83465142,,,,,,,
,,,,,,,,,,,,,,,,,,,,,,-47.77777778,-51,20,75,-218.7777778,12.22222222,4.888888889,-145.8888889,-0.288888871,-0.389814841,1,0,0,2.6489,submitButton,-0.252777759,-0.351851934,0,0,0,0,37,37,35,1,51,67174,2,180,2022-02-18_21h53.34.595,orientation adjustment 2,2021.2.3,Win32,60.83465142,,,,,,,
,,,,,,,,,,,,,,,,,,,,,,-32.77777778,29,20,75,30.22222222,1.222222222,0.488888889,-60.51111111,-0.284259241,-0.423148176,1,0,0,1.3501,submitButton,-0.284259241,-0.423148176,0,0,0,0,38,38,13,1,29,67174,2,180,2022-02-18_21h53.34.595,orientation adjustment 2,2021.2.3,Win32,60.83465142,,,,,,,
,,,,,,,,,,,,,,,,,,,,,,-25.55555556,-26,20,75,-15.55555556,10.44444444,4.177777778,-111.8222222,0.217592626,-0.300000024,1,0,0,0.0335,submitButton,-0.066666642,-0.392592619,0,0,0,0,39,39,10,1,26,67174,2,180,2022-02-18_21h53.34.595,orientation adjustment 2,2021.2.3,Win32,60.83465142,,,,,,,
,,,,,,,,,,,,,,,,,,,,,,35.55555556,-63,20,75,-53.44444444,9.555555556,3.822222222,-149.1777778,-0.240740721,-0.381481508,1,0,0,0.9367,submitButton,-0.240740721,-0.381481508,0,0,0,0,40,40,47,1,63,67174,2,180,2022-02-18_21h53.34.595,orientation adjustment 2,2021.2.3,Win32,60.83465142,,,,,,,
,,,,,,,,,,,,,,,,,,,,,,-75,54,20,75,35,19,12.35,-48.35,-0.203703683,-0.374074157,1,0,0,1.3987,submitButton,-0.203703683,-0.374074157,0,0,0,0,41,41,38,1,54,67174,2,180,2022-02-18_21h53.34.595,orientation adjustment 2,2021.2.3,Win32,60.83465142,,,,,,,
,,,,,,,,,,,,,,,,,,,,,,57.22222222,-41,20,75,-44.77777778,3.777777778,1.511111111,-132.5111111,-0.311111094,-0.45648151,1,0,0,1.3992,submitButton,-0.166666645,-0.301851932,0,0,0,0,42,42,25,1,41,67174,2,180,2022-02-18_21h53.34.595,orientation adjustment 2,2021.2.3,Win32,60.83465142,,,,,,,
,,,,,,,,,,,,,,,,,,,,,,56.11111111,27,20,75,32.11111111,5.111111111,2.044444444,-60.95555556,0.358333371,-0.298148172,1,0,0,0.7164,submitButton,-0.207407387,-0.40833336,0,0,0,0,43,43,11,1,27,67174,2,180,2022-02-18_21h53.34.595,orientation adjustment 2,2021.2.3,Win32,60.83465142,,,,,,,
,,,,,,,,,,,,,,,,,,,,,,45.55555556,-23,20,75,-25.44444444,2.444444444,0.977777778,-113.9777778,0.221296329,-0.271296376,1,0,0,1.7494,submitButton,0.288888924,-0.387037063,1,0,0,0,44,44,7,1,23,67174,2,180,2022-02-18_21h53.34.595,orientation adjustment 2,2021.2.3,Win32,60.83465142,pause_continueButton,,,,,,
,,,,,,,,,,,,,,,,,,,,,,-20,-34,20,75,-23,11,4.4,-119.6,0.194444477,-0.292592616,1,0,0,0.2499,submitButton,-0.118518496,-0.341666692,0,0,0,0,45,45,18,1,34,67174,2,180,2022-02-18_21h53.34.595,orientation adjustment 2,2021.2.3,Win32,60.83465142,,,,,,,
,,,,,,,,,,,,,,,,,,,,,,-47.77777778,-72,20,75,-251.7777778,0.222222222,0.088888889,-162.0888889,-0.290740723,-0.405555583,1,0,0,2.8488,submitButton,-0.26388887,-0.386111138,0,0,0,0,46,46,56,1,72,67174,2,180,2022-02-18_21h53.34.595,orientation adjustment 2,2021.2.3,Win32,60.83465142,,,,,,,
,,,,,,,,,,,,,,,,,,,,,,66.11111111,-46,20,75,-36.88888889,9.111111111,3.644444444,-132.3555556,-0.348148132,-0.399074157,1,0,0,1.7327,submitButton,-0.348148132,-0.399074157,0,0,0,0,47,47,30,1,46,67174,2,180,2022-02-18_21h53.34.595,orientation adjustment 2,2021.2.3,Win32,60.83465142,,,,,,,
,,,,,,,,,,,,,,,,,,,,,,67.77777778,-53,20,75,-49.22222222,3.777777778,1.511111111,-141.4888889,-0.2685185,-0.397222249,1,0,0,1.7493,submitButton,-0.2685185,-0.397222249,0,0,0,0,48,48,37,1,53,67174,2,180,2022-02-18_21h53.34.595,orientation adjustment 2,2021.2.3,Win32,60.83465142,,,,,,,
,,,,,,,,,,,,,,,,,,,,,,-58.33333333,-67,20,75,-248.3333333,1.333333333,0.533333333,-157.5333333,-0.217592573,-0.38240749,1,0,0,2.4659,submitButton,-0.217592573,-0.38240749,0,0,0,0,49,49,51,1,67,67174,2,180,2022-02-18_21h53.34.595,orientation adjustment 2,2021.2.3,Win32,60.83465142,,,,,,,
,,,,,,,,,,,,,,,,,,,,,,-50.55555556,-17,20,75,-21.55555556,4.555555556,1.822222222,-108.8222222,0.162962994,-0.278703727,1,0,0,0.2001,submitButton,-0.223148128,-0.405555583,0,0,0,0,50,50,1,1,17,67174,2,180,2022-02-18_21h53.34.595,orientation adjustment 2,2021.2.3,Win32,60.83465142,,,,,,,
,,,,,,,,,,,,,,,,,,,,,,62.77777778,70,20,75,247.7777778,2.222222222,0.888888889,-19.11111111,-0.247222203,-0.41759262,1,0,0,2.4158,submitButton,-0.06944442,-0.30092595,0,0,0,0,51,51,54,1,70,67174,2,180,2022-02-18_21h53.34.595,orientation adjustment 2,2021.2.3,Win32,60.83465142,,,,,,,
,,,,,,,,,,,,,,,,,,,,,,25.55555556,-21,20,75,-21.44444444,0.444444444,0.177777778,-111.1777778,-0.31666665,-0.391666693,1,0,0,1.0663,submitButton,-0.31666665,-0.391666693,0,0,0,0,52,52,5,1,21,67174,2,180,2022-02-18_21h53.34.595,orientation adjustment 2,2021.2.3,Win32,60.83465142,,,,,,,
,,,,,,,,,,,,,,,,,,,,,,-71.66666667,-32,20,75,-203.6666667,8.333333333,3.333333333,-125.3333333,-0.245370351,-0.413888916,1,0,0,2.5658,submitButton,0.030555583,-0.246296375,0,0,0,0,53,53,16,1,32,67174,2,180,2022-02-18_21h53.34.595,orientation adjustment 2,2021.2.3,Win32,60.83465142,,,,,,,
,,,,,,,,,,,,,,,,,,,,,,74.44444444,-16,20,75,-16.55555556,0.555555556,0.222222222,-106.2222222,-0.199074054,-0.400000027,1,0,0,1.9995,submitButton,-0.105555532,-0.337037062,0,0,0,0,54,54,0,1,16,67174,2,180,2022-02-18_21h53.34.595,orientation adjustment 2,2021.2.3,Win32,60.83465142,,,,,,,
,,,,,,,,,,,,,,,,,,,,,,-56.66666667,71,20,75,56.33333333,14.66666667,5.866666667,-24.86666667,-0.179629608,-0.401851935,1,0,0,1.1166,submitButton,-0.179629608,-0.401851935,0,0,0,0,55,55,55,1,71,67174,2,180,2022-02-18_21h53.34.595,orientation adjustment 2,2021.2.3,Win32,60.83465142,,,,,,,
,,,,,,,,,,,,,,,,,,,,,,-55,-75,20,75,-254,1,0.4,-165.4,-0.275925908,-0.406481508,1,0,0,2.2542,submitButton,-0.275925908,-0.406481508,0,0,0,0,56,56,59,1,75,67174,2,180,2022-02-18_21h53.34.595,orientation adjustment 2,2021.2.3,Win32,60.83465142,,,,,,,
,,,,,,,,,,,,,,,,,,,,,,64.44444444,-44,20,75,-28.55555556,15.44444444,10.03888889,-123.9611111,-0.204629609,-0.390740824,1,0,0,1.1993,submitButton,-0.204629609,-0.390740824,0,0,0,0,57,57,28,1,44,67174,2,180,2022-02-18_21h53.34.595,orientation adjustment 2,2021.2.3,Win32,60.83465142,,,,,,,
,,,,,,,,,,,,,,,,,,,,,,-63.88888889,-57,20,75,-225.8888889,11.11111111,4.444444444,-151.4444444,-0.361111095,-0.391666693,1,0,0,2.8159,submitButton,0.025000027,-0.347222247,0,0,0,0,58,58,41,1,57,67174,2,180,2022-02-18_21h53.34.595,orientation adjustment 2,2021.2.3,Win32,60.83465142,,,,,,,
,,,,,,,,,,,,,,,,,,,,,,-65.55555556,-69,20,75,-232.5555556,16.44444444,10.68888889,-169.6888889,-0.294444427,-0.412037064,1,0,0,2.3995,submitButton,0.349074111,-0.390740824,1,0,0,0,59,59,53,1,69,67174,2,180,2022-02-18_21h53.34.595,orientation adjustment 2,2021.2.3,Win32,60.83465142,pause_continueButton,,,,,,
,,,,,,,,,,,,,,,,,,,,,,47.77777778,65,20,75,77.77777778,12.77777778,5.111111111,-19.88888889,0.362963,-0.30555558,1,0,0,1.6493,submitButton,0.018518602,-0.287963043,0,0,0,1,0,60,49,1,65,67174,2,180,2022-02-18_21h53.34.595,orientation adjustment 2,2021.2.3,Win32,60.83465142,,,,,,,
,,,,,,,,,,,,,,,,,,,,,,-31.66666667,-60,20,75,-62.66666667,2.666666667,1.066666667,-151.0666667,0.190740773,-0.273148171,1,0,0,0.4,submitButton,0.016666694,-0.300000024,0,0,0,1,1,61,44,1,60,67174,2,180,2022-02-18_21h53.34.595,orientation adjustment 2,2021.2.3,Win32,60.83465142,,,,,,,
,,,,,,,,,,,,,,,,,,,,,,-50,63,20,75,47,16,10.4,-37.4,-0.205555535,-0.391666693,1,0,0,1.0822,submitButton,-0.142592514,-0.362963045,0,0,0,1,2,62,47,1,63,67174,2,180,2022-02-18_21h53.34.595,orientation adjustment 2,2021.2.3,Win32,60.83465142,,,,,,,
,,,,,,,,,,,,,,,,,,,,,,-56.11111111,-17,20,75,-202.1111111,5.111111111,2.044444444,-109.0444444,-0.354629614,-0.39629638,1,0,0,3.166,submitButton,0.025000027,-0.384259286,0,0,0,1,3,63,1,1,17,67174,2,180,2022-02-18_21h53.34.595,orientation adjustment 2,2021.2.3,Win32,60.83465142,,,,,,,
,,,,,,,,,,,,,,,,,,,,,,-54.44444444,-30,20,75,-17.44444444,12.55555556,5.022222222,-114.9777778,0.193518551,-0.277777801,1,0,0,1.016,submitButton,-0.187962942,-0.386111138,0,0,0,1,4,64,14,1,30,67174,2,180,2022-02-18_21h53.34.595,orientation adjustment 2,2021.2.3,Win32,60.83465142,,,,,,,
,,,,,,,,,,,,,,,,,,,,,,51.66666667,53,20,75,72.66666667,19.66666667,12.78333333,-24.21666667,0.388888927,-0.283333357,1,0,0,0.4499,submitButton,-0.165740719,-0.402777805,0,0,0,1,5,65,37,1,53,67174,2,180,2022-02-18_21h53.34.595,orientation adjustment 2,2021.2.3,Win32,60.83465142,,,,,,,
,,,,,,,,,,,,,,,,,,,,,,-45,-32,20,75,-22,10,4,-118,0.187037069,-0.26574082,1,0,0,0.0331,submitButton,-0.179629608,-0.400000027,0,0,0,1,6,66,16,1,32,67174,2,180,2022-02-18_21h53.34.595,orientation adjustment 2,2021.2.3,Win32,60.83465142,,,,,,,
,,,,,,,,,,,,,,,,,,,,,,-35.55555556,-34,20,75,-32.55555556,1.444444444,0.577777778,-123.4222222,0.2166667,-0.28703706,1,0,0,0.0835,submitButton,-0.200925905,-0.425000028,0,0,0,1,7,67,18,1,34,67174,2,180,2022-02-18_21h53.34.595,orientation adjustment 2,2021.2.3,Win32,60.83465142,,,,,,,
,,,,,,,,,,,,,,,,,,,,,,26.66666667,-28,20,75,-24.33333333,3.666666667,1.466666667,-116.5333333,-0.209259239,-0.38333336,1,0,0,0.9999,submitButton,-0.209259239,-0.38333336,0,0,0,1,8,68,12,1,28,67174,2,180,2022-02-18_21h53.34.595,orientation adjustment 2,2021.2.3,Win32,60.83465142,,,,,,,
,,,,,,,,,,,,,,,,,,,,,,-32.22222222,29,20,75,17.77777778,11.22222222,4.488888889,-65.48888889,0.21203707,-0.283333357,1,0,0,0.0997,submitButton,-0.254629611,-0.411111138,0,0,0,1,9,69,13,1,29,67174,2,180,2022-02-18_21h53.34.595,orientation adjustment 2,2021.2.3,Win32,60.83465142,,,,,,,
,,,,,,,,,,,,,,,,,,,,,,68.88888889,-40,20,75,-31.11111111,8.888888889,3.555555556,-126.4444444,-0.287962945,-0.391666693,1,0,0,1.7834,submitButton,-0.17314807,-0.325000025,0,0,0,1,10,70,24,1,40,67174,2,180,2022-02-18_21h53.34.595,orientation adjustment 2,2021.2.3,Win32,60.83465142,,,,,,,
,,,,,,,,,,,,,,,,,,,,,,-71.11111111,-26,20,75,-209.1111111,3.111111111,1.244444444,-117.2444444,-0.292592575,-0.380555582,1,0,0,2.7627,submitButton,-0.292592575,-0.380555582,0,0,0,1,11,71,10,1,26,67174,2,180,2022-02-18_21h53.34.595,orientation adjustment 2,2021.2.3,Win32,60.83465142,,,,,,,
,,,,,,,,,,,,,,,,,,,,,,58.33333333,55,20,75,230.3333333,4.666666667,1.866666667,-33.13333333,-0.205555535,-0.39629638,1,0,0,2.3976,submitButton,-0.052777753,-0.348148173,0,0,0,1,12,72,39,1,55,67174,2,180,2022-02-18_21h53.34.595,orientation adjustment 2,2021.2.3,Win32,60.83465142,,,,,,,
,,,,,,,,,,,,,,,,,,,,,,26.66666667,56,20,75,61.66666667,5.666666667,2.266666667,-31.73333333,0.41111115,-0.293518599,1,0,0,0.5326,submitButton,-0.219444424,-0.394444471,0,0,0,1,13,73,40,1,56,67174,2,180,2022-02-18_21h53.34.595,orientation adjustment 2,2021.2.3,Win32,60.83465142,,,,,,,
,,,,,,,,,,,,,,,,,,,,,,62.22222222,-22,20,75,-26.77777778,4.777777778,1.911111111,-113.9111111,0.427777817,-0.287963043,1,0,0,1.282,submitButton,0.295370406,-0.380555582,1,0,0,1,14,74,6,1,22,67174,2,180,2022-02-18_21h53.34.595,orientation adjustment 2,2021.2.3,Win32,60.83465142,pause_continueButton,,,,,,
,,,,,,,,,,,,,,,,,,,,,,-48.33333333,-39,20,75,-26.33333333,12.66666667,5.066666667,-123.9333333,0.197222255,-0.302777802,1,0,0,0.6498,submitButton,-0.008333307,-0.326851933,0,0,0,1,15,75,23,1,39,67174,2,180,2022-02-18_21h53.34.595,orientation adjustment 2,2021.2.3,Win32,60.83465142,,,,,,,
,,,,,,,,,,,,,,,,,,,,,,37.77777778,-61,20,75,-51.22222222,9.777777778,3.911111111,-147.0888889,-0.296296279,-0.371296379,1,0,0,0.6663,submitButton,-0.282407389,-0.394444471,0,0,0,1,16,76,45,1,61,67174,2,180,2022-02-18_21h53.34.595,orientation adjustment 2,2021.2.3,Win32,60.83465142,,,,,,,
,,,,,,,,,,,,,,,,,,,,,,-35.55555556,58,20,75,22.44444444,35.55555556,28.44444444,-60.44444444,-0.265740722,-0.390740824,1,0,0,0.6993,submitButton,-0.265740722,-0.390740824,0,0,0,1,17,77,42,1,58,67174,2,180,2022-02-18_21h53.34.595,orientation adjustment 2,2021.2.3,Win32,60.83465142,,,,,,,
,,,,,,,,,,,,,,,,,,,,,,63.33333333,72,20,75,236.3333333,15.66666667,10.18333333,-7.816666667,-0.241666647,-0.433333361,1,0,0,2.2493,submitButton,0.132407438,-0.249074153,0,0,0,1,18,78,56,1,72,67174,2,180,2022-02-18_21h53.34.595,orientation adjustment 2,2021.2.3,Win32,60.83465142,,,,,,,
,,,,,,,,,,,,,,,,,,,,,,-32.77777778,-62,20,75,-68.77777778,6.777777778,2.711111111,-154.7111111,0.21203707,-0.278703727,1,0,0,0.9326,submitButton,-0.424074032,-0.376851934,0,0,0,1,19,79,46,1,62,67174,2,180,2022-02-18_21h53.34.595,orientation adjustment 2,2021.2.3,Win32,60.83465142,,,,,,,
,,,,,,,,,,,,,,,,,,,,,,51.66666667,-70,20,75,-63.33333333,6.666666667,2.666666667,-157.3333333,0.394444483,-0.324074155,1,0,0,0.016,submitButton,-0.208333313,-0.404629713,0,0,0,1,20,80,54,1,70,67174,2,180,2022-02-18_21h53.34.595,orientation adjustment 2,2021.2.3,Win32,60.83465142,,,,,,,
,,,,,,,,,,,,,,,,,,,,,,-48.33333333,-52,20,75,-63.33333333,11.33333333,4.533333333,-146.5333333,0.244444478,-0.306481506,1,0,0,0.1503,submitButton,-0.212962943,-0.403703731,0,0,0,1,21,81,36,1,52,67174,2,180,2022-02-18_21h53.34.595,orientation adjustment 2,2021.2.3,Win32,60.83465142,,,,,,,
,,,,,,,,,,,,,,,,,,,,,,-38.33333333,23,20,75,13.66666667,9.333333333,3.733333333,-70.73333333,-0.233333314,-0.384259286,1,0,0,1.1167,submitButton,-0.233333314,-0.384259286,0,0,0,1,22,82,7,1,23,67174,2,180,2022-02-18_21h53.34.595,orientation adjustment 2,2021.2.3,Win32,60.83465142,,,,,,,
,,,,,,,,,,,,,,,,,,,,,,72.77777778,51,20,75,222.7777778,8.222222222,3.288888889,-35.71111111,-0.35555554,-0.428703731,1,0,0,2.5168,submitButton,-0.194444424,-0.325000025,0,0,0,1,23,83,35,1,51,67174,2,180,2022-02-18_21h53.34.595,orientation adjustment 2,2021.2.3,Win32,60.83465142,,,,,,,
,,,,,,,,,,,,,,,,,,,,,,49.44444444,-43,20,75,-34.55555556,8.444444444,3.377777778,-129.6222222,0.387037075,-0.299074154,1,0,0,0.2,submitButton,-0.196296276,-0.391666693,0,0,0,1,24,84,27,1,43,67174,2,180,2022-02-18_21h53.34.595,orientation adjustment 2,2021.2.3,Win32,60.83465142,,,,,,,
,,,,,,,,,,,,,,,,,,,,,,-30.55555556,42,20,75,34.44444444,7.555555556,3.022222222,-51.02222222,-0.31666665,-0.389814841,1,0,0,1.3164,submitButton,-0.31666665,-0.389814841,0,0,0,1,25,85,26,1,42,67174,2,180,2022-02-18_21h53.34.595,orientation adjustment 2,2021.2.3,Win32,60.83465142,,,,,,,
,,,,,,,,,,,,,,,,,,,,,,-36.11111111,-74,20,75,-110.1111111,36.11111111,28.88888889,-192.8888889,-0.166666645,-0.389814841,1,0,0,1.5496,submitButton,-0.166666645,-0.389814841,0,0,0,1,26,86,58,1,74,67174,2,180,2022-02-18_21h53.34.595,orientation adjustment 2,2021.2.3,Win32,60.83465142,,,,,,,
,,,,,,,,,,,,,,,,,,,,,,-60,-25,20,75,-33,8,3.2,-118.2,0.183333365,-0.285185265,1,0,0,0.1498,submitButton,-0.237037018,-0.384259286,0,0,0,1,27,87,9,1,25,67174,2,180,2022-02-18_21h53.34.595,orientation adjustment 2,2021.2.3,Win32,60.83465142,,,,,,,
,,,,,,,,,,,,,,,,,,,,,,37.22222222,67,20,75,68.22222222,1.222222222,0.488888889,-22.51111111,0.350000037,-0.30555558,1,0,0,0.6004,submitButton,-0.292592575,-0.375925952,0,0,0,1,28,88,51,1,67,67174,2,180,2022-02-18_21h53.34.595,orientation adjustment 2,2021.2.3,Win32,60.83465142,,,,,,,
,,,,,,,,,,,,,,,,,,,,,,-56.11111111,69,20,75,56.88888889,12.11111111,4.844444444,-25.84444444,-0.303703686,-0.419444472,1,0,0,1.2492,submitButton,0.262962997,-0.425925954,1,0,0,1,29,89,53,1,69,67174,2,180,2022-02-18_21h53.34.595,orientation adjustment 2,2021.2.3,Win32,60.83465142,pause_continueButton,,,,,,
,,,,,,,,,,,,,,,,,,,,,,56.66666667,-38,20,75,18.66666667,56.66666667,45.33333333,-82.66666667,-0.174074053,-0.385185268,1,0,0,3.9828,submitButton,0.28981485,-0.22685193,0,0,0,1,30,90,22,1,38,67174,2,180,2022-02-18_21h53.34.595,orientation adjustment 2,2021.2.3,Win32,60.83465142,,,,,,,
,,,,,,,,,,,,,,,,,,,,,,61.11111111,-36,20,75,-26.88888889,9.111111111,3.644444444,-122.3555556,0.456481522,-0.300000024,1,0,0,0.4005,submitButton,-0.204629609,-0.38240749,0,0,0,1,31,91,20,1,36,67174,2,180,2022-02-18_21h53.34.595,orientation adjustment 2,2021.2.3,Win32,60.83465142,,,,,,,
,,,,,,,,,,,,,,,,,,,,,,47.77777778,64,20,75,73.77777778,9.777777778,3.911111111,-22.08888889,0.387037075,-0.301851932,1,0,0,0.3658,submitButton,0.308333369,-0.235185264,0,0,0,1,32,92,48,1,64,67174,2,180,2022-02-18_21h53.34.595,orientation adjustment 2,2021.2.3,Win32,60.83465142,,,,,,,
,,,,,,,,,,,,,,,,,,,,,,66.66666667,-49,20,75,-27.33333333,21.66666667,14.08333333,-124.9166667,-0.214814795,-0.385185268,1,0,0,1.3655,submitButton,-0.172222201,-0.36944447,0,0,0,1,33,93,33,1,49,67174,2,180,2022-02-18_21h53.34.595,orientation adjustment 2,2021.2.3,Win32,60.83465142,,,,,,,
,,,,,,,,,,,,,,,,,,,,,,-57.77777778,-68,20,75,-235.7777778,12.22222222,4.888888889,-162.8888889,0.434259299,-0.293518599,1,0,0,0.0998,submitButton,0.02129638,-0.414814842,0,0,0,1,34,94,52,1,68,67174,2,180,2022-02-18_21h53.34.595,orientation adjustment 2,2021.2.3,Win32,60.83465142,,,,,,,
,,,,,,,,,,,,,,,,,,,,,,-48.88888889,47,20,75,31.11111111,15.88888889,10.32777778,-53.32777778,0.222222255,-0.328703728,1,0,0,0.1829,submitButton,-0.262962944,-0.41759262,0,0,0,1,35,95,31,1,47,67174,2,180,2022-02-18_21h53.34.595,orientation adjustment 2,2021.2.3,Win32,60.83465142,,,,,,,
,,,,,,,,,,,,,,,,,,,,,,-23.88888889,-16,20,75,-163.8888889,32.11111111,25.68888889,-131.6888889,0.389814853,-0.30462971,1,0,0,0.17,submitButton,-0.363888873,-0.393518602,0,0,0,1,36,96,0,1,16,67174,2,180,2022-02-18_21h53.34.595,orientation adjustment 2,2021.2.3,Win32,60.83465142,,,,,,,
,,,,,,,,,,,,,,,,,,,,,,36.66666667,37,20,75,24.66666667,12.33333333,4.933333333,-57.93333333,0.382407445,-0.316666691,1,0,0,0.3153,submitButton,-0.276851834,-0.379629712,0,0,0,1,37,97,21,1,37,67174,2,180,2022-02-18_21h53.34.595,orientation adjustment 2,2021.2.3,Win32,60.83465142,,,,,,,
,,,,,,,,,,,,,,,,,,,,,,-37.77777778,-31,20,75,12.22222222,43.22222222,34.57777778,-86.42222222,0.20740744,-0.29166669,1,0,0,0.1666,submitButton,0.24629633,-0.299074154,0,0,0,1,38,98,15,1,31,67174,2,180,2022-02-18_21h53.34.595,orientation adjustment 2,2021.2.3,Win32,60.83465142,,,,,,,
,,,,,,,,,,,,,,,,,,,,,,48.88888889,27,20,75,23.88888889,3.111111111,1.244444444,-64.24444444,-0.239814795,-0.392592619,1,0,0,1.7504,submitButton,0.026851936,-0.364814841,0,0,0,1,39,99,11,1,27,67174,2,180,2022-02-18_21h53.34.595,orientation adjustment 2,2021.2.3,Win32,60.83465142,,,,,,,
,,,,,,,,,,,,,,,,,,,,,,75,19,20,75,172,27,17.55,-53.45,0.224074107,-0.301851932,1,0,0,0.183,submitButton,0.022222249,-0.360185267,0,0,0,1,40,100,3,1,19,67174,2,180,2022-02-18_21h53.34.595,orientation adjustment 2,2021.2.3,Win32,60.83465142,,,,,,,
,,,,,,,,,,,,,,,,,,,,,,42.77777778,66,20,75,204.7777778,41.22222222,32.97777778,8.977777778,0.233333367,-0.314814839,1,0,0,0.1014,submitButton,-0.18611109,-0.40833336,0,0,0,1,41,101,50,1,66,67174,2,180,2022-02-18_21h53.34.595,orientation adjustment 2,2021.2.3,Win32,60.83465142,,,,,,,
,,,,,,,,,,,,,,,,,,,,,,-23.88888889,57,20,75,54.11111111,2.888888889,1.155555556,-34.15555556,0.224074107,-0.325925951,1,0,0,0.333,submitButton,-0.133333311,-0.242592615,0,0,0,1,42,102,41,1,57,67174,2,180,2022-02-18_21h53.34.595,orientation adjustment 2,2021.2.3,Win32,60.83465142,,,,,,,
,,,,,,,,,,,,,,,,,,,,,,40.55555556,59,20,75,241.5555556,2.555555556,1.022222222,-29.97777778,0.213888922,-0.309259283,1,0,0,0.3991,submitButton,-0.124999977,-0.314814839,0,0,0,1,43,103,43,1,59,67174,2,180,2022-02-18_21h53.34.595,orientation adjustment 2,2021.2.3,Win32,60.83465142,,,,,,,
,,,,,,,,,,,,,,,,,,,,,,-67.22222222,-35,20,75,-197.2222222,17.77777778,11.55555556,-136.5555556,0.412963002,-0.311111135,1,0,0,0.1333,submitButton,0.262962997,-0.42129638,1,0,0,1,44,104,19,1,35,67174,2,180,2022-02-18_21h53.34.595,orientation adjustment 2,2021.2.3,Win32,60.83465142,pause_continueButton,,,,,,
,,,,,,,,,,,,,,,,,,,,,,66.66666667,-71,20,75,-4.333333333,66.66666667,53.33333333,-107.6666667,-0.224074054,-0.380555582,1,0,0,1.8825,submitButton,-0.099999976,-0.342592618,0,0,0,1,45,105,55,1,71,67174,2,180,2022-02-18_21h53.34.595,orientation adjustment 2,2021.2.3,Win32,60.83465142,,,,,,,
,,,,,,,,,,,,,,,,,,,,,,20,-24,20,75,-26,2,0.8,-114.8,0.383333371,-0.332407489,1,0,0,0.4163,submitButton,-0.261111092,-0.402777805,0,0,0,1,46,106,8,1,24,67174,2,180,2022-02-18_21h53.34.595,orientation adjustment 2,2021.2.3,Win32,60.83465142,,,,,,,
,,,,,,,,,,,,,,,,,,,,,,-50.55555556,-21,20,75,-23.55555556,2.555555556,1.022222222,-112.0222222,0.206481514,-0.308333357,1,0,0,0.4333,submitButton,-0.226851832,-0.390740824,0,0,0,1,47,107,5,1,21,67174,2,180,2022-02-18_21h53.34.595,orientation adjustment 2,2021.2.3,Win32,60.83465142,,,,,,,
,,,,,,,,,,,,,,,,,,,,,,48.33333333,73,20,75,216.3333333,36.66666667,29.33333333,12.33333333,0.21203707,-0.271296376,1,0,0,0.0335,submitButton,-0.256481463,-0.407407491,0,0,0,1,48,108,57,1,73,67174,2,180,2022-02-18_21h53.34.595,orientation adjustment 2,2021.2.3,Win32,60.83465142,,,,,,,
,,,,,,,,,,,,,,,,,,,,,,41.11111111,-50,20,75,-39.88888889,10.11111111,4.044444444,-135.9555556,0.422222261,-0.30462971,1,0,0,0.1834,submitButton,-0.19074072,-0.412037064,0,0,0,1,49,109,34,1,50,67174,2,180,2022-02-18_21h53.34.595,orientation adjustment 2,2021.2.3,Win32,60.83465142,,,,,,,
,,,,,,,,,,,,,,,,,,,,,,-26.11111111,-75,20,75,-77.11111111,2.111111111,0.844444444,-165.8444444,0.196296329,-0.312963044,1,0,0,0.433,submitButton,-0.091666643,-0.33981484,0,0,0,1,50,110,59,1,75,67174,2,180,2022-02-18_21h53.34.595,orientation adjustment 2,2021.2.3,Win32,60.83465142,,,,,,,
,,,,,,,,,,,,,,,,,,,,,,60.55555556,41,20,75,210.5555556,10.44444444,4.177777778,-44.82222222,0.224074107,-0.320370395,1,0,0,0.7329,submitButton,0.004629713,-0.263888912,0,0,0,1,51,111,25,1,41,67174,2,180,2022-02-18_21h53.34.595,orientation adjustment 2,2021.2.3,Win32,60.83465142,,,,,,,
,,,,,,,,,,,,,,,,,,,,,,-61.11111111,-48,20,75,-216.1111111,11.88888889,4.755555556,-142.7555556,0.387963001,-0.30462971,1,0,0,0.2994,submitButton,-0.201851831,-0.400925953,0,0,0,1,52,112,32,1,48,67174,2,180,2022-02-18_21h53.34.595,orientation adjustment 2,2021.2.3,Win32,60.83465142,,,,,,,
,,,,,,,,,,,,,,,,,,,,,,-60,-46,20,75,-224,2,0.8,-136.8,0.404629668,-0.290740821,1,0,0,0.1832,submitButton,-0.189814794,-0.398148175,0,0,0,1,53,113,30,1,46,67174,2,180,2022-02-18_21h53.34.595,orientation adjustment 2,2021.2.3,Win32,60.83465142,,,,,,,
,,,,,,,,,,,,,,,,,,,,,,68.33333333,-45,20,75,-51.66666667,6.666666667,2.666666667,-137.6666667,0.397222261,-0.323148173,1,0,0,0.6155,submitButton,-0.248148129,-0.393518602,0,0,0,1,54,114,29,1,45,67174,2,180,2022-02-18_21h53.34.595,orientation adjustment 2,2021.2.3,Win32,60.83465142,,,,,,,
,,,,,,,,,,,,,,,,,,,,,,52.22222222,54,20,75,216.2222222,17.77777778,11.55555556,-24.44444444,0.217592626,-0.284259283,1,0,0,0.2165,submitButton,-0.149999978,-0.250000022,0,0,0,1,55,115,38,1,54,67174,2,180,2022-02-18_21h53.34.595,orientation adjustment 2,2021.2.3,Win32,60.83465142,,,,,,,
,,,,,,,,,,,,,,,,,,,,,,-36.11111111,-44,20,75,21.88888889,65.88888889,52.71111111,-81.28888889,0.233333367,-0.298148172,1,0,0,0.2502,submitButton,-0.172222201,-0.356481507,0,0,0,1,56,116,28,1,44,67174,2,180,2022-02-18_21h53.34.595,orientation adjustment 2,2021.2.3,Win32,60.83465142,,,,,,,
,,,,,,,,,,,,,,,,,,,,,,-67.22222222,33,20,75,28.77777778,4.222222222,1.688888889,-58.68888889,-0.260185166,-0.393518602,1,0,0,1.5608,submitButton,-0.203703683,-0.371296379,0,0,0,1,57,117,17,1,33,67174,2,180,2022-02-18_21h53.34.595,orientation adjustment 2,2021.2.3,Win32,60.83465142,,,,,,,
,,,,,,,,,,,,,,,,,,,,,,-74.44444444,-20,20,75,-166.4444444,33.55555556,26.84444444,-136.8444444,0.426851891,-0.308333357,1,0,0,0.1001,submitButton,-0.192592572,-0.394444471,0,0,0,1,58,118,4,1,20,67174,2,180,2022-02-18_21h53.34.595,orientation adjustment 2,2021.2.3,Win32,60.83465142,,,,,,,
,,,,,,,,,,,,,,,,,,,,,,-45.55555556,18,20,75,20.44444444,2.444444444,0.977777778,-71.02222222,0.185185217,-0.275925949,1,0,0,0.279,submitButton,0.240740774,-0.399074157,1,0,0,1,59,119,2,1,18,67174,2,180,2022-02-18_21h53.34.595,orientation adjustment 2,2021.2.3,Win32,60.83465142,pause_continueButton,,,,,,
,,,,,,,,,,,,,,,,,,,,,,21.66666667,71,20,75,254.6666667,3.666666667,1.466666667,-17.53333333,-0.201851831,-0.393518602,1,0,0,3.5284,submitButton,0.063888917,-0.337963044,0,0,0,2,0,120,55,1,71,67174,2,180,2022-02-18_21h53.34.595,orientation adjustment 2,2021.2.3,Win32,60.83465142,,,,,,,
,,,,,,,,,,,,,,,,,,,,,,45,46,20,75,53,7,2.8,-41.2,0.365740778,-0.297222246,1,0,0,0.3494,submitButton,-0.274999982,-0.387037063,0,0,0,2,1,121,30,1,46,67174,2,180,2022-02-18_21h53.34.595,orientation adjustment 2,2021.2.3,Win32,60.83465142,,,,,,,
,,,,,,,,,,,,,,,,,,,,,,-29.44444444,39,20,75,47.55555556,8.555555556,3.422222222,-47.57777778,-0.329629613,-0.389814841,1,0,0,1.1114,submitButton,-0.329629613,-0.389814841,0,0,0,2,2,122,23,1,39,67174,2,180,2022-02-18_21h53.34.595,orientation adjustment 2,2021.2.3,Win32,60.83465142,,,,,,,
,,,,,,,,,,,,,,,,,,,,,,-54.44444444,-21,20,75,-29.44444444,8.444444444,3.377777778,-114.3777778,0.208333366,-0.286111135,1,0,0,0.1664,submitButton,-0.287037019,-0.388888915,0,0,0,2,3,123,5,1,21,67174,2,180,2022-02-18_21h53.34.595,orientation adjustment 2,2021.2.3,Win32,60.83465142,,,,,,,
,,,,,,,,,,,,,,,,,,,,,,-58.88888889,22,20,75,20.11111111,1.888888889,0.755555556,-68.75555556,-0.15185183,-0.404629713,1,0,0,1.5793,submitButton,-0.15185183,-0.404629713,0,0,0,2,4,124,6,1,22,67174,2,180,2022-02-18_21h53.34.595,orientation adjustment 2,2021.2.3,Win32,60.83465142,,,,,,,
,,,,,,,,,,,,,,,,,,,,,,-42.77777778,-75,20,75,-57.77777778,17.22222222,11.19444444,-153.8055556,-0.18148146,-0.392592619,1,0,0,1.6834,submitButton,-0.18148146,-0.392592619,0,0,0,2,5,125,59,1,75,67174,2,180,2022-02-18_21h53.34.595,orientation adjustment 2,2021.2.3,Win32,60.83465142,,,,,,,
,,,,,,,,,,,,,,,,,,,,,,-38.88888889,-58,20,75,-59.88888889,1.888888889,0.755555556,-148.7555556,-0.22499998,-0.375925952,1,0,0,0.9286,submitButton,-0.22499998,-0.375925952,0,0,0,2,6,126,42,1,58,67174,2,180,2022-02-18_21h53.34.595,orientation adjustment 2,2021.2.3,Win32,60.83465142,,,,,,,
,,,,,,,,,,,,,,,,,,,,,,-27.22222222,-42,20,75,-37.22222222,4.777777778,1.911111111,-130.0888889,0.189814847,-0.295370394,1,0,0,0.1333,submitButton,-0.141666644,-0.415740825,0,0,0,2,7,127,26,1,42,67174,2,180,2022-02-18_21h53.34.595,orientation adjustment 2,2021.2.3,Win32,60.83465142,,,,,,,
,,,,,,,,,,,,,,,,,,,,,,-32.22222222,-70,20,75,-73.22222222,3.222222222,1.288888889,-161.2888889,-0.306481464,-0.412963047,1,0,0,0.9457,submitButton,-0.306481464,-0.412963047,0,0,0,2,8,128,54,1,70,67174,2,180,2022-02-18_21h53.34.595,orientation adjustment 2,2021.2.3,Win32,60.83465142,,,,,,,
,,,,,,,,,,,,,,,,,,,,,,66.66666667,-72,20,75,116.6666667,8.666666667,3.466666667,-158.5333333,0.190740773,-0.347222247,1,0,0,0.071,submitButton,-0.250925907,-0.394444471,0,0,0,2,9,129,56,1,72,67174,2,180,2022-02-18_21h53.34.595,orientation adjustment 2,2021.2.3,Win32,60.83465142,,,,,,,
,,,,,,,,,,,,,,,,,,,,,,-62.77777778,25,20,75,24.22222222,0.777777778,0.311111111,-65.31111111,-0.271296278,-0.425000028,1,0,0,1.5325,submitButton,-0.271296278,-0.425000028,0,0,0,2,10,130,9,1,25,67174,2,180,2022-02-18_21h53.34.595,orientation adjustment 2,2021.2.3,Win32,60.83465142,,,,,,,
,,,,,,,,,,,,,,,,,,,,,,38.88888889,68,20,75,64.88888889,3.111111111,1.244444444,-23.24444444,0.360185222,-0.333333358,1,0,0,0.1503,submitButton,-0.247222203,-0.443518603,0,0,0,2,11,131,52,1,68,67174,2,180,2022-02-18_21h53.34.595,orientation adjustment 2,2021.2.3,Win32,60.83465142,,,,,,,
,,,,,,,,,,,,,,,,,,,,,,-55,54,20,75,39,15,9.75,-45.75,0.222222255,-0.284259283,1,0,0,0.2285,submitButton,-0.235185166,-0.41759262,0,0,0,2,12,132,38,1,54,67174,2,180,2022-02-18_21h53.34.595,orientation adjustment 2,2021.2.3,Win32,60.83465142,,,,,,,
,,,,,,,,,,,,,,,,,,,,,,-46.66666667,-60,20,75,-67.66666667,7.666666667,3.066666667,-153.0666667,0.240740774,-0.338888914,1,0,0,0.0169,submitButton,-0.232407388,-0.410185269,0,0,0,2,13,133,44,1,60,67174,2,180,2022-02-18_21h53.34.595,orientation adjustment 2,2021.2.3,Win32,60.83465142,,,,,,,
,,,,,,,,,,,,,,,,,,,,,,-27.22222222,41,20,75,34.77777778,6.222222222,2.488888889,-51.48888889,-0.288888871,-0.426851936,1,0,0,1.0617,submitButton,0.299074109,-0.395370397,1,0,0,2,14,134,25,1,41,67174,2,180,2022-02-18_21h53.34.595,orientation adjustment 2,2021.2.3,Win32,60.83465142,pause_continueButton,,,,,,
,,,,,,,,,,,,,,,,,,,,,,-22.77777778,-64,20,75,-72.77777778,8.777777778,3.511111111,-157.5111111,0.229629663,-0.329629711,1,0,0,0.1331,submitButton,-0.197222202,-0.398148175,0,0,0,2,15,135,48,1,64,67174,2,180,2022-02-18_21h53.34.595,orientation adjustment 2,2021.2.3,Win32,60.83465142,,,,,,,
,,,,,,,,,,,,,,,,,,,,,,25,-47,20,75,-36,11,4.4,-132.6,0.373148186,-0.318518599,1,0,0,0.2996,submitButton,-0.10925918,-0.400000027,0,0,0,2,16,136,31,1,47,67174,2,180,2022-02-18_21h53.34.595,orientation adjustment 2,2021.2.3,Win32,60.83465142,,,,,,,
,,,,,,,,,,,,,,,,,,,,,,-26.66666667,17,20,75,31.33333333,14.33333333,5.733333333,-67.26666667,-0.219444424,-0.427777805,1,0,0,1.1282,submitButton,-0.163888867,-0.39629638,0,0,0,2,17,137,1,1,17,67174,2,180,2022-02-18_21h53.34.595,orientation adjustment 2,2021.2.3,Win32,60.83465142,,,,,,,
,,,,,,,,,,,,,,,,,,,,,,34.44444444,38,20,75,37.44444444,0.555555556,0.222222222,-52.22222222,0.400000038,-0.30092595,1,0,0,0.3706,submitButton,-0.156481403,-0.381481508,0,0,0,2,18,138,22,1,38,67174,2,180,2022-02-18_21h53.34.595,orientation adjustment 2,2021.2.3,Win32,60.83465142,,,,,,,
,,,,,,,,,,,,,,,,,,,,,,-35.55555556,-29,20,75,-17.55555556,11.44444444,4.577777778,-114.4222222,0.220370403,-0.325000025,1,0,0,0.5619,submitButton,-0.19537035,-0.386111138,0,0,0,2,19,139,13,1,29,67174,2,180,2022-02-18_21h53.34.595,orientation adjustment 2,2021.2.3,Win32,60.83465142,,,,,,,
,,,,,,,,,,,,,,,,,,,,,,40.55555556,-63,20,75,-51.44444444,11.55555556,4.622222222,-148.3777778,-0.203703683,-0.404629713,1,0,0,0.9623,submitButton,-0.203703683,-0.404629713,0,0,0,2,20,140,47,1,63,67174,2,180,2022-02-18_21h53.34.595,orientation adjustment 2,2021.2.3,Win32,60.83465142,,,,,,,
,,,,,,,,,,,,,,,,,,,,,,28.88888889,37,20,75,40.88888889,3.888888889,1.555555556,-51.44444444,0.425000039,-0.311111135,1,0,0,0.0338,submitButton,-0.152777756,-0.41759262,0,0,0,2,21,141,21,1,37,67174,2,180,2022-02-18_21h53.34.595,orientation adjustment 2,2021.2.3,Win32,60.83465142,,,,,,,
,,,,,,,,,,,,,,,,,,,,,,20.55555556,43,20,75,49.55555556,6.555555556,2.622222222,-44.37777778,-0.335185169,-0.443518603,1,0,0,0.8667,submitButton,-0.397222208,-0.402777805,0,0,0,2,22,142,27,1,43,67174,2,180,2022-02-18_21h53.34.595,orientation adjustment 2,2021.2.3,Win32,60.83465142,,,,,,,
,,,,,,,,,,,,,,,,,,,,,,40,-62,20,75,-58,4,1.6,-150.4,0.375925964,-0.320370395,1,0,0,0.1333,submitButton,-0.264814796,-0.425925954,0,0,0,2,23,143,46,1,62,67174,2,180,2022-02-18_21h53.34.595,orientation adjustment 2,2021.2.3,Win32,60.83465142,,,,,,,
,,,,,,,,,,,,,,,,,,,,,,21.11111111,-61,20,75,-52.88888889,8.111111111,3.244444444,-147.7555556,0.381481519,-0.290740821,1,0,0,0.017,submitButton,-0.342592576,-0.42129638,0,0,0,2,24,144,45,1,61,67174,2,180,2022-02-18_21h53.34.595,orientation adjustment 2,2021.2.3,Win32,60.83465142,,,,,,,
,,,,,,,,,,,,,,,,,,,,,,-48.33333333,56,20,75,49.66666667,6.333333333,2.533333333,-36.53333333,0.150000031,-0.295370394,1,0,0,0.8996,submitButton,-0.170370292,-0.386111138,0,0,0,2,25,145,40,1,56,67174,2,180,2022-02-18_21h53.34.595,orientation adjustment 2,2021.2.3,Win32,60.83465142,,,,,,,
,,,,,,,,,,,,,,,,,,,,,,-23.88888889,67,20,75,56.11111111,10.88888889,4.355555556,-27.35555556,-0.133333311,-0.374074157,1,0,0,0.7491,submitButton,-0.133333311,-0.374074157,0,0,0,2,26,146,51,1,67,67174,2,180,2022-02-18_21h53.34.595,orientation adjustment 2,2021.2.3,Win32,60.83465142,,,,,,,
,,,,,,,,,,,,,,,,,,,,,,37.22222222,-31,20,75,-33.77777778,2.777777778,1.111111111,-122.1111111,0.425000039,-0.297222246,1,0,0,0.0664,submitButton,-0.122222199,-0.386111138,0,0,0,2,27,147,15,1,31,67174,2,180,2022-02-18_21h53.34.595,orientation adjustment 2,2021.2.3,Win32,60.83465142,,,,,,,
,,,,,,,,,,,,,,,,,,,,,,-30,27,20,75,20,7,2.8,-65.8,-0.231481462,-0.434259287,1,0,0,1.0995,submitButton,-0.292592575,-0.390740824,0,0,0,2,28,148,11,1,27,67174,2,180,2022-02-18_21h53.34.595,orientation adjustment 2,2021.2.3,Win32,60.83465142,,,,,,,
,,,,,,,,,,,,,,,,,,,,,,-45,66,20,75,56,10,4,-28,-0.218518499,-0.38333336,1,0,0,0.8825,submitButton,0.436111151,-0.386111138,1,0,0,2,29,149,50,1,66,67174,2,180,2022-02-18_21h53.34.595,orientation adjustment 2,2021.2.3,Win32,60.83465142,pause_continueButton,,,,,,
,,,,,,,,,,,,,,,,,,,,,,-36.11111111,-16,20,75,-20.11111111,4.111111111,1.644444444,-107.6444444,-0.114814735,-0.379629712,1,0,0,1.1331,submitButton,-0.114814735,-0.379629712,0,0,0,2,30,150,0,1,16,67174,2,180,2022-02-18_21h53.34.595,orientation adjustment 2,2021.2.3,Win32,60.83465142,,,,,,,
,,,,,,,,,,,,,,,,,,,,,,-58.33333333,36,20,75,12.66666667,23.33333333,15.16666667,-69.16666667,-0.180555534,-0.425000028,1,0,0,1.5494,submitButton,0.040740825,-0.310185266,0,0,0,2,31,151,20,1,36,67174,2,180,2022-02-18_21h53.34.595,orientation adjustment 2,2021.2.3,Win32,60.83465142,,,,,,,
,,,,,,,,,,,,,,,,,,,,,,23.88888889,19,20,75,29.88888889,10.88888889,4.355555556,-66.64444444,0.395370409,-0.302777802,1,0,0,0.0835,submitButton,-0.052777753,-0.314814839,0,0,0,2,32,152,3,1,19,67174,2,180,2022-02-18_21h53.34.595,orientation adjustment 2,2021.2.3,Win32,60.83465142,,,,,,,
,,,,,,,,,,,,,,,,,,,,,,-48.33333333,-26,20,75,-17.33333333,8.666666667,3.466666667,-112.5333333,0.172222254,-0.261111134,1,0,0,0.0502,submitButton,-0.271296278,-0.400925953,0,0,0,2,33,153,10,1,26,67174,2,180,2022-02-18_21h53.34.595,orientation adjustment 2,2021.2.3,Win32,60.83465142,,,,,,,
,,,,,,,,,,,,,,,,,,,,,,-42.22222222,52,20,75,42.77777778,9.222222222,3.688888889,-41.68888889,0.203703736,-0.293518599,1,0,0,0.1664,submitButton,-0.179629608,-0.399074157,0,0,0,2,34,154,36,1,52,67174,2,180,2022-02-18_21h53.34.595,orientation adjustment 2,2021.2.3,Win32,60.83465142,,,,,,,
,,,,,,,,,,,,,,,,,,,,,,34.44444444,74,20,75,65.44444444,8.555555556,3.422222222,-19.42222222,-0.194444424,-0.37870373,1,0,0,1.4323,submitButton,-0.194444424,-0.37870373,0,0,0,2,35,155,58,1,74,67174,2,180,2022-02-18_21h53.34.595,orientation adjustment 2,2021.2.3,Win32,60.83465142,,,,,,,
,,,,,,,,,,,,,,,,,,,,,,-65,-49,20,75,-68,19,12.35,-151.35,0.222222255,-0.289814838,1,0,0,0.4332,submitButton,-0.169444423,-0.385185268,0,0,0,2,36,156,33,1,49,67174,2,180,2022-02-18_21h53.34.595,orientation adjustment 2,2021.2.3,Win32,60.83465142,,,,,,,
,,,,,,,,,,,,,,,,,,,,,,-53.88888889,44,20,75,38.11111111,5.888888889,2.355555556,-48.35555556,0.166666698,-0.313888913,1,0,0,0.9164,submitButton,-0.055555531,-0.352777803,0,0,0,2,37,157,28,1,44,67174,2,180,2022-02-18_21h53.34.595,orientation adjustment 2,2021.2.3,Win32,60.83465142,,,,,,,
,,,,,,,,,,,,,,,,,,,,,,71.66666667,51,20,75,215.6666667,15.33333333,9.966666667,-29.03333333,-0.197222202,-0.386111138,1,0,0,2.2668,submitButton,-0.125925847,-0.398148175,0,0,0,2,38,158,35,1,51,67174,2,180,2022-02-18_21h53.34.595,orientation adjustment 2,2021.2.3,Win32,60.83465142,,,,,,,
,,,,,,,,,,,,,,,,,,,,,,-23.88888889,-57,20,75,-56.88888889,0.111111111,0.044444444,-146.9555556,0.232407441,-0.310185266,1,0,0,0.1333,submitButton,-0.219444424,-0.404629713,0,0,0,2,39,159,41,1,57,67174,2,180,2022-02-18_21h53.34.595,orientation adjustment 2,2021.2.3,Win32,60.83465142,,,,,,,
,,,,,,,,,,,,,,,,,,,,,,50.55555556,65,20,75,62.55555556,2.444444444,0.977777778,-25.97777778,0.350000037,-0.306481506,1,0,0,0.3487,submitButton,-0.19537035,-0.400000027,0,0,0,2,40,160,49,1,65,67174,2,180,2022-02-18_21h53.34.595,orientation adjustment 2,2021.2.3,Win32,60.83465142,,,,,,,
,,,,,,,,,,,,,,,,,,,,,,-41.66666667,20,20,75,28.33333333,8.333333333,3.333333333,-66.66666667,0.199074106,-0.295370394,1,0,0,0.9007,submitButton,-0.301851834,-0.412037064,0,0,0,2,41,161,4,1,20,67174,2,180,2022-02-18_21h53.34.595,orientation adjustment 2,2021.2.3,Win32,60.83465142,,,,,,,
,,,,,,,,,,,,,,,,,,,,,,-35.55555556,55,20,75,56.44444444,1.444444444,0.577777778,-34.42222222,0.205555588,-0.29166669,1,0,0,0.4498,submitButton,-0.237037018,-0.423148176,0,0,0,2,42,162,39,1,55,67174,2,180,2022-02-18_21h53.34.595,orientation adjustment 2,2021.2.3,Win32,60.83465142,,,,,,,
,,,,,,,,,,,,,,,,,,,,,,20,-33,20,75,0,33,26.4,-96.6,0.189814847,-0.321296377,1,0,0,0.133,submitButton,-0.22499998,-0.424074158,0,0,0,2,43,163,17,1,33,67174,2,180,2022-02-18_21h53.34.595,orientation adjustment 2,2021.2.3,Win32,60.83465142,,,,,,,
,,,,,,,,,,,,,,,,,,,,,,-20,59,20,75,61,2,0.8,-30.2,-0.23888887,-0.42129638,1,0,0,0.8505,submitButton,0.301851887,-0.381481508,1,0,0,2,44,164,43,1,59,67174,2,180,2022-02-18_21h53.34.595,orientation adjustment 2,2021.2.3,Win32,60.83465142,pause_continueButton,,,,,,
,,,,,,,,,,,,,,,,,,,,,,46.11111111,30,20,75,76.11111111,46.11111111,36.88888889,-23.11111111,-0.236111092,-0.439814843,1,0,0,1.5661,submitButton,-0.053703622,-0.362963045,0,0,0,2,45,165,14,1,30,67174,2,180,2022-02-18_21h53.34.595,orientation adjustment 2,2021.2.3,Win32,60.83465142,,,,,,,
,,,,,,,,,,,,,,,,,,,,,,-40,-28,20,75,-31,3,1.2,-119.2,0.178703736,-0.29166669,1,0,0,0.6166,submitButton,-0.246296277,-0.42129638,0,0,0,2,46,166,12,1,28,67174,2,180,2022-02-18_21h53.34.595,orientation adjustment 2,2021.2.3,Win32,60.83465142,,,,,,,
,,,,,,,,,,,,,,,,,,,,,,-58.33333333,34,20,75,15.66666667,18.33333333,11.91666667,-67.91666667,-0.253703685,-0.418518602,1,0,0,1.1821,submitButton,-0.253703685,-0.418518602,0,0,0,2,47,167,18,1,34,67174,2,180,2022-02-18_21h53.34.595,orientation adjustment 2,2021.2.3,Win32,60.83465142,,,,,,,
,,,,,,,,,,,,,,,,,,,,,,-53.33333333,69,20,75,46.66666667,22.33333333,14.51666667,-35.51666667,-0.199074054,-0.36944447,1,0,0,0.9834,submitButton,-0.199074054,-0.395370397,0,0,0,2,48,168,53,1,69,67174,2,180,2022-02-18_21h53.34.595,orientation adjustment 2,2021.2.3,Win32,60.83465142,,,,,,,
,,,,,,,,,,,,,,,,,,,,,,55,-35,20,75,-23,12,4.8,-120.2,0.407407446,-0.280555579,1,0,0,0.0668,submitButton,-0.278703686,-0.41759262,0,0,0,2,49,169,19,1,35,67174,2,180,2022-02-18_21h53.34.595,orientation adjustment 2,2021.2.3,Win32,60.83465142,,,,,,,
,,,,,,,,,,,,,,,,,,,,,,65.55555556,-32,20,75,-26.44444444,5.555555556,2.222222222,-119.7777778,0.383333371,-0.297222246,1,0,0,0.0163,submitButton,-0.339814798,-0.412037064,0,0,0,2,50,170,16,1,32,67174,2,180,2022-02-18_21h53.34.595,orientation adjustment 2,2021.2.3,Win32,60.83465142,,,,,,,
,,,,,,,,,,,,,,,,,,,,,,-30,-24,20,75,-27,3,1.2,-115.2,0.218518552,-0.313888913,1,0,0,0.0504,submitButton,-0.213888869,-0.423148176,0,0,0,2,51,171,8,1,24,67174,2,180,2022-02-18_21h53.34.595,orientation adjustment 2,2021.2.3,Win32,60.83465142,,,,,,,
,,,,,,,,,,,,,,,,,,,,,,35.55555556,50,20,75,56.55555556,6.555555556,2.622222222,-37.37777778,0.442592632,-0.286111135,1,0,0,0.3999,submitButton,-0.192592572,-0.390740824,0,0,0,2,52,172,34,1,50,67174,2,180,2022-02-18_21h53.34.595,orientation adjustment 2,2021.2.3,Win32,60.83465142,,,,,,,
,,,,,,,,,,,,,,,,,,,,,,-30.55555556,40,20,75,43.44444444,3.444444444,1.377777778,-48.62222222,-0.337962947,-0.429629714,1,0,0,0.7501,submitButton,-0.245370351,-0.289814838,0,0,0,2,53,173,24,1,40,67174,2,180,2022-02-18_21h53.34.595,orientation adjustment 2,2021.2.3,Win32,60.83465142,,,,,,,
,,,,,,,,,,,,,,,,,,,,,,-41.11111111,18,20,75,29.88888889,11.88888889,4.755555556,-67.24444444,0.180555587,-0.294444468,1,0,0,1.0334,submitButton,-0.224074054,-0.367592618,0,0,0,2,54,174,2,1,18,67174,2,180,2022-02-18_21h53.34.595,orientation adjustment 2,2021.2.3,Win32,60.83465142,,,,,,,
,,,,,,,,,,,,,,,,,,,,,,-33.33333333,45,20,75,38.66666667,6.333333333,2.533333333,-47.53333333,0.21203707,-0.309259283,1,0,0,0.1168,submitButton,-0.165740719,-0.401851935,0,0,0,2,55,175,29,1,45,67174,2,180,2022-02-18_21h53.34.595,orientation adjustment 2,2021.2.3,Win32,60.83465142,,,,,,,
,,,,,,,,,,,,,,,,,,,,,,-42.22222222,53,20,75,37.77777778,15.22222222,9.894444444,-46.89444444,-0.160185163,-0.380555582,1,0,0,1.5666,submitButton,-0.160185163,-0.380555582,0,0,0,2,56,176,37,1,53,67174,2,180,2022-02-18_21h53.34.595,orientation adjustment 2,2021.2.3,Win32,60.83465142,,,,,,,
,,,,,,,,,,,,,,,,,,,,,,-53.33333333,-48,20,75,-218.3333333,9.666666667,3.866666667,-141.8666667,-0.159259181,-0.387037063,1,0,0,2.7987,submitButton,-0.159259181,-0.387037063,0,0,0,2,57,177,32,1,48,67174,2,180,2022-02-18_21h53.34.595,orientation adjustment 2,2021.2.3,Win32,60.83465142,,,,,,,
,,,,,,,,,,,,,,,,,,,,,,65,-23,20,75,-33,10,4,-117,0.413888928,-0.306481506,1,0,0,0.05,submitButton,-0.227777758,-0.42222225,0,0,0,2,58,178,7,1,23,67174,2,180,2022-02-18_21h53.34.595,orientation adjustment 2,2021.2.3,Win32,60.83465142,,,,,,,
,,,,,,,,,,,,,,,,,,,,,,-43.33333333,73,20,75,62.66666667,10.33333333,4.133333333,-21.13333333,-0.258333315,-0.400000027,1,0,0,1.6667,submitButton,-0.258333315,-0.400000027,0,0,0,2,59,179,57,1,73,67174,2,180,2022-02-18_21h53.34.595,orientation adjustment 2,2021.2.3,Win32,60.83465142,,,,,,,
,,,,,,,,,,,,,,,,,,,,,,,,,,,,,,,,,,,,,,,,,,,,,,,,67174,2,180,2022-02-18_21h53.34.595,orientation adjustment 2,2021.2.3,Win32,60.83465142,,0.308333369,-0.409259286,1,0,0,EndButtonTxt
