consentMouse1.x,consentMouse1.y,consentMouse1.leftButton,consentMouse1.midButton,consentMouse1.rightButton,consentMouse1.clicked_name,consent_Mouse.x,consent_Mouse.y,consent_Mouse.leftButton,consent_Mouse.midButton,consent_Mouse.rightButton,consent_Mouse.clicked_name,startMouse.x,startMouse.y,startMouse.leftButton,startMouse.midButton,startMouse.rightButton,startMouse_2.x,startMouse_2.y,startMouse_2.leftButton,startMouse_2.midButton,startMouse_2.rightButton,start_distance,fixedOri,minimalDistance,maxOri,this_ori,accuracy,presented_accuracy,presented_this_ori,submitMouse.x,submitMouse.y,submitMouse.leftButton,submitMouse.midButton,submitMouse.rightButton,submitMouse.time,submitMouse.clicked_name,pauseMouse.x,pauseMouse.y,pauseMouse.leftButton,pauseMouse.midButton,pauseMouse.rightButton,trials.thisRepN,trials.thisTrialN,trials.thisN,trials.thisIndex,trials.ran,startOri,participant,condition,nTrials,date,expName,psychopyVersion,OS,frameRate,pauseMouse.clicked_name,EndButtonMouse.x,EndButtonMouse.y,EndButtonMouse.leftButton,EndButtonMouse.midButton,EndButtonMouse.rightButton,EndButtonMouse.clicked_name
0.304223633,-0.397394952,1,0,0,consent_button1,0.373762207,-0.407581584,1,0,0,consent_button,0.254767117,-0.277669881,1,0,0,0.194275377,-0.363697238,1,0,0,-22.22222222,-18,20,75,-40.22222222,22.22222222,14.44444444,-122.4444444,-0.044605713,-0.420048489,1,0,0,5.0314,submitButton,-0.427699348,-0.421695421,0,0,0,0,0,0,2,1,18,67519,2,180,2022-02-10_13h46.55.120,orientation adjustment 2,2021.2.3,MacIntel,60.0024001,,,,,,,
,,,,,,,,,,,,,,,,,,,,,,-56.66666667,-72,20,75,-128.6666667,56.66666667,45.33333333,-207.3333333,-0.427699348,-0.421695421,1,0,0,4.8618,submitButton,-0.427699348,-0.421695421,0,0,0,0,1,1,56,1,72,67519,2,180,2022-02-10_13h46.55.120,orientation adjustment 2,2021.2.3,MacIntel,60.0024001,,,,,,,
,,,,,,,,,,,,,,,,,,,,,,63.33333333,34,20,75,97.33333333,63.33333333,50.66666667,-5.333333333,-0.427699348,-0.421695421,1,0,0,3.4495,submitButton,-0.427699348,-0.419811876,0,0,0,0,2,2,18,1,34,67519,2,180,2022-02-10_13h46.55.120,orientation adjustment 2,2021.2.3,MacIntel,60.0024001,,,,,,,
,,,,,,,,,,,,,,,,,,,,,,-67.22222222,-30,20,75,-97.22222222,67.22222222,53.77777778,-173.7777778,-0.422168715,-0.41015096,1,0,0,1.8771,submitButton,-0.422168715,-0.41015096,0,0,0,0,3,3,14,1,30,67519,2,180,2022-02-10_13h46.55.120,orientation adjustment 2,2021.2.3,MacIntel,60.0024001,,,,,,,
,,,,,,,,,,,,,,,,,,,,,,69.44444444,-17,20,75,52.44444444,69.44444444,55.55555556,-51.44444444,-0.427133552,-0.396301134,1,0,0,1.1922,submitButton,-0.427133552,-0.396301134,0,0,0,0,4,4,1,1,17,67519,2,180,2022-02-10_13h46.55.120,orientation adjustment 2,2021.2.3,MacIntel,60.0024001,,,,,,,
,,,,,,,,,,,,,,,,,,,,,,-32.77777778,-46,20,75,-78.77777778,32.77777778,26.22222222,-162.2222222,-0.427133552,-0.396301134,1,0,0,4.9488,submitButton,-0.427133552,-0.396301134,0,0,0,0,5,5,30,1,46,67519,2,180,2022-02-10_13h46.55.120,orientation adjustment 2,2021.2.3,MacIntel,60.0024001,,,,,,,
,,,,,,,,,,,,,,,,,,,,,,-54.44444444,57,20,75,2.555555556,54.44444444,43.55555556,-76.55555556,-0.427133552,-0.396301134,1,0,0,0.9329,submitButton,-0.427133552,-0.396301134,0,0,0,0,6,6,41,1,57,67519,2,180,2022-02-10_13h46.55.120,orientation adjustment 2,2021.2.3,MacIntel,60.0024001,,,,,,,
,,,,,,,,,,,,,,,,,,,,,,-52.22222222,23,20,75,-29.22222222,52.22222222,41.77777778,-108.7777778,-0.427133552,-0.396301134,1,0,0,2.9779,submitButton,-0.427133552,-0.396301134,0,0,0,0,7,7,7,1,23,67519,2,180,2022-02-10_13h46.55.120,orientation adjustment 2,2021.2.3,MacIntel,60.0024001,,,,,,,
,,,,,,,,,,,,,,,,,,,,,,39.44444444,42,20,75,81.44444444,39.44444444,31.55555556,-16.44444444,-0.427133552,-0.396301134,1,0,0,1.4344,submitButton,-0.427133552,-0.396301134,0,0,0,0,8,8,26,1,42,67519,2,180,2022-02-10_13h46.55.120,orientation adjustment 2,2021.2.3,MacIntel,60.0024001,,,,,,,
,,,,,,,,,,,,,,,,,,,,,,38.33333333,75,20,75,113.3333333,38.33333333,30.66666667,15.66666667,-0.427133552,-0.396301134,1,0,0,1.5539,submitButton,-0.427133552,-0.396301134,0,0,0,0,9,9,59,1,75,67519,2,180,2022-02-10_13h46.55.120,orientation adjustment 2,2021.2.3,MacIntel,60.0024001,,,,,,,
,,,,,,,,,,,,,,,,,,,,,,-69.44444444,59,20,75,-10.44444444,69.44444444,55.55555556,-86.55555556,-0.427133552,-0.396301134,1,0,0,0.5168,submitButton,-0.427133552,-0.396301134,0,0,0,0,10,10,43,1,59,67519,2,180,2022-02-10_13h46.55.120,orientation adjustment 2,2021.2.3,MacIntel,60.0024001,,,,,,,
,,,,,,,,,,,,,,,,,,,,,,-20.55555556,45,20,75,24.44444444,20.55555556,13.36111111,-58.36111111,-0.427133552,-0.396301134,1,0,0,0.7171,submitButton,-0.427133552,-0.396301134,0,0,0,0,11,11,29,1,45,67519,2,180,2022-02-10_13h46.55.120,orientation adjustment 2,2021.2.3,MacIntel,60.0024001,,,,,,,
,,,,,,,,,,,,,,,,,,,,,,49.44444444,33,20,75,82.44444444,49.44444444,39.55555556,-17.44444444,-0.427133552,-0.396301134,1,0,0,2.7017,submitButton,-0.427133552,-0.396301134,0,0,0,0,12,12,17,1,33,67519,2,180,2022-02-10_13h46.55.120,orientation adjustment 2,2021.2.3,MacIntel,60.0024001,,,,,,,
,,,,,,,,,,,,,,,,,,,,,,-37.77777778,-19,20,75,-56.77777778,37.77777778,30.22222222,-139.2222222,-0.438947856,-0.396891819,1,0,0,1.4797,submitButton,-0.438947856,-0.396891819,0,0,0,0,13,13,3,1,19,67519,2,180,2022-02-10_13h46.55.120,orientation adjustment 2,2021.2.3,MacIntel,60.0024001,,,,,,,
,,,,,,,,,,,,,,,,,,,,,,61.66666667,29,20,75,90.66666667,61.66666667,49.33333333,-11.66666667,-0.438947856,-0.396891819,1,0,0,2.4249,submitButton,0.288387587,-0.420058729,1,0,0,0,14,14,13,1,29,67519,2,180,2022-02-10_13h46.55.120,orientation adjustment 2,2021.2.3,MacIntel,60.0024001,pause_continueButton,,,,,,
,,,,,,,,,,,,,,,,,,,,,,-46.11111111,-36,20,75,-82.11111111,46.11111111,36.88888889,-162.8888889,0.288387587,-0.420058729,1,0,0,2.3257,submitButton,-0.368940837,-0.42659139,0,0,0,0,15,15,20,1,36,67519,2,180,2022-02-10_13h46.55.120,orientation adjustment 2,2021.2.3,MacIntel,60.0024001,,,,,,,
,,,,,,,,,,,,,,,,,,,,,,68.33333333,22,20,75,90.33333333,68.33333333,54.66666667,-13.33333333,-0.368940837,-0.42659139,1,0,0,2.4121,submitButton,-0.368940837,-0.42710456,0,0,0,0,16,16,6,1,22,67519,2,180,2022-02-10_13h46.55.120,orientation adjustment 2,2021.2.3,MacIntel,60.0024001,,,,,,,
,,,,,,,,,,,,,,,,,,,,,,61.11111111,-43,20,75,18.11111111,61.11111111,48.88888889,-84.11111111,-0.368940837,-0.427355279,1,0,0,1.4251,submitButton,-0.368940837,-0.427355279,0,0,0,0,17,17,27,1,43,67519,2,180,2022-02-10_13h46.55.120,orientation adjustment 2,2021.2.3,MacIntel,60.0024001,,,,,,,
,,,,,,,,,,,,,,,,,,,,,,-60.55555556,-60,20,75,-120.5555556,60.55555556,48.44444444,-198.4444444,-0.368940837,-0.427355279,1,0,0,1.5065,submitButton,-0.368940837,-0.427355279,0,0,0,0,18,18,44,1,60,67519,2,180,2022-02-10_13h46.55.120,orientation adjustment 2,2021.2.3,MacIntel,60.0024001,,,,,,,
,,,,,,,,,,,,,,,,,,,,,,-70.55555556,25,20,75,-45.55555556,70.55555556,56.44444444,-121.4444444,-0.368940837,-0.427355279,1,0,0,1.918,submitButton,-0.368940837,-0.427355279,0,0,0,0,19,19,9,1,25,67519,2,180,2022-02-10_13h46.55.120,orientation adjustment 2,2021.2.3,MacIntel,60.0024001,,,,,,,
,,,,,,,,,,,,,,,,,,,,,,63.33333333,-55,20,75,8.333333333,63.33333333,50.66666667,-94.33333333,-0.368940837,-0.427355279,1,0,0,2.5495,submitButton,-0.368940837,-0.427355279,0,0,0,0,20,20,39,1,55,67519,2,180,2022-02-10_13h46.55.120,orientation adjustment 2,2021.2.3,MacIntel,60.0024001,,,,,,,
,,,,,,,,,,,,,,,,,,,,,,-36.66666667,66,20,75,29.33333333,36.66666667,29.33333333,-53.33333333,-0.368940837,-0.427355279,1,0,0,1.4633,submitButton,-0.368940837,-0.427355279,0,0,0,0,21,21,50,1,66,67519,2,180,2022-02-10_13h46.55.120,orientation adjustment 2,2021.2.3,MacIntel,60.0024001,,,,,,,
,,,,,,,,,,,,,,,,,,,,,,23.33333333,48,20,75,71.33333333,23.33333333,15.16666667,-26.83333333,-0.368940837,-0.430271471,1,0,0,0.9127,submitButton,-0.389665493,-0.418620673,0,0,0,0,22,22,32,1,48,67519,2,180,2022-02-10_13h46.55.120,orientation adjustment 2,2021.2.3,MacIntel,60.0024001,,,,,,,
,,,,,,,,,,,,,,,,,,,,,,-43.33333333,58,20,75,14.66666667,43.33333333,34.66666667,-66.66666667,-0.389147305,-0.418620673,1,0,0,0.8175,submitButton,-0.389147305,-0.418620673,0,0,0,0,23,23,42,1,58,67519,2,180,2022-02-10_13h46.55.120,orientation adjustment 2,2021.2.3,MacIntel,60.0024001,,,,,,,
,,,,,,,,,,,,,,,,,,,,,,-61.66666667,-16,20,75,-77.66666667,61.66666667,49.33333333,-155.3333333,-0.389147305,-0.418620673,1,0,0,1.4552,submitButton,-0.389147305,-0.418620673,0,0,0,0,24,24,0,1,16,67519,2,180,2022-02-10_13h46.55.120,orientation adjustment 2,2021.2.3,MacIntel,60.0024001,,,,,,,
,,,,,,,,,,,,,,,,,,,,,,60,-64,20,75,-4,60,48,-106,-0.389147305,-0.418620673,1,0,0,1.431,submitButton,-0.389147305,-0.418620673,0,0,0,0,25,25,48,1,64,67519,2,180,2022-02-10_13h46.55.120,orientation adjustment 2,2021.2.3,MacIntel,60.0024001,,,,,,,
,,,,,,,,,,,,,,,,,,,,,,-45.55555556,-31,20,75,-76.55555556,45.55555556,36.44444444,-157.4444444,-0.389147305,-0.418620673,1,0,0,0.8587,submitButton,-0.389147305,-0.418620673,0,0,0,0,26,26,15,1,31,67519,2,180,2022-02-10_13h46.55.120,orientation adjustment 2,2021.2.3,MacIntel,60.0024001,,,,,,,
,,,,,,,,,,,,,,,,,,,,,,58.88888889,38,20,75,96.88888889,58.88888889,47.11111111,-4.888888889,-0.389147305,-0.418871392,1,0,0,1.5048,submitButton,-0.389398193,-0.418871392,0,0,0,0,27,27,22,1,38,67519,2,180,2022-02-10_13h46.55.120,orientation adjustment 2,2021.2.3,MacIntel,60.0024001,,,,,,,
,,,,,,,,,,,,,,,,,,,,,,66.66666667,-74,20,75,-7.333333333,66.66666667,53.33333333,-110.6666667,-0.389398193,-0.418871392,1,0,0,3.9088,submitButton,-0.389398193,-0.418871392,0,0,0,0,28,28,58,1,74,67519,2,180,2022-02-10_13h46.55.120,orientation adjustment 2,2021.2.3,MacIntel,60.0024001,,,,,,,
,,,,,,,,,,,,,,,,,,,,,,-44.44444444,40,20,75,-4.444444444,44.44444444,35.55555556,-85.55555556,-0.372829556,-0.471612481,1,0,0,0.9088,submitButton,0.341410048,-0.418086005,1,0,0,0,29,29,24,1,40,67519,2,180,2022-02-10_13h46.55.120,orientation adjustment 2,2021.2.3,MacIntel,60.0024001,pause_continueButton,,,,,,
,,,,,,,,,,,,,,,,,,,,,,-68.88888889,21,20,75,-47.88888889,68.88888889,55.11111111,-124.1111111,-0.34599979,-0.398765666,1,0,0,1.3485,submitButton,-0.365628594,-0.372770047,0,0,0,0,30,30,5,1,21,67519,2,180,2022-02-10_13h46.55.120,orientation adjustment 2,2021.2.3,MacIntel,60.0024001,,,,,,,
,,,,,,,,,,,,,,,,,,,,,,41.66666667,-44,20,75,-2.333333333,41.66666667,33.33333333,-100.6666667,-0.368306139,-0.372897135,1,0,0,0.9659,submitButton,-0.360847711,-0.377730306,0,0,0,0,31,31,28,1,44,67519,2,180,2022-02-10_13h46.55.120,orientation adjustment 2,2021.2.3,MacIntel,60.0024001,,,,,,,
,,,,,,,,,,,,,,,,,,,,,,-62.77777778,-53,20,75,-115.7777778,62.77777778,50.22222222,-193.2222222,-0.361662326,-0.391972114,1,0,0,1.6677,submitButton,-0.361662326,-0.391972114,0,0,0,0,32,32,37,1,53,67519,2,180,2022-02-10_13h46.55.120,orientation adjustment 2,2021.2.3,MacIntel,60.0024001,,,,,,,
,,,,,,,,,,,,,,,,,,,,,,-68.33333333,70,20,75,1.666666667,68.33333333,54.66666667,-74.66666667,-0.361662326,-0.391972114,1,0,0,2.2274,submitButton,-0.361662326,-0.393068102,0,0,0,0,33,33,54,1,70,67519,2,180,2022-02-10_13h46.55.120,orientation adjustment 2,2021.2.3,MacIntel,60.0024001,,,,,,,
,,,,,,,,,,,,,,,,,,,,,,68.88888889,-61,20,75,7.888888889,68.88888889,55.11111111,-95.88888889,-0.362757501,-0.394220785,1,0,0,2.5298,submitButton,-0.362757501,-0.394220785,0,0,0,0,34,34,45,1,61,67519,2,180,2022-02-10_13h46.55.120,orientation adjustment 2,2021.2.3,MacIntel,60.0024001,,,,,,,
,,,,,,,,,,,,,,,,,,,,,,-68.88888889,-49,20,75,-117.8888889,68.88888889,55.11111111,-194.1111111,-0.362506714,-0.394218207,1,0,0,1.8094,submitButton,-0.362506714,-0.394218207,0,0,0,0,35,35,33,1,49,67519,2,180,2022-02-10_13h46.55.120,orientation adjustment 2,2021.2.3,MacIntel,60.0024001,,,,,,,
,,,,,,,,,,,,,,,,,,,,,,50.55555556,-62,20,75,-11.44444444,50.55555556,40.44444444,-111.5555556,-0.362506714,-0.394218207,1,0,0,1.6665,submitButton,-0.362506714,-0.395030314,0,0,0,0,36,36,46,1,62,67519,2,180,2022-02-10_13h46.55.120,orientation adjustment 2,2021.2.3,MacIntel,60.0024001,,,,,,,
,,,,,,,,,,,,,,,,,,,,,,45.55555556,-39,20,75,6.555555556,45.55555556,36.44444444,-92.55555556,-0.362506714,-0.395281033,1,0,0,3.1345,submitButton,-0.362299601,-0.394278632,0,0,0,0,37,37,23,1,39,67519,2,180,2022-02-10_13h46.55.120,orientation adjustment 2,2021.2.3,MacIntel,60.0024001,,,,,,,
,,,,,,,,,,,,,,,,,,,,,,25.55555556,-51,20,75,-25.44444444,25.55555556,16.61111111,-124.3888889,-0.362299601,-0.394278632,1,0,0,6.1678,submitButton,-0.362299601,-0.394278632,0,0,0,0,38,38,35,1,51,67519,2,180,2022-02-10_13h46.55.120,orientation adjustment 2,2021.2.3,MacIntel,60.0024001,,,,,,,
,,,,,,,,,,,,,,,,,,,,,,38.33333333,20,20,75,58.33333333,38.33333333,30.66666667,-39.33333333,-0.362299601,-0.394278632,1,0,0,1.2032,submitButton,-0.362299601,-0.394529351,0,0,0,0,39,39,4,1,20,67519,2,180,2022-02-10_13h46.55.120,orientation adjustment 2,2021.2.3,MacIntel,60.0024001,,,,,,,
,,,,,,,,,,,,,,,,,,,,,,73.88888889,-56,20,75,17.88888889,73.88888889,59.11111111,-86.88888889,-0.362299601,-0.394529351,1,0,0,1.5832,submitButton,-0.362299601,-0.394529351,0,0,0,0,40,40,40,1,56,67519,2,180,2022-02-10_13h46.55.120,orientation adjustment 2,2021.2.3,MacIntel,60.0024001,,,,,,,
,,,,,,,,,,,,,,,,,,,,,,42.77777778,-63,20,75,-20.22222222,42.77777778,34.22222222,-118.7777778,-0.362299601,-0.395056966,1,0,0,0.9665,submitButton,-0.362299601,-0.395880534,0,0,0,0,41,41,47,1,63,67519,2,180,2022-02-10_13h46.55.120,orientation adjustment 2,2021.2.3,MacIntel,60.0024001,,,,,,,
,,,,,,,,,,,,,,,,,,,,,,-29.44444444,-37,20,75,-66.44444444,29.44444444,19.13888889,-146.1388889,-0.362299601,-0.396703559,1,0,0,2.2301,submitButton,-0.362299601,-0.397220798,0,0,0,0,42,42,21,1,37,67519,2,180,2022-02-10_13h46.55.120,orientation adjustment 2,2021.2.3,MacIntel,60.0024001,,,,,,,
,,,,,,,,,,,,,,,,,,,,,,21.11111111,-47,20,75,-25.88888889,21.11111111,13.72222222,-123.2777778,-0.362299601,-0.397220798,1,0,0,0.6597,submitButton,-0.362299601,-0.397220798,0,0,0,0,43,43,31,1,47,67519,2,180,2022-02-10_13h46.55.120,orientation adjustment 2,2021.2.3,MacIntel,60.0024001,,,,,,,
,,,,,,,,,,,,,,,,,,,,,,-46.66666667,-73,20,75,-119.6666667,46.66666667,37.33333333,-200.3333333,-0.361442905,-0.395605537,1,0,0,1.4704,submitButton,0.35345893,-0.417933282,1,0,0,0,44,44,57,1,73,67519,2,180,2022-02-10_13h46.55.120,orientation adjustment 2,2021.2.3,MacIntel,60.0024001,pause_continueButton,,,,,,
,,,,,,,,,,,,,,,,,,,,,,34.44444444,24,20,75,58.44444444,34.44444444,27.55555556,-38.44444444,-0.2318298,-0.417456055,1,0,0,1.5497,submitButton,-0.2318298,-0.417456055,0,0,0,0,45,45,8,1,24,67519,2,180,2022-02-10_13h46.55.120,orientation adjustment 2,2021.2.3,MacIntel,60.0024001,,,,,,,
,,,,,,,,,,,,,,,,,,,,,,-21.11111111,28,20,75,6.888888889,21.11111111,13.72222222,-75.72222222,-0.2318298,-0.417456055,1,0,0,0.484,submitButton,-0.2318298,-0.417456055,0,0,0,0,46,46,12,1,28,67519,2,180,2022-02-10_13h46.55.120,orientation adjustment 2,2021.2.3,MacIntel,60.0024001,,,,,,,
,,,,,,,,,,,,,,,,,,,,,,24.44444444,-32,20,75,-7.555555556,24.44444444,15.88888889,-106.1111111,-0.2318298,-0.417456055,1,0,0,0.483,submitButton,-0.2318298,-0.417456055,0,0,0,0,47,47,16,1,32,67519,2,180,2022-02-10_13h46.55.120,orientation adjustment 2,2021.2.3,MacIntel,60.0024001,,,,,,,
,,,,,,,,,,,,,,,,,,,,,,-61.11111111,-35,20,75,-96.11111111,61.11111111,48.88888889,-173.8888889,-0.2318298,-0.417456055,1,0,0,1.5023,submitButton,-0.2318298,-0.417456055,0,0,0,0,48,48,19,1,35,67519,2,180,2022-02-10_13h46.55.120,orientation adjustment 2,2021.2.3,MacIntel,60.0024001,,,,,,,
,,,,,,,,,,,,,,,,,,,,,,-47.77777778,-68,20,75,-115.7777778,47.77777778,38.22222222,-196.2222222,-0.2318298,-0.417966715,1,0,0,2.0609,submitButton,-0.2318298,-0.417966715,0,0,0,0,49,49,52,1,68,67519,2,180,2022-02-10_13h46.55.120,orientation adjustment 2,2021.2.3,MacIntel,60.0024001,,,,,,,
,,,,,,,,,,,,,,,,,,,,,,25.55555556,-50,20,75,-24.44444444,25.55555556,16.61111111,-123.3888889,-0.2318298,-0.417966715,1,0,0,1.5672,submitButton,-0.2318298,-0.417966715,0,0,0,0,50,50,34,1,50,67519,2,180,2022-02-10_13h46.55.120,orientation adjustment 2,2021.2.3,MacIntel,60.0024001,,,,,,,
,,,,,,,,,,,,,,,,,,,,,,67.77777778,-71,20,75,-3.222222222,67.77777778,54.22222222,-106.7777778,-0.2318298,-0.418217434,1,0,0,1.8821,submitButton,-0.232080858,-0.417431505,0,0,0,0,51,51,55,1,71,67519,2,180,2022-02-10_13h46.55.120,orientation adjustment 2,2021.2.3,MacIntel,60.0024001,,,,,,,
,,,,,,,,,,,,,,,,,,,,,,68.33333333,41,20,75,109.3333333,68.33333333,54.66666667,5.666666667,-0.234547729,-0.426398722,1,0,0,2.6252,submitButton,-0.234547729,-0.426398722,0,0,0,0,52,52,25,1,41,67519,2,180,2022-02-10_13h46.55.120,orientation adjustment 2,2021.2.3,MacIntel,60.0024001,,,,,,,
,,,,,,,,,,,,,,,,,,,,,,-62.77777778,-54,20,75,-116.7777778,62.77777778,50.22222222,-194.2222222,-0.234547729,-0.426398722,1,0,0,1.19,submitButton,-0.234547729,-0.426923557,0,0,0,0,53,53,38,1,54,67519,2,180,2022-02-10_13h46.55.120,orientation adjustment 2,2021.2.3,MacIntel,60.0024001,,,,,,,
,,,,,,,,,,,,,,,,,,,,,,-60.55555556,-67,20,75,-127.5555556,60.55555556,48.44444444,-205.4444444,-0.234547729,-0.426923557,1,0,0,2.6922,submitButton,-0.234798448,-0.426923557,0,0,0,0,54,54,51,1,67,67519,2,180,2022-02-10_13h46.55.120,orientation adjustment 2,2021.2.3,MacIntel,60.0024001,,,,,,,
,,,,,,,,,,,,,,,,,,,,,,-68.88888889,52,20,75,-16.88888889,68.88888889,55.11111111,-93.11111111,-0.235072835,-0.42992235,1,0,0,1.7669,submitButton,-0.228805271,-0.407833862,0,0,0,0,55,55,36,1,52,67519,2,180,2022-02-10_13h46.55.120,orientation adjustment 2,2021.2.3,MacIntel,60.0024001,,,,,,,
,,,,,,,,,,,,,,,,,,,,,,-70.55555556,-26,20,75,-96.55555556,70.55555556,56.44444444,-172.4444444,-0.227720812,-0.407358805,1,0,0,3.3497,submitButton,-0.22797153,-0.407358805,0,0,0,0,56,56,10,1,26,67519,2,180,2022-02-10_13h46.55.120,orientation adjustment 2,2021.2.3,MacIntel,60.0024001,,,,,,,
,,,,,,,,,,,,,,,,,,,,,,40,27,20,75,67,40,32,-31,-0.22797153,-0.407358805,1,0,0,1.3667,submitButton,-0.228779772,-0.408156264,0,0,0,0,57,57,11,1,27,67519,2,180,2022-02-10_13h46.55.120,orientation adjustment 2,2021.2.3,MacIntel,60.0024001,,,,,,,
,,,,,,,,,,,,,,,,,,,,,,35,65,20,75,100,35,28,3,-0.228779772,-0.407905341,1,0,0,1.1162,submitButton,-0.228262261,-0.408673706,0,0,0,0,58,58,49,1,65,67519,2,180,2022-02-10_13h46.55.120,orientation adjustment 2,2021.2.3,MacIntel,60.0024001,,,,,,,
,,,,,,,,,,,,,,,,,,,,,,-40,-69,20,75,-109,40,32,-191,-0.227166477,-0.407816705,1,0,0,1.2857,submitButton,0.393912896,-0.410485094,1,0,0,0,59,59,53,1,69,67519,2,180,2022-02-10_13h46.55.120,orientation adjustment 2,2021.2.3,MacIntel,60.0024001,pause_continueButton,,,,,,
,,,,,,,,,,,,,,,,,,,,,,-38.88888889,36,20,75,-2.888888889,38.88888889,31.11111111,-85.11111111,-0.18933275,-0.395858561,1,0,0,1.2339,submitButton,-0.171100057,-0.394201185,0,0,0,1,0,60,20,1,36,67519,2,180,2022-02-10_13h46.55.120,orientation adjustment 2,2021.2.3,MacIntel,60.0024001,,,,,,,
,,,,,,,,,,,,,,,,,,,,,,-23.88888889,-55,20,75,-78.88888889,23.88888889,15.52777778,-160.5277778,-0.150015191,-0.380765584,1,0,0,1.2494,submitButton,-0.150015191,-0.381276313,0,0,0,1,1,61,39,1,55,67519,2,180,2022-02-10_13h46.55.120,orientation adjustment 2,2021.2.3,MacIntel,60.0024001,,,,,,,
,,,,,,,,,,,,,,,,,,,,,,-72.22222222,-37,20,75,-109.2222222,72.22222222,57.77777778,-184.7777778,-0.150015191,-0.381276313,1,0,0,2.6527,submitButton,-0.150015191,-0.381276313,0,0,0,1,2,62,21,1,37,67519,2,180,2022-02-10_13h46.55.120,orientation adjustment 2,2021.2.3,MacIntel,60.0024001,,,,,,,
,,,,,,,,,,,,,,,,,,,,,,-65,50,20,75,-15,65,52,-92,-0.150015191,-0.381785414,1,0,0,2.5832,submitButton,-0.150015191,-0.381785414,0,0,0,1,3,63,34,1,50,67519,2,180,2022-02-10_13h46.55.120,orientation adjustment 2,2021.2.3,MacIntel,60.0024001,,,,,,,
,,,,,,,,,,,,,,,,,,,,,,33.33333333,-71,20,75,-37.66666667,33.33333333,26.66666667,-134.3333333,-0.150015191,-0.382036133,1,0,0,1.1501,submitButton,-0.150015191,-0.381533339,0,0,0,1,4,64,55,1,71,67519,2,180,2022-02-10_13h46.55.120,orientation adjustment 2,2021.2.3,MacIntel,60.0024001,,,,,,,
,,,,,,,,,,,,,,,,,,,,,,30,-40,20,75,-10,30,24,-106,-0.150827637,-0.383457981,1,0,0,0.8333,submitButton,-0.150827637,-0.383457981,0,0,0,1,5,65,24,1,40,67519,2,180,2022-02-10_13h46.55.120,orientation adjustment 2,2021.2.3,MacIntel,60.0024001,,,,,,,
,,,,,,,,,,,,,,,,,,,,,,-39.44444444,72,20,75,32.55555556,39.44444444,31.55555556,-49.55555556,-0.150827637,-0.3837087,1,0,0,1.433,submitButton,-0.151352064,-0.405814073,0,0,0,1,6,66,56,1,72,67519,2,180,2022-02-10_13h46.55.120,orientation adjustment 2,2021.2.3,MacIntel,60.0024001,,,,,,,
,,,,,,,,,,,,,,,,,,,,,,-56.11111111,-74,20,75,-130.1111111,56.11111111,44.88888889,-208.8888889,-0.151352064,-0.405814073,1,0,0,1.7089,submitButton,-0.151352064,-0.405814073,0,0,0,1,7,67,58,1,74,67519,2,180,2022-02-10_13h46.55.120,orientation adjustment 2,2021.2.3,MacIntel,60.0024001,,,,,,,
,,,,,,,,,,,,,,,,,,,,,,-54.44444444,69,20,75,14.55555556,54.44444444,43.55555556,-64.55555556,-0.151904772,-0.407604777,1,0,0,1.034,submitButton,-0.151904772,-0.407604777,0,0,0,1,8,68,53,1,69,67519,2,180,2022-02-10_13h46.55.120,orientation adjustment 2,2021.2.3,MacIntel,60.0024001,,,,,,,
,,,,,,,,,,,,,,,,,,,,,,-31.11111111,-45,20,75,-76.11111111,31.11111111,24.88888889,-159.8888889,-0.152179023,-0.408397692,1,0,0,1.0669,submitButton,-0.152179023,-0.408397692,0,0,0,1,9,69,29,1,45,67519,2,180,2022-02-10_13h46.55.120,orientation adjustment 2,2021.2.3,MacIntel,60.0024001,,,,,,,
,,,,,,,,,,,,,,,,,,,,,,74.44444444,29,20,75,103.4444444,74.44444444,59.55555556,-1.444444444,-0.151329888,-0.404962836,1,0,0,1.5839,submitButton,-0.151329888,-0.405491333,0,0,0,1,10,70,13,1,29,67519,2,180,2022-02-10_13h46.55.120,orientation adjustment 2,2021.2.3,MacIntel,60.0024001,,,,,,,
,,,,,,,,,,,,,,,,,,,,,,25,-21,20,75,4,25,16.25,-94.75,-0.149922892,-0.406315511,1,0,0,2.6738,submitButton,-0.149922892,-0.406315511,0,0,0,1,11,71,5,1,21,67519,2,180,2022-02-10_13h46.55.120,orientation adjustment 2,2021.2.3,MacIntel,60.0024001,,,,,,,
,,,,,,,,,,,,,,,,,,,,,,23.33333333,-54,20,75,-30.66666667,23.33333333,15.16666667,-128.8333333,-0.17748447,-0.471404351,1,0,0,1.8482,submitButton,-0.203858982,-0.416864421,0,0,0,1,12,72,38,1,54,67519,2,180,2022-02-10_13h46.55.120,orientation adjustment 2,2021.2.3,MacIntel,60.0024001,,,,,,,
,,,,,,,,,,,,,,,,,,,,,,-32.22222222,-60,20,75,-92.22222222,32.22222222,25.77777778,-175.7777778,-0.207780762,-0.422068821,1,0,0,0.6168,submitButton,-0.207780762,-0.422068821,0,0,0,1,13,73,44,1,60,67519,2,180,2022-02-10_13h46.55.120,orientation adjustment 2,2021.2.3,MacIntel,60.0024001,,,,,,,
,,,,,,,,,,,,,,,,,,,,,,-54.44444444,59,20,75,4.555555556,54.44444444,43.55555556,-74.55555556,-0.207780762,-0.422068821,1,0,0,1.7338,submitButton,0.316884427,-0.415056695,1,0,0,1,14,74,43,1,59,67519,2,180,2022-02-10_13h46.55.120,orientation adjustment 2,2021.2.3,MacIntel,60.0024001,pause_continueButton,,,,,,
,,,,,,,,,,,,,,,,,,,,,,42.22222222,70,20,75,112.2222222,42.22222222,33.77777778,13.77777778,-0.404079658,-0.400522936,1,0,0,1.2332,submitButton,-0.404582621,-0.400271878,0,0,0,1,15,75,54,1,70,67519,2,180,2022-02-10_13h46.55.120,orientation adjustment 2,2021.2.3,MacIntel,60.0024001,,,,,,,
,,,,,,,,,,,,,,,,,,,,,,51.11111111,-25,20,75,26.11111111,51.11111111,40.88888889,-74.11111111,-0.404582621,-0.400271878,1,0,0,1.2158,submitButton,-0.404582621,-0.400271878,0,0,0,1,16,76,9,1,25,67519,2,180,2022-02-10_13h46.55.120,orientation adjustment 2,2021.2.3,MacIntel,60.0024001,,,,,,,
,,,,,,,,,,,,,,,,,,,,,,68.88888889,17,20,75,85.88888889,68.88888889,55.11111111,-17.88888889,-0.404582621,-0.400271878,1,0,0,1.767,submitButton,-0.404582621,-0.400271878,0,0,0,1,17,77,1,1,17,67519,2,180,2022-02-10_13h46.55.120,orientation adjustment 2,2021.2.3,MacIntel,60.0024001,,,,,,,
,,,,,,,,,,,,,,,,,,,,,,54.44444444,30,20,75,84.44444444,54.44444444,43.55555556,-16.44444444,-0.404582621,-0.400522597,1,0,0,1.6657,submitButton,-0.404066874,-0.402430895,0,0,0,1,18,78,14,1,30,67519,2,180,2022-02-10_13h46.55.120,orientation adjustment 2,2021.2.3,MacIntel,60.0024001,,,,,,,
,,,,,,,,,,,,,,,,,,,,,,-53.88888889,-22,20,75,-75.88888889,53.88888889,43.11111111,-155.1111111,-0.404066874,-0.402179701,1,0,0,4.5321,submitButton,-0.404066874,-0.402179701,0,0,0,1,19,79,6,1,22,67519,2,180,2022-02-10_13h46.55.120,orientation adjustment 2,2021.2.3,MacIntel,60.0024001,,,,,,,
,,,,,,,,,,,,,,,,,,,,,,-59.44444444,-61,20,75,-120.4444444,59.44444444,47.55555556,-198.5555556,-0.404066874,-0.40243042,1,0,0,2.0153,submitButton,-0.404066874,-0.40243042,0,0,0,1,20,80,45,1,61,67519,2,180,2022-02-10_13h46.55.120,orientation adjustment 2,2021.2.3,MacIntel,60.0024001,,,,,,,
,,,,,,,,,,,,,,,,,,,,,,31.66666667,-62,20,75,-30.33333333,31.66666667,25.33333333,-126.6666667,-0.404066874,-0.40243042,1,0,0,3.8835,submitButton,-0.404066874,-0.40243042,0,0,0,1,21,81,46,1,62,67519,2,180,2022-02-10_13h46.55.120,orientation adjustment 2,2021.2.3,MacIntel,60.0024001,,,,,,,
,,,,,,,,,,,,,,,,,,,,,,53.88888889,52,20,75,105.8888889,53.88888889,43.11111111,5.111111111,-0.403279792,-0.402684937,1,0,0,3.2666,submitButton,-0.403279792,-0.402684937,0,0,0,1,22,82,36,1,52,67519,2,180,2022-02-10_13h46.55.120,orientation adjustment 2,2021.2.3,MacIntel,60.0024001,,,,,,,
,,,,,,,,,,,,,,,,,,,,,,-31.11111111,51,20,75,19.88888889,31.11111111,24.88888889,-63.88888889,-0.403279792,-0.402684937,1,0,0,1.9496,submitButton,-0.403279792,-0.402684937,0,0,0,1,23,83,35,1,51,67519,2,180,2022-02-10_13h46.55.120,orientation adjustment 2,2021.2.3,MacIntel,60.0024001,,,,,,,
,,,,,,,,,,,,,,,,,,,,,,-23.88888889,31,20,75,7.111111111,23.88888889,15.52777778,-74.52777778,-0.403279792,-0.402684937,1,0,0,4.2173,submitButton,-0.403279792,-0.402434218,0,0,0,1,24,84,15,1,31,67519,2,180,2022-02-10_13h46.55.120,orientation adjustment 2,2021.2.3,MacIntel,60.0024001,,,,,,,
,,,,,,,,,,,,,,,,,,,,,,-64.44444444,19,20,75,-45.44444444,64.44444444,51.55555556,-122.5555556,-0.403279792,-0.402434218,1,0,0,2.8673,submitButton,-0.403279792,-0.402434218,0,0,0,1,25,85,3,1,19,67519,2,180,2022-02-10_13h46.55.120,orientation adjustment 2,2021.2.3,MacIntel,60.0024001,,,,,,,
,,,,,,,,,,,,,,,,,,,,,,26.66666667,-75,20,75,-48.33333333,26.66666667,17.33333333,-147.6666667,-0.403279792,-0.402434218,1,0,0,1.2674,submitButton,-0.403279792,-0.402447442,0,0,0,1,26,86,59,1,75,67519,2,180,2022-02-10_13h46.55.120,orientation adjustment 2,2021.2.3,MacIntel,60.0024001,,,,,,,
,,,,,,,,,,,,,,,,,,,,,,-61.66666667,-53,20,75,-114.6666667,61.66666667,49.33333333,-192.3333333,-0.403279792,-0.402447442,1,0,0,4.7142,submitButton,-0.403279792,-0.402447442,0,0,0,1,27,87,37,1,53,67519,2,180,2022-02-10_13h46.55.120,orientation adjustment 2,2021.2.3,MacIntel,60.0024001,,,,,,,
,,,,,,,,,,,,,,,,,,,,,,-61.66666667,47,20,75,-14.66666667,61.66666667,49.33333333,-92.33333333,-0.404554952,-0.40403422,1,0,0,1.1163,submitButton,-0.407249383,-0.412730645,0,0,0,1,28,88,31,1,47,67519,2,180,2022-02-10_13h46.55.120,orientation adjustment 2,2021.2.3,MacIntel,60.0024001,,,,,,,
,,,,,,,,,,,,,,,,,,,,,,-40.55555556,-66,20,75,-106.5555556,40.55555556,32.44444444,-188.4444444,-0.407249383,-0.412730645,1,0,0,2.0507,submitButton,0.574230957,-0.42099216,1,0,0,1,29,89,50,1,66,67519,2,180,2022-02-10_13h46.55.120,orientation adjustment 2,2021.2.3,MacIntel,60.0024001,pause_continueButton,,,,,,
,,,,,,,,,,,,,,,,,,,,,,-70,23,20,75,-47,70,56,-123,-0.143611857,-0.403071899,1,0,0,2.3165,submitButton,-0.142525296,-0.402820435,0,0,0,1,30,90,7,1,23,67519,2,180,2022-02-10_13h46.55.120,orientation adjustment 2,2021.2.3,MacIntel,60.0024001,,,,,,,
,,,,,,,,,,,,,,,,,,,,,,-72.22222222,-26,20,75,-98.22222222,72.22222222,57.77777778,-173.7777778,-0.123233982,-0.409549832,1,0,0,3.0513,submitButton,-0.123233982,-0.409549832,0,0,0,1,31,91,10,1,26,67519,2,180,2022-02-10_13h46.55.120,orientation adjustment 2,2021.2.3,MacIntel,60.0024001,,,,,,,
,,,,,,,,,,,,,,,,,,,,,,-24.44444444,18,20,75,-6.444444444,24.44444444,15.88888889,-87.88888889,-0.123233982,-0.409549832,1,0,0,1.4003,submitButton,-0.123233982,-0.410060967,0,0,0,1,32,92,2,1,18,67519,2,180,2022-02-10_13h46.55.120,orientation adjustment 2,2021.2.3,MacIntel,60.0024001,,,,,,,
,,,,,,,,,,,,,,,,,,,,,,50.55555556,58,20,75,108.5555556,50.55555556,40.44444444,8.444444444,-0.123233982,-0.410311686,1,0,0,2.4004,submitButton,-0.123233982,-0.410562812,0,0,0,1,33,93,42,1,58,67519,2,180,2022-02-10_13h46.55.120,orientation adjustment 2,2021.2.3,MacIntel,60.0024001,,,,,,,
,,,,,,,,,,,,,,,,,,,,,,68.33333333,64,20,75,132.3333333,68.33333333,54.66666667,28.66666667,-0.123233982,-0.410562812,1,0,0,3.2669,submitButton,-0.123233982,-0.410562812,0,0,0,1,34,94,48,1,64,67519,2,180,2022-02-10_13h46.55.120,orientation adjustment 2,2021.2.3,MacIntel,60.0024001,,,,,,,
,,,,,,,,,,,,,,,,,,,,,,32.22222222,-42,20,75,-9.777777778,32.22222222,25.77777778,-106.2222222,-0.123233982,-0.410813531,1,0,0,3.3164,submitButton,-0.123233982,-0.410813531,0,0,0,1,35,95,26,1,42,67519,2,180,2022-02-10_13h46.55.120,orientation adjustment 2,2021.2.3,MacIntel,60.0024001,,,,,,,
,,,,,,,,,,,,,,,,,,,,,,-31.11111111,-16,20,75,-47.11111111,31.11111111,24.88888889,-130.8888889,-0.123233982,-0.410813531,1,0,0,1.7002,submitButton,-0.123233982,-0.41106425,0,0,0,1,36,96,0,1,16,67519,2,180,2022-02-10_13h46.55.120,orientation adjustment 2,2021.2.3,MacIntel,60.0024001,,,,,,,
,,,,,,,,,,,,,,,,,,,,,,-75,65,20,75,-10,75,60,-85,-0.123233982,-0.41106425,1,0,0,2.3329,submitButton,-0.123484701,-0.411317342,0,0,0,1,37,97,49,1,65,67519,2,180,2022-02-10_13h46.55.120,orientation adjustment 2,2021.2.3,MacIntel,60.0024001,,,,,,,
,,,,,,,,,,,,,,,,,,,,,,68.88888889,41,20,75,109.8888889,68.88888889,55.11111111,6.111111111,-0.123484701,-0.411317342,1,0,0,1.3997,submitButton,-0.123484701,-0.411317342,0,0,0,1,38,98,25,1,41,67519,2,180,2022-02-10_13h46.55.120,orientation adjustment 2,2021.2.3,MacIntel,60.0024001,,,,,,,
,,,,,,,,,,,,,,,,,,,,,,-41.11111111,56,20,75,14.88888889,41.11111111,32.88888889,-66.88888889,-0.123484701,-0.411568061,1,0,0,2.0673,submitButton,-0.123484701,-0.411568061,0,0,0,1,39,99,40,1,56,67519,2,180,2022-02-10_13h46.55.120,orientation adjustment 2,2021.2.3,MacIntel,60.0024001,,,,,,,
,,,,,,,,,,,,,,,,,,,,,,-67.77777778,-48,20,75,-115.7777778,67.77777778,54.22222222,-192.2222222,-0.123986545,-0.411819051,1,0,0,1.7494,submitButton,-0.123986545,-0.411819051,0,0,0,1,40,100,32,1,48,67519,2,180,2022-02-10_13h46.55.120,orientation adjustment 2,2021.2.3,MacIntel,60.0024001,,,,,,,
,,,,,,,,,,,,,,,,,,,,,,21.66666667,49,20,75,70.66666667,21.66666667,14.08333333,-26.91666667,-0.202624105,-0.434340617,1,0,0,1.6668,submitButton,-0.257153015,-0.414989895,0,0,0,1,41,101,33,1,49,67519,2,180,2022-02-10_13h46.55.120,orientation adjustment 2,2021.2.3,MacIntel,60.0024001,,,,,,,
,,,,,,,,,,,,,,,,,,,,,,22.77777778,-32,20,75,-9.222222222,22.77777778,14.80555556,-107.1944444,-0.257153015,-0.414989895,1,0,0,1.1988,submitButton,-0.261764628,-0.416896227,0,0,0,1,42,102,16,1,32,67519,2,180,2022-02-10_13h46.55.120,orientation adjustment 2,2021.2.3,MacIntel,60.0024001,,,,,,,
,,,,,,,,,,,,,,,,,,,,,,60,-28,20,75,32,60,48,-70,-0.263952501,-0.419174669,1,0,0,3.1649,submitButton,-0.263952501,-0.420239597,0,0,0,1,43,103,12,1,28,67519,2,180,2022-02-10_13h46.55.120,orientation adjustment 2,2021.2.3,MacIntel,60.0024001,,,,,,,
,,,,,,,,,,,,,,,,,,,,,,36.66666667,-35,20,75,1.666666667,36.66666667,29.33333333,-95.66666667,-0.263952501,-0.420239597,1,0,0,2.1646,submitButton,0.520371772,-0.387310791,1,0,0,1,44,104,19,1,35,67519,2,180,2022-02-10_13h46.55.120,orientation adjustment 2,2021.2.3,MacIntel,60.0024001,pause_continueButton,,,,,,
,,,,,,,,,,,,,,,,,,,,,,48.88888889,27,20,75,75.88888889,48.88888889,39.11111111,-23.88888889,-0.196126777,-0.401880561,1,0,0,2.3831,submitButton,-0.196126777,-0.398505181,0,0,0,1,45,105,11,1,27,67519,2,180,2022-02-10_13h46.55.120,orientation adjustment 2,2021.2.3,MacIntel,60.0024001,,,,,,,
,,,,,,,,,,,,,,,,,,,,,,-25,34,20,75,9,25,16.25,-72.25,-0.196801283,-0.400453627,1,0,0,2.9667,submitButton,-0.196801283,-0.401777412,0,0,0,1,46,106,18,1,34,67519,2,180,2022-02-10_13h46.55.120,orientation adjustment 2,2021.2.3,MacIntel,60.0024001,,,,,,,
,,,,,,,,,,,,,,,,,,,,,,-29.44444444,-68,20,75,-97.44444444,29.44444444,19.13888889,-177.1388889,-0.198098484,-0.401518826,1,0,0,3.2679,submitButton,-0.198098484,-0.401518826,0,0,0,1,47,107,52,1,68,67519,2,180,2022-02-10_13h46.55.120,orientation adjustment 2,2021.2.3,MacIntel,60.0024001,,,,,,,
,,,,,,,,,,,,,,,,,,,,,,55.55555556,46,20,75,101.5555556,55.55555556,44.44444444,0.444444444,-0.197847222,-0.402029555,1,0,0,3.3336,submitButton,-0.197847222,-0.402280409,0,0,0,1,48,108,30,1,46,67519,2,180,2022-02-10_13h46.55.120,orientation adjustment 2,2021.2.3,MacIntel,60.0024001,,,,,,,
,,,,,,,,,,,,,,,,,,,,,,25.55555556,-24,20,75,1.555555556,25.55555556,16.61111111,-97.38888889,-0.194540134,-0.406011827,1,0,0,2.7319,submitButton,-0.194540134,-0.405761041,0,0,0,1,49,109,8,1,24,67519,2,180,2022-02-10_13h46.55.120,orientation adjustment 2,2021.2.3,MacIntel,60.0024001,,,,,,,
,,,,,,,,,,,,,,,,,,,,,,46.66666667,20,20,75,66.66666667,46.66666667,37.33333333,-32.66666667,-0.194540134,-0.405259467,1,0,0,1.7507,submitButton,-0.194540134,-0.405259467,0,0,0,1,50,110,4,1,20,67519,2,180,2022-02-10_13h46.55.120,orientation adjustment 2,2021.2.3,MacIntel,60.0024001,,,,,,,
,,,,,,,,,,,,,,,,,,,,,,-52.22222222,-33,20,75,-85.22222222,52.22222222,41.77777778,-164.7777778,-0.193122559,-0.406069607,1,0,0,1.8498,submitButton,-0.193122559,-0.402549913,0,0,0,1,51,111,17,1,33,67519,2,180,2022-02-10_13h46.55.120,orientation adjustment 2,2021.2.3,MacIntel,60.0024001,,,,,,,
,,,,,,,,,,,,,,,,,,,,,,-52.77777778,-39,20,75,-91.77777778,52.77777778,42.22222222,-171.2222222,-0.201176622,-0.404115397,1,0,0,2.6825,submitButton,-0.201176622,-0.404115397,0,0,0,1,52,112,23,1,39,67519,2,180,2022-02-10_13h46.55.120,orientation adjustment 2,2021.2.3,MacIntel,60.0024001,,,,,,,
,,,,,,,,,,,,,,,,,,,,,,-20.55555556,-67,20,75,-87.55555556,20.55555556,13.36111111,-170.3611111,-0.198860202,-0.405047743,1,0,0,3.5514,submitButton,-0.198860202,-0.405047743,0,0,0,1,53,113,51,1,67,67519,2,180,2022-02-10_13h46.55.120,orientation adjustment 2,2021.2.3,MacIntel,60.0024001,,,,,,,
,,,,,,,,,,,,,,,,,,,,,,-41.66666667,57,20,75,15.33333333,41.66666667,33.33333333,-66.33333333,-0.198304918,-0.405313856,1,0,0,2.5989,submitButton,-0.198304918,-0.405313856,0,0,0,1,54,114,41,1,57,67519,2,180,2022-02-10_13h46.55.120,orientation adjustment 2,2021.2.3,MacIntel,60.0024001,,,,,,,
,,,,,,,,,,,,,,,,,,,,,,30.55555556,73,20,75,103.5555556,30.55555556,24.44444444,7.444444444,-0.198054199,-0.405313856,1,0,0,2.9834,submitButton,-0.198054199,-0.405313856,0,0,0,1,55,115,57,1,73,67519,2,180,2022-02-10_13h46.55.120,orientation adjustment 2,2021.2.3,MacIntel,60.0024001,,,,,,,
,,,,,,,,,,,,,,,,,,,,,,59.44444444,-63,20,75,-3.555555556,59.44444444,47.55555556,-105.4444444,-0.198054199,-0.405313856,1,0,0,1.4186,submitButton,-0.197537299,-0.405313856,0,0,0,1,56,116,47,1,63,67519,2,180,2022-02-10_13h46.55.120,orientation adjustment 2,2021.2.3,MacIntel,60.0024001,,,,,,,
,,,,,,,,,,,,,,,,,,,,,,-67.77777778,-38,20,75,-105.7777778,67.77777778,54.22222222,-182.2222222,-0.197537299,-0.405564575,1,0,0,2.1496,submitButton,-0.197537299,-0.405564575,0,0,0,1,57,117,22,1,38,67519,2,180,2022-02-10_13h46.55.120,orientation adjustment 2,2021.2.3,MacIntel,60.0024001,,,,,,,
,,,,,,,,,,,,,,,,,,,,,,68.88888889,-43,20,75,25.88888889,68.88888889,55.11111111,-77.88888889,-0.197537299,-0.405564575,1,0,0,2.3499,submitButton,-0.197537299,-0.405564575,0,0,0,1,58,118,27,1,43,67519,2,180,2022-02-10_13h46.55.120,orientation adjustment 2,2021.2.3,MacIntel,60.0024001,,,,,,,
,,,,,,,,,,,,,,,,,,,,,,43.88888889,-44,20,75,-0.111111111,43.88888889,35.11111111,-98.88888889,-0.195027737,-0.405564575,1,0,0,1.6004,submitButton,0.227210558,-0.417432048,1,0,0,1,59,119,28,1,44,67519,2,180,2022-02-10_13h46.55.120,orientation adjustment 2,2021.2.3,MacIntel,60.0024001,pause_continueButton,,,,,,
,,,,,,,,,,,,,,,,,,,,,,35,-31,20,75,4,35,28,-93,-0.209849854,-0.390417413,1,0,0,1.7656,submitButton,-0.203296916,-0.393939345,0,0,0,2,0,120,15,1,31,67519,2,180,2022-02-10_13h46.55.120,orientation adjustment 2,2021.2.3,MacIntel,60.0024001,,,,,,,
,,,,,,,,,,,,,,,,,,,,,,47.22222222,-48,20,75,-0.777777778,47.22222222,37.77777778,-100.2222222,-0.233305901,-0.425314195,1,0,0,1.3005,submitButton,-0.233305901,-0.425314195,0,0,0,2,1,121,32,1,48,67519,2,180,2022-02-10_13h46.55.120,orientation adjustment 2,2021.2.3,MacIntel,60.0024001,,,,,,,
,,,,,,,,,,,,,,,,,,,,,,32.77777778,-53,20,75,-20.22222222,32.77777778,26.22222222,-116.7777778,-0.233305901,-0.425314195,1,0,0,1.5337,submitButton,-0.233305901,-0.425314195,0,0,0,2,2,122,37,1,53,67519,2,180,2022-02-10_13h46.55.120,orientation adjustment 2,2021.2.3,MacIntel,60.0024001,,,,,,,
,,,,,,,,,,,,,,,,,,,,,,-66.11111111,17,20,75,-49.11111111,66.11111111,52.88888889,-125.8888889,-0.233305901,-0.425314195,1,0,0,1.7328,submitButton,-0.233305901,-0.425314195,0,0,0,2,3,123,1,1,17,67519,2,180,2022-02-10_13h46.55.120,orientation adjustment 2,2021.2.3,MacIntel,60.0024001,,,,,,,
,,,,,,,,,,,,,,,,,,,,,,-31.11111111,22,20,75,-9.111111111,31.11111111,24.88888889,-92.88888889,-0.236525302,-0.424745076,1,0,0,1.3831,submitButton,-0.239541389,-0.425147773,0,0,0,2,4,124,6,1,22,67519,2,180,2022-02-10_13h46.55.120,orientation adjustment 2,2021.2.3,MacIntel,60.0024001,,,,,,,
,,,,,,,,,,,,,,,,,,,,,,-55,37,20,75,-18,55,44,-97,-0.243804559,-0.427007311,1,0,0,4.5671,submitButton,-0.243804559,-0.426756456,0,0,0,2,5,125,21,1,37,67519,2,180,2022-02-10_13h46.55.120,orientation adjustment 2,2021.2.3,MacIntel,60.0024001,,,,,,,
,,,,,,,,,,,,,,,,,,,,,,-26.11111111,-46,20,75,-72.11111111,26.11111111,16.97222222,-152.9722222,-0.247536485,-0.431444702,1,0,0,1.9656,submitButton,-0.235838081,-0.410342678,0,0,0,2,6,126,30,1,46,67519,2,180,2022-02-10_13h46.55.120,orientation adjustment 2,2021.2.3,MacIntel,60.0024001,,,,,,,
,,,,,,,,,,,,,,,,,,,,,,-41.66666667,-65,20,75,-106.6666667,41.66666667,33.33333333,-188.3333333,-0.238200819,-0.418181017,1,0,0,1.9833,submitButton,-0.240357734,-0.421387397,0,0,0,2,7,127,49,1,65,67519,2,180,2022-02-10_13h46.55.120,orientation adjustment 2,2021.2.3,MacIntel,60.0024001,,,,,,,
,,,,,,,,,,,,,,,,,,,,,,52.77777778,70,20,75,122.7777778,52.77777778,42.22222222,22.22222222,-0.242951152,-0.424500868,1,0,0,1.6499,submitButton,-0.242951152,-0.424500868,0,0,0,2,8,128,54,1,70,67519,2,180,2022-02-10_13h46.55.120,orientation adjustment 2,2021.2.3,MacIntel,60.0024001,,,,,,,
,,,,,,,,,,,,,,,,,,,,,,65.55555556,58,20,75,123.5555556,65.55555556,52.44444444,20.44444444,-0.242435167,-0.424500868,1,0,0,1.4656,submitButton,-0.242435167,-0.424500868,0,0,0,2,9,129,42,1,58,67519,2,180,2022-02-10_13h46.55.120,orientation adjustment 2,2021.2.3,MacIntel,60.0024001,,,,,,,
,,,,,,,,,,,,,,,,,,,,,,57.77777778,52,20,75,109.7777778,57.77777778,46.22222222,8.222222222,-0.242956746,-0.425065715,1,0,0,1.599,submitButton,-0.243636949,-0.427006836,0,0,0,2,10,130,36,1,52,67519,2,180,2022-02-10_13h46.55.120,orientation adjustment 2,2021.2.3,MacIntel,60.0024001,,,,,,,
,,,,,,,,,,,,,,,,,,,,,,-28.33333333,63,20,75,34.66666667,28.33333333,18.41666667,-45.41666667,-0.243636949,-0.427006836,1,0,0,1.6003,submitButton,-0.243636949,-0.427006836,0,0,0,2,11,131,47,1,63,67519,2,180,2022-02-10_13h46.55.120,orientation adjustment 2,2021.2.3,MacIntel,60.0024001,,,,,,,
,,,,,,,,,,,,,,,,,,,,,,26.66666667,-43,20,75,-16.33333333,26.66666667,17.33333333,-115.6666667,-0.243636949,-0.427006836,1,0,0,0.9987,submitButton,-0.275959405,-0.381634793,0,0,0,2,12,132,27,1,43,67519,2,180,2022-02-10_13h46.55.120,orientation adjustment 2,2021.2.3,MacIntel,60.0024001,,,,,,,
,,,,,,,,,,,,,,,,,,,,,,55,-35,20,75,20,55,44,-81,-0.272978482,-0.394362793,1,0,0,3.3333,submitButton,-0.272117581,-0.393253377,0,0,0,2,13,133,19,1,35,67519,2,180,2022-02-10_13h46.55.120,orientation adjustment 2,2021.2.3,MacIntel,60.0024001,,,,,,,
,,,,,,,,,,,,,,,,,,,,,,48.33333333,40,20,75,88.33333333,48.33333333,38.66666667,-11.33333333,-0.28009691,-0.400822008,1,0,0,1.7008,submitButton,0.537701552,-0.403754408,1,0,0,2,14,134,24,1,40,67519,2,180,2022-02-10_13h46.55.120,orientation adjustment 2,2021.2.3,MacIntel,60.0024001,pause_continueButton,,,,,,
,,,,,,,,,,,,,,,,,,,,,,-61.66666667,-34,20,75,-95.66666667,61.66666667,49.33333333,-173.3333333,0.537701552,-0.403754408,1,0,0,3.5829,submitButton,-0.186054959,-0.409868232,0,0,0,2,15,135,18,1,34,67519,2,180,2022-02-10_13h46.55.120,orientation adjustment 2,2021.2.3,MacIntel,60.0024001,,,,,,,
,,,,,,,,,,,,,,,,,,,,,,-44.44444444,-74,20,75,-118.4444444,44.44444444,35.55555556,-199.5555556,-0.19518358,-0.411119588,1,0,0,1.4671,submitButton,-0.19518358,-0.411119588,0,0,0,2,16,136,58,1,74,67519,2,180,2022-02-10_13h46.55.120,orientation adjustment 2,2021.2.3,MacIntel,60.0024001,,,,,,,
,,,,,,,,,,,,,,,,,,,,,,32.22222222,39,20,75,71.22222222,32.22222222,25.77777778,-25.22222222,-0.19518358,-0.411119588,1,0,0,2.6838,submitButton,-0.19518358,-0.411119588,0,0,0,2,17,137,23,1,39,67519,2,180,2022-02-10_13h46.55.120,orientation adjustment 2,2021.2.3,MacIntel,60.0024001,,,,,,,
,,,,,,,,,,,,,,,,,,,,,,51.66666667,26,20,75,77.66666667,51.66666667,41.33333333,-22.66666667,-0.19675944,-0.41405721,1,0,0,1.6496,submitButton,-0.197010227,-0.41405721,0,0,0,2,18,138,10,1,26,67519,2,180,2022-02-10_13h46.55.120,orientation adjustment 2,2021.2.3,MacIntel,60.0024001,,,,,,,
,,,,,,,,,,,,,,,,,,,,,,-65,-66,20,75,-131,65,52,-208,-0.197284071,-0.413549805,1,0,0,2.3171,submitButton,-0.197284071,-0.413549805,0,0,0,2,19,139,50,1,66,67519,2,180,2022-02-10_13h46.55.120,orientation adjustment 2,2021.2.3,MacIntel,60.0024001,,,,,,,
,,,,,,,,,,,,,,,,,,,,,,-58.33333333,75,20,75,16.66666667,58.33333333,46.66666667,-61.66666667,-0.197284071,-0.413549805,1,0,0,1.6823,submitButton,-0.197284071,-0.413549805,0,0,0,2,20,140,59,1,75,67519,2,180,2022-02-10_13h46.55.120,orientation adjustment 2,2021.2.3,MacIntel,60.0024001,,,,,,,
,,,,,,,,,,,,,,,,,,,,,,20.55555556,-68,20,75,-47.44444444,20.55555556,13.36111111,-144.6388889,-0.197284071,-0.413549805,1,0,0,1.8322,submitButton,-0.197535129,-0.414322849,0,0,0,2,21,141,52,1,68,67519,2,180,2022-02-10_13h46.55.120,orientation adjustment 2,2021.2.3,MacIntel,60.0024001,,,,,,,
,,,,,,,,,,,,,,,,,,,,,,-70.55555556,-73,20,75,-143.5555556,70.55555556,56.44444444,-219.4444444,-0.197454698,-0.412470839,1,0,0,2.1008,submitButton,-0.197454698,-0.412470839,0,0,0,2,22,142,57,1,73,67519,2,180,2022-02-10_13h46.55.120,orientation adjustment 2,2021.2.3,MacIntel,60.0024001,,,,,,,
,,,,,,,,,,,,,,,,,,,,,,-32.77777778,-72,20,75,-104.7777778,32.77777778,26.22222222,-188.2222222,-0.19795634,-0.412721965,1,0,0,1.6819,submitButton,-0.19795634,-0.412721965,0,0,0,2,23,143,56,1,72,67519,2,180,2022-02-10_13h46.55.120,orientation adjustment 2,2021.2.3,MacIntel,60.0024001,,,,,,,
,,,,,,,,,,,,,,,,,,,,,,61.11111111,-67,20,75,-5.888888889,61.11111111,48.88888889,-108.1111111,-0.197203912,-0.412471178,1,0,0,2.4996,submitButton,-0.197203912,-0.412471178,0,0,0,2,24,144,51,1,67,67519,2,180,2022-02-10_13h46.55.120,orientation adjustment 2,2021.2.3,MacIntel,60.0024001,,,,,,,
,,,,,,,,,,,,,,,,,,,,,,66.66666667,-54,20,75,12.66666667,66.66666667,53.33333333,-90.66666667,-0.197203912,-0.412471178,1,0,0,2.8835,submitButton,-0.197203912,-0.412471178,0,0,0,2,25,145,38,1,54,67519,2,180,2022-02-10_13h46.55.120,orientation adjustment 2,2021.2.3,MacIntel,60.0024001,,,,,,,
,,,,,,,,,,,,,,,,,,,,,,-52.22222222,-16,20,75,-68.22222222,52.22222222,41.77777778,-147.7777778,-0.198771634,-0.412745226,1,0,0,4.8406,submitButton,-0.198771634,-0.412745226,0,0,0,2,26,146,0,1,16,67519,2,180,2022-02-10_13h46.55.120,orientation adjustment 2,2021.2.3,MacIntel,60.0024001,,,,,,,
,,,,,,,,,,,,,,,,,,,,,,40,20,20,75,60,40,32,-38,-0.198235609,-0.414856364,1,0,0,2.0332,submitButton,-0.198235609,-0.414856364,0,0,0,2,27,147,4,1,20,67519,2,180,2022-02-10_13h46.55.120,orientation adjustment 2,2021.2.3,MacIntel,60.0024001,,,,,,,
,,,,,,,,,,,,,,,,,,,,,,22.22222222,-41,20,75,-18.77777778,22.22222222,14.44444444,-116.5555556,-0.198235609,-0.414856364,1,0,0,1.619,submitButton,-0.198235609,-0.414856364,0,0,0,2,28,148,25,1,41,67519,2,180,2022-02-10_13h46.55.120,orientation adjustment 2,2021.2.3,MacIntel,60.0024001,,,,,,,
,,,,,,,,,,,,,,,,,,,,,,-50,32,20,75,-18,50,40,-98,-0.197940267,-0.414605713,1,0,0,2.0671,submitButton,0.20330953,-0.373830363,1,0,0,2,29,149,16,1,32,67519,2,180,2022-02-10_13h46.55.120,orientation adjustment 2,2021.2.3,MacIntel,60.0024001,pause_continueButton,,,,,,
,,,,,,,,,,,,,,,,,,,,,,52.22222222,30,20,75,82.22222222,52.22222222,41.77777778,-18.22222222,-0.233955722,-0.399861382,1,0,0,3.3836,submitButton,-0.233955722,-0.399861382,0,0,0,2,30,150,14,1,30,67519,2,180,2022-02-10_13h46.55.120,orientation adjustment 2,2021.2.3,MacIntel,60.0024001,,,,,,,
,,,,,,,,,,,,,,,,,,,,,,-62.77777778,19,20,75,-43.77777778,62.77777778,50.22222222,-121.2222222,-0.233955722,-0.399861382,1,0,0,1.8485,submitButton,-0.233955722,-0.399861382,0,0,0,2,31,151,3,1,19,67519,2,180,2022-02-10_13h46.55.120,orientation adjustment 2,2021.2.3,MacIntel,60.0024001,,,,,,,
,,,,,,,,,,,,,,,,,,,,,,65.55555556,62,20,75,127.5555556,65.55555556,52.44444444,24.44444444,-0.233955722,-0.399861382,1,0,0,2.0843,submitButton,-0.233955722,-0.399861382,0,0,0,2,32,152,46,1,62,67519,2,180,2022-02-10_13h46.55.120,orientation adjustment 2,2021.2.3,MacIntel,60.0024001,,,,,,,
,,,,,,,,,,,,,,,,,,,,,,65,-47,20,75,18,65,52,-85,-0.233955722,-0.399861382,1,0,0,2.0493,submitButton,-0.233955722,-0.399861382,0,0,0,2,33,153,31,1,47,67519,2,180,2022-02-10_13h46.55.120,orientation adjustment 2,2021.2.3,MacIntel,60.0024001,,,,,,,
,,,,,,,,,,,,,,,,,,,,,,-22.77777778,-44,20,75,-66.77777778,22.77777778,14.80555556,-148.8055556,-0.233955722,-0.399861382,1,0,0,2.4161,submitButton,-0.233955722,-0.399861382,0,0,0,2,34,154,28,1,44,67519,2,180,2022-02-10_13h46.55.120,orientation adjustment 2,2021.2.3,MacIntel,60.0024001,,,,,,,
,,,,,,,,,,,,,,,,,,,,,,61.66666667,-64,20,75,-2.333333333,61.66666667,49.33333333,-104.6666667,-0.233955722,-0.399861382,1,0,0,1.5528,submitButton,-0.233955722,-0.399861382,0,0,0,2,35,155,48,1,64,67519,2,180,2022-02-10_13h46.55.120,orientation adjustment 2,2021.2.3,MacIntel,60.0024001,,,,,,,
,,,,,,,,,,,,,,,,,,,,,,-26.66666667,69,20,75,42.33333333,26.66666667,17.33333333,-38.33333333,-0.233955722,-0.399861382,1,0,0,1.5437,submitButton,-0.233955722,-0.399861382,0,0,0,2,36,156,53,1,69,67519,2,180,2022-02-10_13h46.55.120,orientation adjustment 2,2021.2.3,MacIntel,60.0024001,,,,,,,
,,,,,,,,,,,,,,,,,,,,,,74.44444444,-28,20,75,46.44444444,74.44444444,59.55555556,-58.44444444,-0.233955722,-0.399861382,1,0,0,2.2707,submitButton,-0.233955722,-0.399861382,0,0,0,2,37,157,12,1,28,67519,2,180,2022-02-10_13h46.55.120,orientation adjustment 2,2021.2.3,MacIntel,60.0024001,,,,,,,
,,,,,,,,,,,,,,,,,,,,,,32.77777778,-55,20,75,-22.22222222,32.77777778,26.22222222,-118.7777778,-0.235510864,-0.40221795,1,0,0,1.1324,submitButton,-0.235510864,-0.40221795,0,0,0,2,38,158,39,1,55,67519,2,180,2022-02-10_13h46.55.120,orientation adjustment 2,2021.2.3,MacIntel,60.0024001,,,,,,,
,,,,,,,,,,,,,,,,,,,,,,-74.44444444,-18,20,75,-92.44444444,74.44444444,59.55555556,-167.5555556,-0.235510864,-0.40221795,1,0,0,2.1537,submitButton,-0.235510864,-0.40221795,0,0,0,2,39,159,2,1,18,67519,2,180,2022-02-10_13h46.55.120,orientation adjustment 2,2021.2.3,MacIntel,60.0024001,,,,,,,
,,,,,,,,,,,,,,,,,,,,,,27.77777778,-25,20,75,2.777777778,27.77777778,18.05555556,-96.94444444,-0.235510864,-0.40221795,1,0,0,3.8494,submitButton,-0.235510864,-0.40221795,0,0,0,2,40,160,9,1,25,67519,2,180,2022-02-10_13h46.55.120,orientation adjustment 2,2021.2.3,MacIntel,60.0024001,,,,,,,
,,,,,,,,,,,,,,,,,,,,,,-38.33333333,56,20,75,17.66666667,38.33333333,30.66666667,-64.66666667,-0.235510864,-0.40221795,1,0,0,1.017,submitButton,-0.235510864,-0.40221795,0,0,0,2,41,161,40,1,56,67519,2,180,2022-02-10_13h46.55.120,orientation adjustment 2,2021.2.3,MacIntel,60.0024001,,,,,,,
,,,,,,,,,,,,,,,,,,,,,,-73.88888889,-42,20,75,-115.8888889,73.88888889,59.11111111,-191.1111111,-0.235510864,-0.40221795,1,0,0,3.6347,submitButton,-0.235510864,-0.40221795,0,0,0,2,42,162,26,1,42,67519,2,180,2022-02-10_13h46.55.120,orientation adjustment 2,2021.2.3,MacIntel,60.0024001,,,,,,,
,,,,,,,,,,,,,,,,,,,,,,-30,33,20,75,3,30,24,-81,-0.235510864,-0.40221795,1,0,0,1.4999,submitButton,-0.235510864,-0.40221795,0,0,0,2,43,163,17,1,33,67519,2,180,2022-02-10_13h46.55.120,orientation adjustment 2,2021.2.3,MacIntel,60.0024001,,,,,,,
,,,,,,,,,,,,,,,,,,,,,,-52.77777778,49,20,75,-3.777777778,52.77777778,42.22222222,-83.22222222,-0.233755764,-0.40221795,1,0,0,2.1334,submitButton,0.486924235,-0.376662123,1,0,0,2,44,164,33,1,49,67519,2,180,2022-02-10_13h46.55.120,orientation adjustment 2,2021.2.3,MacIntel,60.0024001,pause_continueButton,,,,,,
,,,,,,,,,,,,,,,,,,,,,,55,-24,20,75,31,55,44,-70,-0.326442498,-0.403065457,1,0,0,2.6312,submitButton,-0.326442498,-0.403065457,0,0,0,2,45,165,8,1,24,67519,2,180,2022-02-10_13h46.55.120,orientation adjustment 2,2021.2.3,MacIntel,60.0024001,,,,,,,
,,,,,,,,,,,,,,,,,,,,,,37.77777778,-50,20,75,-12.22222222,37.77777778,30.22222222,-109.7777778,-0.326442498,-0.403065457,1,0,0,1.3508,submitButton,-0.326442498,-0.403065457,0,0,0,2,46,166,34,1,50,67519,2,180,2022-02-10_13h46.55.120,orientation adjustment 2,2021.2.3,MacIntel,60.0024001,,,,,,,
,,,,,,,,,,,,,,,,,,,,,,-55,51,20,75,-4,55,44,-83,-0.326442498,-0.403065457,1,0,0,2.9334,submitButton,-0.326442498,-0.403065457,0,0,0,2,47,167,35,1,51,67519,2,180,2022-02-10_13h46.55.120,orientation adjustment 2,2021.2.3,MacIntel,60.0024001,,,,,,,
,,,,,,,,,,,,,,,,,,,,,,-38.33333333,-59,20,75,-97.33333333,38.33333333,30.66666667,-179.6666667,-0.326442498,-0.403065457,1,0,0,2.1313,submitButton,-0.326442498,-0.403065457,0,0,0,2,48,168,43,1,59,67519,2,180,2022-02-10_13h46.55.120,orientation adjustment 2,2021.2.3,MacIntel,60.0024001,,,,,,,
,,,,,,,,,,,,,,,,,,,,,,-72.77777778,21,20,75,-51.77777778,72.77777778,58.22222222,-127.2222222,-0.326442498,-0.403065457,1,0,0,2.2323,submitButton,-0.326442498,-0.403065457,0,0,0,2,49,169,5,1,21,67519,2,180,2022-02-10_13h46.55.120,orientation adjustment 2,2021.2.3,MacIntel,60.0024001,,,,,,,
,,,,,,,,,,,,,,,,,,,,,,-38.33333333,71,20,75,32.66666667,38.33333333,30.66666667,-49.66666667,-0.326442498,-0.403065457,1,0,0,1.497,submitButton,-0.326442498,-0.403065457,0,0,0,2,50,170,55,1,71,67519,2,180,2022-02-10_13h46.55.120,orientation adjustment 2,2021.2.3,MacIntel,60.0024001,,,,,,,
,,,,,,,,,,,,,,,,,,,,,,58.33333333,57,20,75,115.3333333,58.33333333,46.66666667,13.66666667,-0.326442498,-0.403065457,1,0,0,3.4144,submitButton,-0.326442498,-0.403065457,0,0,0,2,51,171,41,1,57,67519,2,180,2022-02-10_13h46.55.120,orientation adjustment 2,2021.2.3,MacIntel,60.0024001,,,,,,,
,,,,,,,,,,,,,,,,,,,,,,31.66666667,-27,20,75,4.666666667,31.66666667,25.33333333,-91.66666667,-0.326442498,-0.403065457,1,0,0,1.6005,submitButton,-0.326442498,-0.403065457,0,0,0,2,52,172,11,1,27,67519,2,180,2022-02-10_13h46.55.120,orientation adjustment 2,2021.2.3,MacIntel,60.0024001,,,,,,,
,,,,,,,,,,,,,,,,,,,,,,63.88888889,-23,20,75,40.88888889,63.88888889,51.11111111,-61.88888889,-0.326442498,-0.403065457,1,0,0,3.4161,submitButton,-0.326442498,-0.403065457,0,0,0,2,53,173,7,1,23,67519,2,180,2022-02-10_13h46.55.120,orientation adjustment 2,2021.2.3,MacIntel,60.0024001,,,,,,,
,,,,,,,,,,,,,,,,,,,,,,-45.55555556,-36,20,75,-81.55555556,45.55555556,36.44444444,-162.4444444,-0.326442498,-0.403065457,1,0,0,3.4663,submitButton,-0.347667101,-0.399562988,0,0,0,2,54,174,20,1,36,67519,2,180,2022-02-10_13h46.55.120,orientation adjustment 2,2021.2.3,MacIntel,60.0024001,,,,,,,
,,,,,,,,,,,,,,,,,,,,,,-70,45,20,75,-25,70,56,-101,-0.348257785,-0.400722588,1,0,0,2.4327,submitButton,-0.348257785,-0.400722588,0,0,0,2,55,175,29,1,45,67519,2,180,2022-02-10_13h46.55.120,orientation adjustment 2,2021.2.3,MacIntel,60.0024001,,,,,,,
,,,,,,,,,,,,,,,,,,,,,,57.22222222,-61,20,75,-3.777777778,57.22222222,45.77777778,-105.2222222,-0.332289937,-0.406535034,1,0,0,2.4494,submitButton,-0.33641588,-0.408965454,0,0,0,2,56,176,45,1,61,67519,2,180,2022-02-10_13h46.55.120,orientation adjustment 2,2021.2.3,MacIntel,60.0024001,,,,,,,
,,,,,,,,,,,,,,,,,,,,,,27.77777778,-60,20,75,-32.22222222,27.77777778,18.05555556,-131.9444444,-0.334720086,-0.396731839,1,0,0,1.2336,submitButton,-0.331470473,-0.396214939,0,0,0,2,57,177,44,1,60,67519,2,180,2022-02-10_13h46.55.120,orientation adjustment 2,2021.2.3,MacIntel,60.0024001,,,,,,,
,,,,,,,,,,,,,,,,,,,,,,69.44444444,-38,20,75,31.44444444,69.44444444,55.55555556,-72.44444444,-0.338729485,-0.39689704,1,0,0,2.7176,submitButton,-0.339234246,-0.39396715,0,0,0,2,58,178,22,1,38,67519,2,180,2022-02-10_13h46.55.120,orientation adjustment 2,2021.2.3,MacIntel,60.0024001,,,,,,,
,,,,,,,,,,,,,,,,,,,,,,68.88888889,-29,20,75,39.88888889,68.88888889,55.11111111,-63.88888889,-0.335007189,-0.39396715,1,0,0,2.3675,submitButton,-0.335007189,-0.39396715,0,0,0,2,59,179,13,1,29,67519,2,180,2022-02-10_13h46.55.120,orientation adjustment 2,2021.2.3,MacIntel,60.0024001,,,,,,,
,,,,,,,,,,,,,,,,,,,,,,,,,,,,,,,,,,,,,,,,,,,,,,,,67519,2,180,2022-02-10_13h46.55.120,orientation adjustment 2,2021.2.3,MacIntel,60.0024001,,0.268207262,-0.412938029,1,0,0,EndButtonTxt
