consentMouse1.x,consentMouse1.y,consentMouse1.leftButton,consentMouse1.midButton,consentMouse1.rightButton,consentMouse1.clicked_name,consent_Mouse.x,consent_Mouse.y,consent_Mouse.leftButton,consent_Mouse.midButton,consent_Mouse.rightButton,consent_Mouse.clicked_name,startMouse.x,startMouse.y,startMouse.leftButton,startMouse.midButton,startMouse.rightButton,startMouse_2.x,startMouse_2.y,startMouse_2.leftButton,startMouse_2.midButton,startMouse_2.rightButton,start_distance,fixedOri,minimalDistance,maxOri,this_ori,accuracy,presented_accuracy,presented_this_ori,submitMouse.x,submitMouse.y,submitMouse.leftButton,submitMouse.midButton,submitMouse.rightButton,submitMouse.time,submitMouse.clicked_name,pauseMouse.x,pauseMouse.y,pauseMouse.leftButton,pauseMouse.midButton,pauseMouse.rightButton,trials.thisRepN,trials.thisTrialN,trials.thisN,trials.thisIndex,trials.ran,startOri,participant,condition,nTrials,date,expName,psychopyVersion,OS,frameRate,pauseMouse.clicked_name,EndButtonMouse.x,EndButtonMouse.y,EndButtonMouse.leftButton,EndButtonMouse.midButton,EndButtonMouse.rightButton,EndButtonMouse.clicked_name
0.297549303,-0.402201199,1,0,0,consent_button1,0.363328451,-0.404687432,1,0,0,consent_button,0.161419,-0.243849962,1,0,0,0.140534532,-0.379801432,1,0,0,-57.77777778,25,20,75,-44.77777778,69.77777778,55.82222222,-120.8222222,0.355898844,-0.301523302,1,0,0,0.6128,submitButton,0.371844076,-0.226893446,0,0,0,0,0,0,9,1,25,67609,2,180,2022-02-19_21h52.48.425,orientation adjustment 2,2021.2.3,MacIntel,60.04202942,,,,,,,
,,,,,,,,,,,,,,,,,,,,,,63.33333333,30,20,75,210.3333333,0.333333333,0.133333333,-59.86666667,0.210829536,-0.291286757,1,0,0,0.7995,submitButton,-0.192171699,-0.397644721,0,0,0,0,1,1,14,1,30,67609,2,180,2022-02-19_21h52.48.425,orientation adjustment 2,2021.2.3,MacIntel,60.04202942,,,,,,,
,,,,,,,,,,,,,,,,,,,,,,-22.22222222,-48,20,75,26.77777778,74.77777778,59.82222222,-78.17777778,0.186982286,-0.300959337,1,0,0,0.3337,submitButton,0.131147122,-0.319989149,0,0,0,0,2,2,32,1,48,67609,2,180,2022-02-19_21h52.48.425,orientation adjustment 2,2021.2.3,MacIntel,60.04202942,,,,,,,
,,,,,,,,,,,,,,,,,,,,,,42.77777778,43,20,75,131.7777778,88.77777778,71.02222222,24.02222222,0.225510322,-0.307928196,1,0,0,0.4659,submitButton,-0.250040792,-0.418508572,0,0,0,0,3,3,27,1,43,67609,2,180,2022-02-19_21h52.48.425,orientation adjustment 2,2021.2.3,MacIntel,60.04202942,,,,,,,
,,,,,,,,,,,,,,,,,,,,,,-47.77777778,-29,20,75,47.22222222,76.22222222,60.97777778,-58.02222222,-0.163396878,-0.399427829,1,0,0,4.1148,submitButton,-0.161474067,-0.399983385,0,0,0,0,4,4,13,1,29,67609,2,180,2022-02-19_21h52.48.425,orientation adjustment 2,2021.2.3,MacIntel,60.04202942,,,,,,,
,,,,,,,,,,,,,,,,,,,,,,-56.11111111,40,20,75,37.88888889,2.111111111,0.844444444,-50.84444444,0.204927368,-0.292539808,1,0,0,1.5659,submitButton,-0.322960069,-0.409356757,0,0,0,0,5,5,24,1,40,67609,2,180,2022-02-19_21h52.48.425,orientation adjustment 2,2021.2.3,MacIntel,60.04202942,,,,,,,
,,,,,,,,,,,,,,,,,,,,,,63.88888889,-21,20,75,46.88888889,67.88888889,54.31111111,-56.68888889,0.20196072,-0.305103488,1,0,0,1.9651,submitButton,0.315791829,-0.24231703,0,0,0,0,6,6,5,1,21,67609,2,180,2022-02-19_21h52.48.425,orientation adjustment 2,2021.2.3,MacIntel,60.04202942,,,,,,,
,,,,,,,,,,,,,,,,,,,,,,-33.33333333,20,20,75,38.66666667,18.66666667,12.13333333,-57.86666667,0.187335137,-0.291152344,1,0,0,0.1997,submitButton,0.114816284,-0.318435059,0,0,0,0,7,7,4,1,20,67609,2,180,2022-02-19_21h52.48.425,orientation adjustment 2,2021.2.3,MacIntel,60.04202942,,,,,,,
,,,,,,,,,,,,,,,,,,,,,,-29.44444444,-57,20,75,-136.4444444,79.44444444,63.55555556,-210.5555556,0.41041748,-0.296694878,1,0,0,4.5806,submitButton,-0.137349989,-0.385163235,0,0,0,0,8,8,41,1,57,67609,2,180,2022-02-19_21h52.48.425,orientation adjustment 2,2021.2.3,MacIntel,60.04202942,,,,,,,
,,,,,,,,,,,,,,,,,,,,,,37.77777778,-71,20,75,-114.2222222,43.22222222,34.57777778,-195.5777778,0.401138916,-0.309016452,1,0,0,1.6321,submitButton,-0.262058512,-0.381004367,0,0,0,0,9,9,55,1,71,67609,2,180,2022-02-19_21h52.48.425,orientation adjustment 2,2021.2.3,MacIntel,60.04202942,,,,,,,
,,,,,,,,,,,,,,,,,,,,,,52.77777778,36,20,75,118.7777778,82.77777778,66.22222222,12.22222222,-0.140696343,-0.390855645,1,0,0,1.0817,submitButton,0.291246745,-0.23598348,0,0,0,0,10,10,20,1,36,67609,2,180,2022-02-19_21h52.48.425,orientation adjustment 2,2021.2.3,MacIntel,60.04202942,,,,,,,
,,,,,,,,,,,,,,,,,,,,,,38.33333333,-60,20,75,-151.6666667,88.33333333,70.66666667,-220.6666667,0.409065891,-0.286634521,1,0,0,0.15,submitButton,-0.213769938,-0.404651015,0,0,0,0,11,11,44,1,60,67609,2,180,2022-02-19_21h52.48.425,orientation adjustment 2,2021.2.3,MacIntel,60.04202942,,,,,,,
,,,,,,,,,,,,,,,,,,,,,,-38.88888889,33,20,75,-53.88888889,86.88888889,69.51111111,-126.5111111,0.383305122,-0.311445652,1,0,0,3.9308,submitButton,-0.264047173,-0.41625902,0,0,0,0,12,12,17,1,33,67609,2,180,2022-02-19_21h52.48.425,orientation adjustment 2,2021.2.3,MacIntel,60.04202942,,,,,,,
,,,,,,,,,,,,,,,,,,,,,,-66.66666667,18,20,75,37.33333333,19.33333333,12.56666667,-59.43333333,0.195273777,-0.31264601,1,0,0,2.2816,submitButton,0.260024889,-0.1863876,0,0,0,0,13,13,2,1,18,67609,2,180,2022-02-19_21h52.48.425,orientation adjustment 2,2021.2.3,MacIntel,60.04202942,,,,,,,
,,,,,,,,,,,,,,,,,,,,,,46.66666667,70,20,75,200.6666667,49.33333333,39.46666667,19.46666667,0.179649048,-0.29608351,1,0,0,0.1181,submitButton,0.329231567,-0.400208944,1,0,0,0,14,14,54,1,70,67609,2,180,2022-02-19_21h52.48.425,orientation adjustment 2,2021.2.3,MacIntel,60.04202942,pause_continueButton,,,,,,
,,,,,,,,,,,,,,,,,,,,,,58.88888889,-28,20,75,6.888888889,34.88888889,27.91111111,-90.08888889,0.402129178,-0.30296346,1,0,0,0.2643,submitButton,0.112272407,-0.233604194,0,0,0,0,15,15,12,1,28,67609,2,180,2022-02-19_21h52.48.425,orientation adjustment 2,2021.2.3,MacIntel,60.04202942,,,,,,,
,,,,,,,,,,,,,,,,,,,,,,-55.55555556,35,20,75,15.44444444,19.55555556,12.71111111,-67.71111111,0.213419732,-0.312095473,1,0,0,1.0143,submitButton,0.056378174,-0.211139594,0,0,0,0,16,16,19,1,35,67609,2,180,2022-02-19_21h52.48.425,orientation adjustment 2,2021.2.3,MacIntel,60.04202942,,,,,,,
,,,,,,,,,,,,,,,,,,,,,,-27.22222222,-46,20,75,-153.2222222,72.77777778,58.22222222,-194.2222222,-0.169898817,-0.415295207,1,0,0,1.9659,submitButton,0.181705933,-0.196349555,0,0,0,0,17,17,30,1,46,67609,2,180,2022-02-19_21h52.48.425,orientation adjustment 2,2021.2.3,MacIntel,60.04202942,,,,,,,
,,,,,,,,,,,,,,,,,,,,,,-23.88888889,68,20,75,118.1111111,50.11111111,40.08888889,18.08888889,-0.171644423,-0.418842909,1,0,0,2.0981,submitButton,-0.171644423,-0.417176242,0,0,0,0,18,18,52,1,68,67609,2,180,2022-02-19_21h52.48.425,orientation adjustment 2,2021.2.3,MacIntel,60.04202942,,,,,,,
,,,,,,,,,,,,,,,,,,,,,,-21.11111111,-22,20,75,-104.1111111,82.11111111,65.68888889,-177.6888889,0.414759793,-0.302812093,1,0,0,0.217,submitButton,-0.252297058,-0.416667548,0,0,0,0,19,19,6,1,22,67609,2,180,2022-02-19_21h52.48.425,orientation adjustment 2,2021.2.3,MacIntel,60.04202942,,,,,,,
,,,,,,,,,,,,,,,,,,,,,,70,59,20,75,152,87,69.6,38.6,-0.216251899,-0.428722399,1,0,0,0.7972,submitButton,0.086443956,-0.268129408,0,0,0,0,20,20,43,1,59,67609,2,180,2022-02-19_21h52.48.425,orientation adjustment 2,2021.2.3,MacIntel,60.04202942,,,,,,,
,,,,,,,,,,,,,,,,,,,,,,60,-65,20,75,-130,65,52,-207,0.427535807,-0.301151191,1,0,0,2.1165,submitButton,-0.139060872,-0.411212497,0,0,0,0,21,21,49,1,65,67609,2,180,2022-02-19_21h52.48.425,orientation adjustment 2,2021.2.3,MacIntel,60.04202942,,,,,,,
,,,,,,,,,,,,,,,,,,,,,,-57.77777778,-61,20,75,-57.77777778,3.222222222,1.288888889,-149.7111111,0.401490343,-0.311311849,1,0,0,0.0315,submitButton,0.306344469,-0.242941488,0,0,0,0,22,22,45,1,61,67609,2,180,2022-02-19_21h52.48.425,orientation adjustment 2,2021.2.3,MacIntel,60.04202942,,,,,,,
,,,,,,,,,,,,,,,,,,,,,,67.22222222,62,20,75,116.2222222,54.22222222,43.37777778,15.37777778,0.404216309,-0.282348633,1,0,0,0.3171,submitButton,-0.155828044,-0.402828979,0,0,0,0,23,23,46,1,62,67609,2,180,2022-02-19_21h52.48.425,orientation adjustment 2,2021.2.3,MacIntel,60.04202942,,,,,,,
,,,,,,,,,,,,,,,,,,,,,,39.44444444,74,20,75,56.44444444,17.55555556,11.41111111,-27.41111111,0.431572537,-0.285315416,1,0,0,0.2167,submitButton,-0.130236545,-0.39501024,0,0,0,0,24,24,58,1,74,67609,2,180,2022-02-19_21h52.48.425,orientation adjustment 2,2021.2.3,MacIntel,60.04202942,,,,,,,
,,,,,,,,,,,,,,,,,,,,,,38.88888889,-72,20,75,-109.1111111,37.11111111,29.68888889,-191.6888889,0.408509657,-0.317651571,1,0,0,0.033,submitButton,0.456553277,-0.313426581,0,0,0,0,25,25,56,1,72,67609,2,180,2022-02-19_21h52.48.425,orientation adjustment 2,2021.2.3,MacIntel,60.04202942,,,,,,,
,,,,,,,,,,,,,,,,,,,,,,-47.77777778,44,20,75,-60.77777778,75.22222222,60.17777778,-106.1777778,0.452525363,-0.313057658,1,0,0,0.0348,submitButton,-0.115974731,-0.403515489,0,0,0,0,26,26,28,1,44,67609,2,180,2022-02-19_21h52.48.425,orientation adjustment 2,2021.2.3,MacIntel,60.04202942,,,,,,,
,,,,,,,,,,,,,,,,,,,,,,45,-69,20,75,46,65,52,-107,0.192594062,-0.315901896,1,0,0,0.5175,submitButton,-0.313499552,-0.407552287,0,0,0,0,27,27,53,1,69,67609,2,180,2022-02-19_21h52.48.425,orientation adjustment 2,2021.2.3,MacIntel,60.04202942,,,,,,,
,,,,,,,,,,,,,,,,,,,,,,37.22222222,38,20,75,121.2222222,83.22222222,66.57777778,14.57777778,0.408793945,-0.285371297,1,0,0,0.7328,submitButton,-0.106242608,-0.407092828,0,0,0,0,28,28,22,1,38,67609,2,180,2022-02-19_21h52.48.425,orientation adjustment 2,2021.2.3,MacIntel,60.04202942,,,,,,,
,,,,,,,,,,,,,,,,,,,,,,-53.33333333,64,20,75,42.66666667,21.33333333,13.86666667,-39.86666667,0.20469713,-0.322240262,1,0,0,0.0503,submitButton,0.256179606,-0.400270318,1,0,0,0,29,29,48,1,64,67609,2,180,2022-02-19_21h52.48.425,orientation adjustment 2,2021.2.3,MacIntel,60.04202942,pause_continueButton,,,,,,
,,,,,,,,,,,,,,,,,,,,,,-45,49,20,75,48,1,0.4,-41.4,0.168440348,-0.314561971,1,0,0,0.016,submitButton,-0.301501397,-0.427628649,0,0,0,0,30,30,33,1,49,67609,2,180,2022-02-19_21h52.48.425,orientation adjustment 2,2021.2.3,MacIntel,60.04202942,,,,,,,
,,,,,,,,,,,,,,,,,,,,,,-56.11111111,-63,20,75,-130.1111111,67.11111111,53.68888889,-206.6888889,0.414365777,-0.302459513,1,0,0,0.1165,submitButton,0.14857978,-0.249428779,0,0,0,0,31,31,47,1,63,67609,2,180,2022-02-19_21h52.48.425,orientation adjustment 2,2021.2.3,MacIntel,60.04202942,,,,,,,
,,,,,,,,,,,,,,,,,,,,,,35,67,20,75,128,61,48.8,25.8,0.136459283,-0.302103,1,0,0,0.6158,submitButton,0.24889072,-0.249335666,0,0,0,0,32,32,51,1,67,67609,2,180,2022-02-19_21h52.48.425,orientation adjustment 2,2021.2.3,MacIntel,60.04202942,,,,,,,
,,,,,,,,,,,,,,,,,,,,,,-39.44444444,24,20,75,-117.4444444,38.55555556,30.84444444,-96.84444444,0.406939426,-0.30064704,1,0,0,0.383,submitButton,0.275285848,-0.213612264,0,0,0,0,33,33,8,1,24,67609,2,180,2022-02-19_21h52.48.425,orientation adjustment 2,2021.2.3,MacIntel,60.04202942,,,,,,,
,,,,,,,,,,,,,,,,,,,,,,-47.77777778,73,20,75,40.22222222,32.77777778,26.22222222,-43.22222222,0.167489421,-0.315673964,1,0,0,1.2826,submitButton,0.308446994,-0.183903741,0,0,0,0,34,34,57,1,73,67609,2,180,2022-02-19_21h52.48.425,orientation adjustment 2,2021.2.3,MacIntel,60.04202942,,,,,,,
,,,,,,,,,,,,,,,,,,,,,,54.44444444,75,20,75,66.44444444,8.555555556,3.422222222,-18.42222222,0.426337891,-0.291373901,1,0,0,0.1172,submitButton,-0.168730672,-0.411944444,0,0,0,0,35,35,59,1,75,67609,2,180,2022-02-19_21h52.48.425,orientation adjustment 2,2021.2.3,MacIntel,60.04202942,,,,,,,
,,,,,,,,,,,,,,,,,,,,,,36.66666667,-31,20,75,57.66666667,88.66666667,70.93333333,-50.06666667,0.185782132,-0.33046346,1,0,0,0.6502,submitButton,-0.134243842,-0.405039876,0,0,0,0,36,36,15,1,31,67609,2,180,2022-02-19_21h52.48.425,orientation adjustment 2,2021.2.3,MacIntel,60.04202942,,,,,,,
,,,,,,,,,,,,,,,,,,,,,,-28.33333333,-53,20,75,-50.33333333,2.666666667,1.066666667,-141.9333333,0.42305447,-0.297837118,1,0,0,0.4167,submitButton,-0.121058892,-0.400108371,0,0,0,0,37,37,37,1,53,67609,2,180,2022-02-19_21h52.48.425,orientation adjustment 2,2021.2.3,MacIntel,60.04202942,,,,,,,
,,,,,,,,,,,,,,,,,,,,,,47.22222222,17,20,75,64.22222222,47.22222222,37.77777778,-35.22222222,-0.349958293,-0.358386841,1,0,0,5.4118,submitButton,0.28107822,-0.202602946,0,0,0,0,38,38,1,1,17,67609,2,180,2022-02-19_21h52.48.425,orientation adjustment 2,2021.2.3,MacIntel,60.04202942,,,,,,,
,,,,,,,,,,,,,,,,,,,,,,41.66666667,39,20,75,37.66666667,1.333333333,0.533333333,-51.53333333,0.415367567,-0.317433607,1,0,0,2.6308,submitButton,0.181860352,-0.191518623,0,0,0,0,39,39,23,1,39,67609,2,180,2022-02-19_21h52.48.425,orientation adjustment 2,2021.2.3,MacIntel,60.04202942,,,,,,,
,,,,,,,,,,,,,,,,,,,,,,-20.55555556,19,20,75,43.44444444,24.44444444,15.88888889,-55.11111111,0.186363322,-0.30096917,1,0,0,0.1837,submitButton,-0.124371745,-0.408861627,0,0,0,0,40,40,3,1,19,67609,2,180,2022-02-19_21h52.48.425,orientation adjustment 2,2021.2.3,MacIntel,60.04202942,,,,,,,
,,,,,,,,,,,,,,,,,,,,,,-66.66666667,-16,20,75,3.333333333,19.33333333,12.56666667,-93.43333333,0.223722941,-0.304776476,1,0,0,2.4974,submitButton,-0.194963921,-0.411937663,0,0,0,0,41,41,0,1,16,67609,2,180,2022-02-19_21h52.48.425,orientation adjustment 2,2021.2.3,MacIntel,60.04202942,,,,,,,
,,,,,,,,,,,,,,,,,,,,,,-68.33333333,-32,20,75,-169.3333333,42.66666667,34.13333333,-156.1333333,0.371620416,-0.295206028,1,0,0,0.0511,submitButton,0.078828396,-0.228424479,0,0,0,0,42,42,16,1,32,67609,2,180,2022-02-19_21h52.48.425,orientation adjustment 2,2021.2.3,MacIntel,60.04202942,,,,,,,
,,,,,,,,,,,,,,,,,,,,,,-69.44444444,27,20,75,30.55555556,3.555555556,1.422222222,-61.57777778,0.169635281,-0.324940186,1,0,0,0.6671,submitButton,0.309394057,-0.331826918,0,0,0,0,43,43,11,1,27,67609,2,180,2022-02-19_21h52.48.425,orientation adjustment 2,2021.2.3,MacIntel,60.04202942,,,,,,,
,,,,,,,,,,,,,,,,,,,,,,50.55555556,42,20,75,199.5555556,22.44444444,14.58888889,-33.41111111,0.228560655,-0.307332018,1,0,0,0.1144,submitButton,0.531413574,-0.382198758,1,0,0,0,44,44,26,1,42,67609,2,180,2022-02-19_21h52.48.425,orientation adjustment 2,2021.2.3,MacIntel,60.04202942,pause_continueButton,,,,,,
,,,,,,,,,,,,,,,,,,,,,,43.88888889,54,20,75,60.88888889,6.888888889,2.755555556,-33.24444444,0.424749891,-0.292871026,1,0,0,0.684,submitButton,-0.053222724,-0.32156935,0,0,0,0,45,45,38,1,54,67609,2,180,2022-02-19_21h52.48.425,orientation adjustment 2,2021.2.3,MacIntel,60.04202942,,,,,,,
,,,,,,,,,,,,,,,,,,,,,,56.11111111,50,20,75,77.11111111,27.11111111,17.62222222,-22.37777778,0.384690213,-0.30584927,1,0,0,0.3344,submitButton,-0.296825697,-0.386160414,0,0,0,0,46,46,34,1,50,67609,2,180,2022-02-19_21h52.48.425,orientation adjustment 2,2021.2.3,MacIntel,60.04202942,,,,,,,
,,,,,,,,,,,,,,,,,,,,,,73.88888889,-56,20,75,-41.11111111,14.88888889,5.955555556,-140.0444444,0.396268446,-0.324011909,1,0,0,1.0169,submitButton,0.040871582,-0.274267442,0,0,0,0,47,47,40,1,56,67609,2,180,2022-02-19_21h52.48.425,orientation adjustment 2,2021.2.3,MacIntel,60.04202942,,,,,,,
,,,,,,,,,,,,,,,,,,,,,,-48.33333333,58,20,75,46.66666667,11.33333333,4.533333333,-36.53333333,0.143022122,-0.306371528,1,0,0,0.232,submitButton,-0.200187853,-0.410226712,0,0,0,0,48,48,42,1,58,67609,2,180,2022-02-19_21h52.48.425,orientation adjustment 2,2021.2.3,MacIntel,60.04202942,,,,,,,
,,,,,,,,,,,,,,,,,,,,,,-52.77777778,26,20,75,35.22222222,9.222222222,3.688888889,-60.31111111,0.228795912,-0.303748711,1,0,0,0.066,submitButton,-0.158162503,-0.386611192,0,0,0,0,49,49,10,1,26,67609,2,180,2022-02-19_21h52.48.425,orientation adjustment 2,2021.2.3,MacIntel,60.04202942,,,,,,,
,,,,,,,,,,,,,,,,,,,,,,-57.22222222,37,20,75,60.77777778,23.77777778,15.45555556,-37.54444444,-0.212580973,-0.408784383,1,0,0,1.7819,submitButton,-0.212580973,-0.409339939,0,0,0,0,50,50,21,1,37,67609,2,180,2022-02-19_21h52.48.425,orientation adjustment 2,2021.2.3,MacIntel,60.04202942,,,,,,,
,,,,,,,,,,,,,,,,,,,,,,20,45,20,75,40,5,2,-47,0.432026367,-0.330895114,1,0,0,0.2326,submitButton,-0.284146118,-0.395701294,0,0,0,0,51,51,29,1,45,67609,2,180,2022-02-19_21h52.48.425,orientation adjustment 2,2021.2.3,MacIntel,60.04202942,,,,,,,
,,,,,,,,,,,,,,,,,,,,,,-66.11111111,-41,20,75,-224.1111111,3.111111111,1.244444444,-132.2444444,0.393542752,-0.30108134,1,0,0,0.1998,submitButton,0.086291572,-0.235191786,0,0,0,0,52,52,25,1,41,67609,2,180,2022-02-19_21h52.48.425,orientation adjustment 2,2021.2.3,MacIntel,60.04202942,,,,,,,
,,,,,,,,,,,,,,,,,,,,,,35,47,20,75,46,1,0.4,-43.4,0.446443007,-0.296743639,1,0,0,0.1491,submitButton,-0.128215264,-0.418370226,0,0,0,0,53,53,31,1,47,67609,2,180,2022-02-19_21h52.48.425,orientation adjustment 2,2021.2.3,MacIntel,60.04202942,,,,,,,
,,,,,,,,,,,,,,,,,,,,,,-50.55555556,51,20,75,50.44444444,0.555555556,0.222222222,-39.22222222,0.222751736,-0.322775879,1,0,0,0.0324,submitButton,0.093120321,-0.191746691,0,0,0,0,54,54,35,1,51,67609,2,180,2022-02-19_21h52.48.425,orientation adjustment 2,2021.2.3,MacIntel,60.04202942,,,,,,,
,,,,,,,,,,,,,,,,,,,,,,36.66666667,52,20,75,39.66666667,12.33333333,4.933333333,-42.93333333,0.405832926,-0.285369737,1,0,0,0.6648,submitButton,-0.131574368,-0.39762363,0,0,0,0,55,55,36,1,52,67609,2,180,2022-02-19_21h52.48.425,orientation adjustment 2,2021.2.3,MacIntel,60.04202942,,,,,,,
,,,,,,,,,,,,,,,,,,,,,,-28.88888889,-34,20,75,-33.88888889,0.111111111,0.044444444,-123.9555556,0.422435574,-0.304473063,1,0,0,0.1993,submitButton,0.10381741,-0.258212416,0,0,0,0,56,56,18,1,34,67609,2,180,2022-02-19_21h52.48.425,orientation adjustment 2,2021.2.3,MacIntel,60.04202942,,,,,,,
,,,,,,,,,,,,,,,,,,,,,,34.44444444,-23,20,75,-33.55555556,10.55555556,4.222222222,-117.2222222,0.430559353,-0.311720717,1,0,0,0.1163,submitButton,-0.108928969,-0.406857232,0,0,0,0,57,57,7,1,23,67609,2,180,2022-02-19_21h52.48.425,orientation adjustment 2,2021.2.3,MacIntel,60.04202942,,,,,,,
,,,,,,,,,,,,,,,,,,,,,,-35.55555556,55,20,75,-37.55555556,87.44444444,69.95555556,-104.9555556,0.421890055,-0.291527507,1,0,0,0.1985,submitButton,0.150961778,-0.143096042,0,0,0,0,58,58,39,1,55,67609,2,180,2022-02-19_21h52.48.425,orientation adjustment 2,2021.2.3,MacIntel,60.04202942,,,,,,,
,,,,,,,,,,,,,,,,,,,,,,33.33333333,66,20,75,61.33333333,4.666666667,1.866666667,-25.86666667,0.41533705,-0.292903442,1,0,0,0.2501,submitButton,0.373965929,-0.405886841,1,0,0,0,59,59,50,1,66,67609,2,180,2022-02-19_21h52.48.425,orientation adjustment 2,2021.2.3,MacIntel,60.04202942,pause_continueButton,,,,,,
,,,,,,,,,,,,,,,,,,,,,,61.66666667,36,20,75,68.66666667,32.66666667,26.13333333,-27.86666667,-0.11936598,-0.38673645,1,0,0,0.9335,submitButton,0.200711399,-0.277868991,0,0,0,1,0,60,20,1,36,67609,2,180,2022-02-19_21h52.48.425,orientation adjustment 2,2021.2.3,MacIntel,60.04202942,,,,,,,
,,,,,,,,,,,,,,,,,,,,,,56.11111111,49,20,75,56.11111111,7.111111111,2.844444444,-38.15555556,0.429145237,-0.280046929,1,0,0,0.4164,submitButton,0.234927639,-0.234915161,0,0,0,1,1,61,33,1,49,67609,2,180,2022-02-19_21h52.48.425,orientation adjustment 2,2021.2.3,MacIntel,60.04202942,,,,,,,
,,,,,,,,,,,,,,,,,,,,,,56.66666667,22,20,75,46.66666667,24.66666667,16.03333333,-51.96666667,0.386892225,-0.293520237,1,0,0,0.0663,submitButton,-0.216719293,-0.395963135,0,0,0,1,2,62,6,1,22,67609,2,180,2022-02-19_21h52.48.425,orientation adjustment 2,2021.2.3,MacIntel,60.04202942,,,,,,,
,,,,,,,,,,,,,,,,,,,,,,43.33333333,-18,20,75,-5.666666667,12.33333333,4.933333333,-103.0666667,0.414451497,-0.325643717,1,0,0,0.2342,submitButton,0.289890137,-0.205082737,0,0,0,1,3,63,2,1,18,67609,2,180,2022-02-19_21h52.48.425,orientation adjustment 2,2021.2.3,MacIntel,60.04202942,,,,,,,
,,,,,,,,,,,,,,,,,,,,,,-36.66666667,30,20,75,42.33333333,12.33333333,4.933333333,-55.06666667,0.182559475,-0.279677124,1,0,0,0.8155,submitButton,0.255262722,-0.141570977,0,0,0,1,4,64,14,1,30,67609,2,180,2022-02-19_21h52.48.425,orientation adjustment 2,2021.2.3,MacIntel,60.04202942,,,,,,,
,,,,,,,,,,,,,,,,,,,,,,-38.88888889,-62,20,75,-204.8888889,37.11111111,29.68888889,-181.6888889,0.376887614,-0.291432359,1,0,0,0.017,submitButton,-0.22044298,-0.35820577,0,0,0,1,5,65,46,1,62,67609,2,180,2022-02-19_21h52.48.425,orientation adjustment 2,2021.2.3,MacIntel,60.04202942,,,,,,,
,,,,,,,,,,,,,,,,,,,,,,-43.33333333,-55,20,75,-227.3333333,7.666666667,3.066666667,-148.0666667,0.441289741,-0.294673665,1,0,0,0.2825,submitButton,-0.12520223,-0.384086914,0,0,0,1,6,66,39,1,55,67609,2,180,2022-02-19_21h52.48.425,orientation adjustment 2,2021.2.3,MacIntel,60.04202942,,,,,,,
,,,,,,,,,,,,,,,,,,,,,,-33.33333333,-51,20,75,-41.33333333,9.666666667,3.866666667,-137.1333333,0.211275431,-0.292866211,1,0,0,0.2166,submitButton,-0.16218065,-0.372880046,0,0,0,1,7,67,35,1,51,67609,2,180,2022-02-19_21h52.48.425,orientation adjustment 2,2021.2.3,MacIntel,60.04202942,,,,,,,
,,,,,,,,,,,,,,,,,,,,,,58.33333333,52,20,75,232.3333333,0.333333333,0.133333333,-37.86666667,0.176132134,-0.315185954,1,0,0,0.2168,submitButton,0.126573079,-0.178573812,0,0,0,1,8,68,36,1,52,67609,2,180,2022-02-19_21h52.48.425,orientation adjustment 2,2021.2.3,MacIntel,60.04202942,,,,,,,
,,,,,,,,,,,,,,,,,,,,,,-39.44444444,-29,20,75,55.55555556,84.55555556,67.64444444,-51.35555556,0.159777222,-0.293341607,1,0,0,1.3492,submitButton,-0.26175059,-0.408038127,0,0,0,1,9,69,13,1,29,67609,2,180,2022-02-19_21h52.48.425,orientation adjustment 2,2021.2.3,MacIntel,60.04202942,,,,,,,
,,,,,,,,,,,,,,,,,,,,,,58.33333333,54,20,75,222.3333333,11.66666667,4.666666667,-31.33333333,0.216794027,-0.320949164,1,0,0,1.0505,submitButton,-0.213355849,-0.411691216,0,0,0,1,10,70,38,1,54,67609,2,180,2022-02-19_21h52.48.425,orientation adjustment 2,2021.2.3,MacIntel,60.04202942,,,,,,,
,,,,,,,,,,,,,,,,,,,,,,67.22222222,34,20,75,198.2222222,15.77777778,10.25555556,-45.74444444,0.198171929,-0.337872247,1,0,0,0.5834,submitButton,-0.212774794,-0.399270359,0,0,0,1,11,71,18,1,34,67609,2,180,2022-02-19_21h52.48.425,orientation adjustment 2,2021.2.3,MacIntel,60.04202942,,,,,,,
,,,,,,,,,,,,,,,,,,,,,,-63.88888889,-45,20,75,-219.8888889,5.111111111,2.044444444,-137.0444444,0.37903361,-0.318554145,1,0,0,2.5662,submitButton,-0.264367371,-0.401950345,0,0,0,1,12,72,29,1,45,67609,2,180,2022-02-19_21h52.48.425,orientation adjustment 2,2021.2.3,MacIntel,60.04202942,,,,,,,
,,,,,,,,,,,,,,,,,,,,,,36.11111111,-33,20,75,-20.88888889,12.11111111,4.844444444,-118.1555556,0.385253906,-0.294898614,1,0,0,0.6342,submitButton,-0.300730726,-0.420293376,0,0,0,1,13,73,17,1,33,67609,2,180,2022-02-19_21h52.48.425,orientation adjustment 2,2021.2.3,MacIntel,60.04202942,,,,,,,
,,,,,,,,,,,,,,,,,,,,,,-20,74,20,75,19,55,44,-60,0.41657864,-0.312119073,1,0,0,0.1175,submitButton,0.238317464,-0.399371541,1,0,0,1,14,74,58,1,74,67609,2,180,2022-02-19_21h52.48.425,orientation adjustment 2,2021.2.3,MacIntel,60.04202942,pause_continueButton,,,,,,
,,,,,,,,,,,,,,,,,,,,,,34.44444444,-56,20,75,-44.55555556,11.44444444,4.577777778,-141.4222222,0.398601074,-0.26150906,1,0,0,0.0994,submitButton,0.114960937,-0.181411743,0,0,0,1,15,75,40,1,56,67609,2,180,2022-02-19_21h52.48.425,orientation adjustment 2,2021.2.3,MacIntel,60.04202942,,,,,,,
,,,,,,,,,,,,,,,,,,,,,,69.44444444,23,20,75,206.4444444,3.444444444,1.377777778,-65.62222222,-0.184790785,-0.39862047,1,0,0,2.5986,submitButton,0.533387316,-0.178454115,0,0,0,1,16,76,7,1,23,67609,2,180,2022-02-19_21h52.48.425,orientation adjustment 2,2021.2.3,MacIntel,60.04202942,,,,,,,
,,,,,,,,,,,,,,,,,,,,,,70.55555556,46,20,75,218.5555556,7.444444444,2.977777778,-41.02222222,-0.183733995,-0.408029243,1,0,0,2.332,submitButton,0.470764703,-0.21094279,0,0,0,1,17,77,30,1,46,67609,2,180,2022-02-19_21h52.48.425,orientation adjustment 2,2021.2.3,MacIntel,60.04202942,,,,,,,
,,,,,,,,,,,,,,,,,,,,,,-21.66666667,35,20,75,50.33333333,15.33333333,9.966666667,-45.03333333,-0.206121284,-0.437980889,1,0,0,0.9155,submitButton,-0.206121284,-0.424580146,0,0,0,1,18,78,19,1,35,67609,2,180,2022-02-19_21h52.48.425,orientation adjustment 2,2021.2.3,MacIntel,60.04202942,,,,,,,
,,,,,,,,,,,,,,,,,,,,,,-67.22222222,-67,20,75,-252.2222222,5.222222222,2.088888889,-159.0888889,0.382979465,-0.309136149,1,0,0,0.0158,submitButton,0.001446669,-0.279731242,0,0,0,1,19,79,51,1,67,67609,2,180,2022-02-19_21h52.48.425,orientation adjustment 2,2021.2.3,MacIntel,60.04202942,,,,,,,
,,,,,,,,,,,,,,,,,,,,,,40.55555556,-60,20,75,-51.44444444,8.555555556,3.422222222,-146.5777778,0.15861145,-0.344997016,1,0,0,1.6495,submitButton,0.366740994,-0.259785631,0,0,0,1,20,80,44,1,60,67609,2,180,2022-02-19_21h52.48.425,orientation adjustment 2,2021.2.3,MacIntel,60.04202942,,,,,,,
,,,,,,,,,,,,,,,,,,,,,,-42.77777778,66,20,75,-50.77777778,63.22222222,50.57777778,-74.57777778,0.390209147,-0.29661594,1,0,0,0.8676,submitButton,0.011476644,-0.342407023,0,0,0,1,21,81,50,1,66,67609,2,180,2022-02-19_21h52.48.425,orientation adjustment 2,2021.2.3,MacIntel,60.04202942,,,,,,,
,,,,,,,,,,,,,,,,,,,,,,71.11111111,32,20,75,218.1111111,6.111111111,2.444444444,-55.55555556,0.213976373,-0.325136719,1,0,0,0.1994,submitButton,0.215649414,-0.236644694,0,0,0,1,22,82,16,1,32,67609,2,180,2022-02-19_21h52.48.425,orientation adjustment 2,2021.2.3,MacIntel,60.04202942,,,,,,,
,,,,,,,,,,,,,,,,,,,,,,-33.33333333,-19,20,75,55.66666667,74.66666667,59.73333333,-49.26666667,0.185350274,-0.291046414,1,0,0,0.415,submitButton,-0.191591865,-0.377221408,0,0,0,1,23,83,3,1,19,67609,2,180,2022-02-19_21h52.48.425,orientation adjustment 2,2021.2.3,MacIntel,60.04202942,,,,,,,
,,,,,,,,,,,,,,,,,,,,,,33.33333333,-72,20,75,-129.6666667,57.66666667,46.13333333,-208.1333333,0.396258274,-0.313795505,1,0,0,1.4817,submitButton,-0.234531759,-0.400002984,0,0,0,1,24,84,56,1,72,67609,2,180,2022-02-19_21h52.48.425,orientation adjustment 2,2021.2.3,MacIntel,60.04202942,,,,,,,
,,,,,,,,,,,,,,,,,,,,,,-54.44444444,17,20,75,-144.4444444,18.55555556,12.06111111,-85.06111111,0.425087077,-0.298711616,1,0,0,0.1502,submitButton,-0.11828776,-0.39208313,0,0,0,1,25,85,1,1,17,67609,2,180,2022-02-19_21h52.48.425,orientation adjustment 2,2021.2.3,MacIntel,60.04202942,,,,,,,
,,,,,,,,,,,,,,,,,,,,,,-62.22222222,65,20,75,34.77777778,30.22222222,24.17777778,-49.17777778,0.183258124,-0.310328234,1,0,0,0.3666,submitButton,-0.192948269,-0.408888957,0,0,0,1,26,86,49,1,65,67609,2,180,2022-02-19_21h52.48.425,orientation adjustment 2,2021.2.3,MacIntel,60.04202942,,,,,,,
,,,,,,,,,,,,,,,,,,,,,,48.33333333,-39,20,75,-0.666666667,38.33333333,30.66666667,-98.33333333,-0.103250529,-0.359138862,1,0,0,0.4988,submitButton,-0.117437134,-0.398667128,0,0,0,1,27,87,23,1,39,67609,2,180,2022-02-19_21h52.48.425,orientation adjustment 2,2021.2.3,MacIntel,60.04202942,,,,,,,
,,,,,,,,,,,,,,,,,,,,,,-21.11111111,69,20,75,5.888888889,63.11111111,50.48888889,-71.48888889,-0.173180542,-0.395643311,1,0,0,0.9672,submitButton,0.213317464,-0.224365099,0,0,0,1,28,88,53,1,69,67609,2,180,2022-02-19_21h52.48.425,orientation adjustment 2,2021.2.3,MacIntel,60.04202942,,,,,,,
,,,,,,,,,,,,,,,,,,,,,,48.33333333,24,20,75,19.33333333,4.666666667,1.866666667,-67.86666667,-0.222733561,-0.395312839,1,0,0,1.3974,submitButton,0.270311211,-0.388234999,1,0,0,1,29,89,8,1,24,67609,2,180,2022-02-19_21h52.48.425,orientation adjustment 2,2021.2.3,MacIntel,60.04202942,pause_continueButton,,,,,,
,,,,,,,,,,,,,,,,,,,,,,44.44444444,16,20,75,30.44444444,14.44444444,5.777777778,-68.22222222,0.362513428,-0.299943102,1,0,0,0.066,submitButton,0.291602851,-0.247817518,0,0,0,1,30,90,0,1,16,67609,2,180,2022-02-19_21h52.48.425,orientation adjustment 2,2021.2.3,MacIntel,60.04202942,,,,,,,
,,,,,,,,,,,,,,,,,,,,,,-35.55555556,-43,20,75,-154.5555556,68.44444444,54.75555556,-187.7555556,0.459273546,-0.312026503,1,0,0,1.4324,submitButton,0.177460666,-0.244294637,0,0,0,1,31,91,27,1,43,67609,2,180,2022-02-19_21h52.48.425,orientation adjustment 2,2021.2.3,MacIntel,60.04202942,,,,,,,
,,,,,,,,,,,,,,,,,,,,,,-48.33333333,41,20,75,-75.33333333,63.66666667,50.93333333,-99.93333333,0.372812093,-0.268063694,1,0,0,1.1975,submitButton,0.07213718,-0.35039544,0,0,0,1,32,92,25,1,41,67609,2,180,2022-02-19_21h52.48.425,orientation adjustment 2,2021.2.3,MacIntel,60.04202942,,,,,,,
,,,,,,,,,,,,,,,,,,,,,,-31.11111111,25,20,75,34.88888889,9.888888889,3.955555556,-61.04444444,-0.182615085,-0.405251736,1,0,0,1.1822,submitButton,-0.182615085,-0.404696181,0,0,0,1,33,93,9,1,25,67609,2,180,2022-02-19_21h52.48.425,orientation adjustment 2,2021.2.3,MacIntel,60.04202942,,,,,,,
,,,,,,,,,,,,,,,,,,,,,,27.22222222,31,20,75,37.22222222,6.222222222,2.488888889,-56.51111111,0.413175184,-0.320550334,1,0,0,0.0673,submitButton,-0.176869982,-0.392982313,0,0,0,1,34,94,15,1,31,67609,2,180,2022-02-19_21h52.48.425,orientation adjustment 2,2021.2.3,MacIntel,60.04202942,,,,,,,
,,,,,,,,,,,,,,,,,,,,,,58.33333333,40,20,75,212.3333333,7.666666667,3.066666667,-46.93333333,0.186550768,-0.308562961,1,0,0,0.2832,submitButton,0.047881131,-0.209194811,0,0,0,1,35,95,24,1,40,67609,2,180,2022-02-19_21h52.48.425,orientation adjustment 2,2021.2.3,MacIntel,60.04202942,,,,,,,
,,,,,,,,,,,,,,,,,,,,,,-29.44444444,-71,20,75,-145.4444444,74.44444444,59.55555556,-220.5555556,0.340555149,-0.287710571,1,0,0,1.0807,submitButton,0.33391649,-0.308890516,0,0,0,1,36,96,55,1,71,67609,2,180,2022-02-19_21h52.48.425,orientation adjustment 2,2021.2.3,MacIntel,60.04202942,,,,,,,
,,,,,,,,,,,,,,,,,,,,,,32.22222222,64,20,75,39.22222222,24.77777778,16.10555556,-42.10555556,0.43546875,-0.304142931,1,0,0,0.1507,submitButton,-0.136555447,-0.411965061,0,0,0,1,37,97,48,1,64,67609,2,180,2022-02-19_21h52.48.425,orientation adjustment 2,2021.2.3,MacIntel,60.04202942,,,,,,,
,,,,,,,,,,,,,,,,,,,,,,-74.44444444,-38,20,75,-150.4444444,67.55555556,54.04444444,-182.0444444,0.362063666,-0.305787286,1,0,0,0.0984,submitButton,0.286511027,-0.279179959,0,0,0,1,38,98,22,1,38,67609,2,180,2022-02-19_21h52.48.425,orientation adjustment 2,2021.2.3,MacIntel,60.04202942,,,,,,,
,,,,,,,,,,,,,,,,,,,,,,-30.55555556,21,20,75,72.44444444,51.44444444,41.15555556,-27.84444444,0.166643134,-0.287552762,1,0,0,1.733,submitButton,-0.234198676,-0.392340766,0,0,0,1,39,99,5,1,21,67609,2,180,2022-02-19_21h52.48.425,orientation adjustment 2,2021.2.3,MacIntel,60.04202942,,,,,,,
,,,,,,,,,,,,,,,,,,,,,,-37.22222222,42,20,75,48.77777778,6.777777778,2.711111111,-45.28888889,0.18139384,-0.315655382,1,0,0,0.3327,submitButton,-0.217050171,-0.414970771,0,0,0,1,40,100,26,1,42,67609,2,180,2022-02-19_21h52.48.425,orientation adjustment 2,2021.2.3,MacIntel,60.04202942,,,,,,,
,,,,,,,,,,,,,,,,,,,,,,48.88888889,-70,20,75,55.88888889,54.11111111,43.28888889,-116.7111111,0.169772203,-0.369344143,1,0,0,1.6336,submitButton,0.209942898,-0.197321235,0,0,0,1,41,101,54,1,70,67609,2,180,2022-02-19_21h52.48.425,orientation adjustment 2,2021.2.3,MacIntel,60.04202942,,,,,,,
,,,,,,,,,,,,,,,,,,,,,,55.55555556,20,20,75,-35.44444444,55.44444444,44.35555556,-114.3555556,0.469196913,-0.281101956,1,0,0,0.698,submitButton,-0.146957872,-0.399024794,0,0,0,1,42,102,4,1,20,67609,2,180,2022-02-19_21h52.48.425,orientation adjustment 2,2021.2.3,MacIntel,60.04202942,,,,,,,
,,,,,,,,,,,,,,,,,,,,,,-73.88888889,-73,20,75,-215.8888889,37.11111111,29.68888889,-192.6888889,0.418329807,-0.286996053,1,0,0,0.2161,submitButton,-0.140084161,-0.402065294,0,0,0,1,43,103,57,1,73,67609,2,180,2022-02-19_21h52.48.425,orientation adjustment 2,2021.2.3,MacIntel,60.04202942,,,,,,,
,,,,,,,,,,,,,,,,,,,,,,-31.11111111,47,20,75,72.88888889,25.88888889,16.82777778,-26.17222222,0.389253065,-0.31853224,1,0,0,1.2002,submitButton,0.28373664,-0.399085558,1,0,0,1,44,104,31,1,47,67609,2,180,2022-02-19_21h52.48.425,orientation adjustment 2,2021.2.3,MacIntel,60.04202942,pause_continueButton,,,,,,
,,,,,,,,,,,,,,,,,,,,,,-62.77777778,-53,20,75,-134.7777778,81.77777778,65.42222222,-208.4222222,-0.282202657,-0.410655585,1,0,0,1.3161,submitButton,-0.281647102,-0.409544474,0,0,0,1,45,105,37,1,53,67609,2,180,2022-02-19_21h52.48.425,orientation adjustment 2,2021.2.3,MacIntel,60.04202942,,,,,,,
,,,,,,,,,,,,,,,,,,,,,,27.77777778,-27,20,75,40.77777778,67.77777778,54.22222222,-62.77777778,0.207393663,-0.296140272,1,0,0,0.9819,submitButton,-0.289019402,-0.422317437,0,0,0,1,46,106,11,1,27,67609,2,180,2022-02-19_21h52.48.425,orientation adjustment 2,2021.2.3,MacIntel,60.04202942,,,,,,,
,,,,,,,,,,,,,,,,,,,,,,56.11111111,61,20,75,232.1111111,8.888888889,3.555555556,-25.44444444,0.190290392,-0.310927734,1,0,0,0.1503,submitButton,-0.294449124,-0.420344035,0,0,0,1,47,107,45,1,61,67609,2,180,2022-02-19_21h52.48.425,orientation adjustment 2,2021.2.3,MacIntel,60.04202942,,,,,,,
,,,,,,,,,,,,,,,,,,,,,,33.88888889,-63,20,75,55.88888889,61.11111111,48.88888889,-104.1111111,0.193991225,-0.33120714,1,0,0,0.5671,submitButton,-0.187361315,-0.395975206,0,0,0,1,48,108,47,1,63,67609,2,180,2022-02-19_21h52.48.425,orientation adjustment 2,2021.2.3,MacIntel,60.04202942,,,,,,,
,,,,,,,,,,,,,,,,,,,,,,-21.11111111,-75,20,75,-211.1111111,43.88888889,35.11111111,-200.1111111,0.427176921,-0.278745863,1,0,0,0.3156,submitButton,-0.232129517,-0.413406236,0,0,0,1,49,109,59,1,75,67609,2,180,2022-02-19_21h52.48.425,orientation adjustment 2,2021.2.3,MacIntel,60.04202942,,,,,,,
,,,,,,,,,,,,,,,,,,,,,,-62.77777778,68,20,75,62.22222222,5.777777778,2.311111111,-24.31111111,0.168061795,-0.298768446,1,0,0,0.1507,submitButton,-0.272122871,-0.426058078,0,0,0,1,50,110,52,1,68,67609,2,180,2022-02-19_21h52.48.425,orientation adjustment 2,2021.2.3,MacIntel,60.04202942,,,,,,,
,,,,,,,,,,,,,,,,,,,,,,22.77777778,-26,20,75,74.77777778,79.22222222,63.37777778,-52.62222222,0.179057346,-0.324318237,1,0,0,0.6166,submitButton,-0.05677714,-0.14797248,0,0,0,1,51,111,10,1,26,67609,2,180,2022-02-19_21h52.48.425,orientation adjustment 2,2021.2.3,MacIntel,60.04202942,,,,,,,
,,,,,,,,,,,,,,,,,,,,,,-39.44444444,-57,20,75,-143.4444444,86.44444444,69.15555556,-216.1555556,0.379076742,-0.288466322,1,0,0,0.2316,submitButton,-0.225815633,-0.404299655,0,0,0,1,52,112,41,1,57,67609,2,180,2022-02-19_21h52.48.425,orientation adjustment 2,2021.2.3,MacIntel,60.04202942,,,,,,,
,,,,,,,,,,,,,,,,,,,,,,53.33333333,-58,20,75,33.33333333,88.66666667,70.93333333,-77.06666667,0.204016588,-0.290485772,1,0,0,1.3812,submitButton,-0.217906765,-0.378114692,0,0,0,1,53,113,42,1,58,67609,2,180,2022-02-19_21h52.48.425,orientation adjustment 2,2021.2.3,MacIntel,60.04202942,,,,,,,
,,,,,,,,,,,,,,,,,,,,,,29.44444444,-37,20,75,25.44444444,62.44444444,49.95555556,-77.04444444,0.231665107,-0.304752401,1,0,0,0.0335,submitButton,0.359991591,-0.233741252,0,0,0,1,54,114,21,1,37,67609,2,180,2022-02-19_21h52.48.425,orientation adjustment 2,2021.2.3,MacIntel,60.04202942,,,,,,,
,,,,,,,,,,,,,,,,,,,,,,-61.66666667,28,20,75,34.33333333,6.333333333,2.533333333,-59.46666667,0.219764133,-0.319502767,1,0,0,0.1835,submitButton,0.550398627,-0.163517727,0,0,0,1,55,115,12,1,28,67609,2,180,2022-02-19_21h52.48.425,orientation adjustment 2,2021.2.3,MacIntel,60.04202942,,,,,,,
,,,,,,,,,,,,,,,,,,,,,,-62.77777778,-48,20,75,-154.7777778,73.22222222,58.57777778,-196.5777778,0.242721558,-0.327405396,1,0,0,1.4317,submitButton,-0.218401896,-0.412522583,0,0,0,1,56,116,32,1,48,67609,2,180,2022-02-19_21h52.48.425,orientation adjustment 2,2021.2.3,MacIntel,60.04202942,,,,,,,
,,,,,,,,,,,,,,,,,,,,,,66.11111111,50,20,75,212.1111111,17.88888889,11.62777778,-28.37222222,0.233215603,-0.30540507,1,0,0,1.7166,submitButton,0.241814643,-0.187867567,0,0,0,1,57,117,34,1,50,67609,2,180,2022-02-19_21h52.48.425,orientation adjustment 2,2021.2.3,MacIntel,60.04202942,,,,,,,
,,,,,,,,,,,,,,,,,,,,,,-20.55555556,-44,20,75,27.44444444,71.44444444,57.15555556,-76.84444444,0.194327393,-0.299591132,1,0,0,0.8485,submitButton,-0.128515964,-0.411388889,0,0,0,1,58,118,28,1,44,67609,2,180,2022-02-19_21h52.48.425,orientation adjustment 2,2021.2.3,MacIntel,60.04202942,,,,,,,
,,,,,,,,,,,,,,,,,,,,,,-65.55555556,-59,20,75,-149.5555556,89.44444444,71.55555556,-220.5555556,-0.209235365,-0.410960761,1,0,0,0.8828,submitButton,0.359776611,-0.41585456,1,0,0,1,59,119,43,1,59,67609,2,180,2022-02-19_21h52.48.425,orientation adjustment 2,2021.2.3,MacIntel,60.04202942,pause_continueButton,,,,,,
,,,,,,,,,,,,,,,,,,,,,,57.22222222,-44,20,75,34.22222222,78.22222222,62.57777778,-71.42222222,0.216927829,-0.298116659,1,0,0,0.0666,submitButton,-0.212432115,-0.40486613,0,0,0,2,0,120,28,1,44,67609,2,180,2022-02-19_21h52.48.425,orientation adjustment 2,2021.2.3,MacIntel,60.04202942,,,,,,,
,,,,,,,,,,,,,,,,,,,,,,-43.88888889,48,20,75,33.11111111,14.88888889,5.955555556,-47.95555556,-0.202171902,-0.40822564,1,0,0,1.2657,submitButton,-0.199789293,-0.404761895,0,0,0,2,1,121,32,1,48,67609,2,180,2022-02-19_21h52.48.425,orientation adjustment 2,2021.2.3,MacIntel,60.04202942,,,,,,,
,,,,,,,,,,,,,,,,,,,,,,-26.66666667,-41,20,75,-153.6666667,67.33333333,53.86666667,-184.8666667,0.398023546,-0.277152913,1,0,0,1.1487,submitButton,-0.167206082,-0.406207275,0,0,0,2,2,122,25,1,41,67609,2,180,2022-02-19_21h52.48.425,orientation adjustment 2,2021.2.3,MacIntel,60.04202942,,,,,,,
,,,,,,,,,,,,,,,,,,,,,,60,-74,20,75,-59,15,9.75,-154.25,-0.339210849,-0.421459418,1,0,0,1.6491,submitButton,-0.339766405,-0.419792752,0,0,0,2,3,123,58,1,74,67609,2,180,2022-02-19_21h52.48.425,orientation adjustment 2,2021.2.3,MacIntel,60.04202942,,,,,,,
,,,,,,,,,,,,,,,,,,,,,,69.44444444,-51,20,75,-48.55555556,2.444444444,0.977777778,-140.0222222,0.386036241,-0.303645698,1,0,0,1.3821,submitButton,0.303016086,-0.18581604,0,0,0,2,4,124,35,1,51,67609,2,180,2022-02-19_21h52.48.425,orientation adjustment 2,2021.2.3,MacIntel,60.04202942,,,,,,,
,,,,,,,,,,,,,,,,,,,,,,28.33333333,-25,20,75,-46.66666667,21.66666667,14.08333333,-129.0833333,-0.164462552,-0.390000339,1,0,0,1.7975,submitButton,-0.07080641,-0.354978434,0,0,0,2,5,125,9,1,25,67609,2,180,2022-02-19_21h52.48.425,orientation adjustment 2,2021.2.3,MacIntel,60.04202942,,,,,,,
,,,,,,,,,,,,,,,,,,,,,,67.22222222,-53,20,75,-40.77777778,12.22222222,4.888888889,-138.1111111,0.364883355,-0.287770521,1,0,0,0.1836,submitButton,-0.253224046,-0.400931871,0,0,0,2,6,126,37,1,53,67609,2,180,2022-02-19_21h52.48.425,orientation adjustment 2,2021.2.3,MacIntel,60.04202942,,,,,,,
,,,,,,,,,,,,,,,,,,,,,,-73.33333333,-28,20,75,-62.33333333,34.33333333,27.46666667,-145.4666667,0.417050239,-0.284149441,1,0,0,1.5996,submitButton,-0.178547499,-0.407327135,0,0,0,2,7,127,12,1,28,67609,2,180,2022-02-19_21h52.48.425,orientation adjustment 2,2021.2.3,MacIntel,60.04202942,,,,,,,
,,,,,,,,,,,,,,,,,,,,,,43.33333333,75,20,75,109.3333333,34.33333333,27.46666667,12.46666667,0.376288384,-0.296268514,1,0,0,0.098,submitButton,-0.213279148,-0.386508653,0,0,0,2,8,128,59,1,75,67609,2,180,2022-02-19_21h52.48.425,orientation adjustment 2,2021.2.3,MacIntel,60.04202942,,,,,,,
,,,,,,,,,,,,,,,,,,,,,,-23.88888889,22,20,75,-48.88888889,70.88888889,56.71111111,-124.7111111,0.424705675,-0.285002577,1,0,0,0.1987,submitButton,-0.25318495,-0.412299059,0,0,0,2,9,129,6,1,22,67609,2,180,2022-02-19_21h52.48.425,orientation adjustment 2,2021.2.3,MacIntel,60.04202942,,,,,,,
,,,,,,,,,,,,,,,,,,,,,,31.11111111,-33,20,75,-51.88888889,18.88888889,12.27777778,-135.2777778,0.352196723,-0.286255629,1,0,0,1.1153,submitButton,-0.247377692,-0.40982883,0,0,0,2,10,130,17,1,33,67609,2,180,2022-02-19_21h52.48.425,orientation adjustment 2,2021.2.3,MacIntel,60.04202942,,,,,,,
,,,,,,,,,,,,,,,,,,,,,,32.22222222,36,20,75,130.2222222,85.77777778,68.62222222,14.62222222,0.370526259,-0.312633192,1,0,0,0.0489,submitButton,0.503247206,-0.242843899,0,0,0,2,11,131,20,1,36,67609,2,180,2022-02-19_21h52.48.425,orientation adjustment 2,2021.2.3,MacIntel,60.04202942,,,,,,,
,,,,,,,,,,,,,,,,,,,,,,57.77777778,42,20,75,124.7777778,82.77777778,66.22222222,18.22222222,0.191469862,-0.312125448,1,0,0,0.0178,submitButton,0.329732056,-0.149968194,0,0,0,2,12,132,26,1,42,67609,2,180,2022-02-19_21h52.48.425,orientation adjustment 2,2021.2.3,MacIntel,60.04202942,,,,,,,
,,,,,,,,,,,,,,,,,,,,,,71.66666667,39,20,75,130.6666667,88.33333333,70.66666667,19.66666667,0.402103,-0.259885118,1,0,0,0.1497,submitButton,-0.293358595,-0.378831041,0,0,0,2,13,133,23,1,39,67609,2,180,2022-02-19_21h52.48.425,orientation adjustment 2,2021.2.3,MacIntel,60.04202942,,,,,,,
,,,,,,,,,,,,,,,,,,,,,,61.66666667,-62,20,75,-61.33333333,0.666666667,0.266666667,-151.7333333,0.375729845,-0.300634562,1,0,0,0.1163,submitButton,0.295281711,-0.409651218,1,0,0,2,14,134,46,1,62,67609,2,180,2022-02-19_21h52.48.425,orientation adjustment 2,2021.2.3,MacIntel,60.04202942,pause_continueButton,,,,,,
,,,,,,,,,,,,,,,,,,,,,,-21.11111111,-73,20,75,-94.11111111,21.11111111,13.72222222,-176.7222222,-0.257239855,-0.393854234,1,0,0,1.533,submitButton,-0.256684299,-0.393854234,0,0,0,2,15,135,57,1,73,67609,2,180,2022-02-19_21h52.48.425,orientation adjustment 2,2021.2.3,MacIntel,60.04202942,,,,,,,
,,,,,,,,,,,,,,,,,,,,,,21.11111111,-20,20,75,74.11111111,85.88888889,68.71111111,-41.28888889,0.223093397,-0.287182007,1,0,0,0.1489,submitButton,0.507810465,-0.17407647,0,0,0,2,16,136,4,1,20,67609,2,180,2022-02-19_21h52.48.425,orientation adjustment 2,2021.2.3,MacIntel,60.04202942,,,,,,,
,,,,,,,,,,,,,,,,,,,,,,-49.44444444,70,20,75,32.55555556,37.44444444,29.95555556,-49.95555556,0.16134535,-0.316479967,1,0,0,1.2503,submitButton,-0.196461656,-0.410392999,0,0,0,2,17,137,54,1,70,67609,2,180,2022-02-19_21h52.48.425,orientation adjustment 2,2021.2.3,MacIntel,60.04202942,,,,,,,
,,,,,,,,,,,,,,,,,,,,,,65,-46,20,75,37,83,66.4,-69.6,0.189949409,-0.302393256,1,0,0,0.4993,submitButton,0.244974162,-0.251111721,0,0,0,2,18,138,30,1,46,67609,2,180,2022-02-19_21h52.48.425,orientation adjustment 2,2021.2.3,MacIntel,60.04202942,,,,,,,
,,,,,,,,,,,,,,,,,,,,,,-48.88888889,40,20,75,26.11111111,13.88888889,5.555555556,-55.55555556,-0.20829149,-0.411396281,1,0,0,1.6157,submitButton,-0.20829149,-0.411396281,0,0,0,2,19,139,24,1,40,67609,2,180,2022-02-19_21h52.48.425,orientation adjustment 2,2021.2.3,MacIntel,60.04202942,,,,,,,
,,,,,,,,,,,,,,,,,,,,,,-36.66666667,-38,20,75,-156.6666667,61.33333333,49.06666667,-177.0666667,0.400732829,-0.313704156,1,0,0,1.3156,submitButton,-0.190601603,-0.392794732,0,0,0,2,20,140,22,1,38,67609,2,180,2022-02-19_21h52.48.425,orientation adjustment 2,2021.2.3,MacIntel,60.04202942,,,,,,,
,,,,,,,,,,,,,,,,,,,,,,-27.77777778,61,20,75,88.22222222,27.22222222,17.69444444,-11.30555556,0.439061279,-0.31588189,1,0,0,0.0498,submitButton,-0.220350681,-0.418158298,0,0,0,2,21,141,45,1,61,67609,2,180,2022-02-19_21h52.48.425,orientation adjustment 2,2021.2.3,MacIntel,60.04202942,,,,,,,
,,,,,,,,,,,,,,,,,,,,,,35,-29,20,75,68,83,66.4,-52.6,0.214534437,-0.293488634,1,0,0,0.6328,submitButton,-0.163499146,-0.388232354,0,0,0,2,22,142,13,1,29,67609,2,180,2022-02-19_21h52.48.425,orientation adjustment 2,2021.2.3,MacIntel,60.04202942,,,,,,,
,,,,,,,,,,,,,,,,,,,,,,-51.11111111,50,20,75,33.88888889,16.11111111,10.47222222,-50.47222222,0.207225952,-0.302890964,1,0,0,1.965,submitButton,0.092275391,-0.2108962,0,0,0,2,23,143,34,1,50,67609,2,180,2022-02-19_21h52.48.425,orientation adjustment 2,2021.2.3,MacIntel,60.04202942,,,,,,,
,,,,,,,,,,,,,,,,,,,,,,61.66666667,-57,20,75,45.66666667,77.33333333,61.86666667,-85.13333333,0.211514689,-0.319567125,1,0,0,1.2481,submitButton,0.124130588,-0.239567125,0,0,0,2,24,144,41,1,57,67609,2,180,2022-02-19_21h52.48.425,orientation adjustment 2,2021.2.3,MacIntel,60.04202942,,,,,,,
,,,,,,,,,,,,,,,,,,,,,,-53.88888889,32,20,75,41.11111111,9.111111111,3.644444444,-54.35555556,0.231878255,-0.277090183,1,0,0,0.7167,submitButton,-0.253769396,-0.420213691,0,0,0,2,25,145,16,1,32,67609,2,180,2022-02-19_21h52.48.425,orientation adjustment 2,2021.2.3,MacIntel,60.04202942,,,,,,,
,,,,,,,,,,,,,,,,,,,,,,-68.88888889,56,20,75,38.11111111,17.88888889,11.62777778,-45.62777778,0.213746338,-0.304727105,1,0,0,0.0664,submitButton,-0.180694648,-0.405159573,0,0,0,2,26,146,40,1,56,67609,2,180,2022-02-19_21h52.48.425,orientation adjustment 2,2021.2.3,MacIntel,60.04202942,,,,,,,
,,,,,,,,,,,,,,,,,,,,,,-52.22222222,-21,20,75,22.77777778,43.77777778,35.02222222,-75.97777778,0.191767442,-0.297578939,1,0,0,0.0998,submitButton,-0.212292006,-0.421109958,0,0,0,2,27,147,5,1,21,67609,2,180,2022-02-19_21h52.48.425,orientation adjustment 2,2021.2.3,MacIntel,60.04202942,,,,,,,
,,,,,,,,,,,,,,,,,,,,,,-57.77777778,-27,20,75,-142.7777778,64.22222222,51.37777778,-168.3777778,-0.118522,-0.392522108,1,0,0,1.4317,submitButton,-0.118522,-0.394188775,0,0,0,2,28,148,11,1,27,67609,2,180,2022-02-19_21h52.48.425,orientation adjustment 2,2021.2.3,MacIntel,60.04202942,,,,,,,
,,,,,,,,,,,,,,,,,,,,,,-31.66666667,68,20,75,-43.66666667,68.33333333,54.66666667,-76.66666667,-0.126728787,-0.432695109,1,0,0,1.8504,submitButton,0.233482123,-0.411717326,1,0,0,2,29,149,52,1,68,67609,2,180,2022-02-19_21h52.48.425,orientation adjustment 2,2021.2.3,MacIntel,60.04202942,pause_continueButton,,,,,,
,,,,,,,,,,,,,,,,,,,,,,59.44444444,-69,20,75,-37.55555556,31.44444444,25.15555556,-133.8444444,-0.133445774,-0.398449368,1,0,0,1.282,submitButton,-0.133445774,-0.398449368,0,0,0,2,30,150,53,1,69,67609,2,180,2022-02-19_21h52.48.425,orientation adjustment 2,2021.2.3,MacIntel,60.04202942,,,,,,,
,,,,,,,,,,,,,,,,,,,,,,-40.55555556,31,20,75,-41.55555556,72.55555556,58.04444444,-117.0444444,0.381887343,-0.285480754,1,0,0,0.8995,submitButton,-0.298700935,-0.424396023,0,0,0,2,31,151,15,1,31,67609,2,180,2022-02-19_21h52.48.425,orientation adjustment 2,2021.2.3,MacIntel,60.04202942,,,,,,,
,,,,,,,,,,,,,,,,,,,,,,-21.66666667,45,20,75,23.33333333,21.66666667,14.08333333,-59.08333333,-0.233920627,-0.374511244,1,0,0,3.2301,submitButton,-0.23424747,-0.373808187,0,0,0,2,32,152,29,1,45,67609,2,180,2022-02-19_21h52.48.425,orientation adjustment 2,2021.2.3,MacIntel,60.04202942,,,,,,,
,,,,,,,,,,,,,,,,,,,,,,67.77777778,30,20,75,14.77777778,15.22222222,9.894444444,-69.89444444,0.409806179,-0.278107164,1,0,0,1.5478,submitButton,-0.004173584,-0.352454495,0,0,0,2,33,153,14,1,30,67609,2,180,2022-02-19_21h52.48.425,orientation adjustment 2,2021.2.3,MacIntel,60.04202942,,,,,,,
,,,,,,,,,,,,,,,,,,,,,,49.44444444,26,20,75,19.44444444,6.555555556,2.622222222,-66.62222222,0.403519423,-0.314405857,1,0,0,0.2146,submitButton,-0.166462809,-0.413442654,0,0,0,2,34,154,10,1,26,67609,2,180,2022-02-19_21h52.48.425,orientation adjustment 2,2021.2.3,MacIntel,60.04202942,,,,,,,
,,,,,,,,,,,,,,,,,,,,,,-35,17,20,75,25,8,3.2,-69.8,0.346430257,-0.289534912,1,0,0,1.9483,submitButton,-0.222083266,-0.417533095,0,0,0,2,35,155,1,1,17,67609,2,180,2022-02-19_21h52.48.425,orientation adjustment 2,2021.2.3,MacIntel,60.04202942,,,,,,,
,,,,,,,,,,,,,,,,,,,,,,57.77777778,-65,20,75,-50.22222222,14.77777778,5.911111111,-149.0888889,0.445616319,-0.258923543,1,0,0,0.799,submitButton,-0.213679199,-0.408225233,0,0,0,2,36,156,49,1,65,67609,2,180,2022-02-19_21h52.48.425,orientation adjustment 2,2021.2.3,MacIntel,60.04202942,,,,,,,
,,,,,,,,,,,,,,,,,,,,,,23.33333333,37,20,75,122.3333333,85.33333333,68.26666667,15.26666667,0.219949816,-0.307806261,1,0,0,0.149,submitButton,-0.162043932,-0.403833143,0,0,0,2,37,157,21,1,37,67609,2,180,2022-02-19_21h52.48.425,orientation adjustment 2,2021.2.3,MacIntel,60.04202942,,,,,,,
,,,,,,,,,,,,,,,,,,,,,,33.33333333,67,20,75,58.33333333,8.666666667,3.466666667,-26.46666667,0.412821723,-0.299405246,1,0,0,1.1982,submitButton,-0.183264703,-0.416699761,0,0,0,2,38,158,51,1,67,67609,2,180,2022-02-19_21h52.48.425,orientation adjustment 2,2021.2.3,MacIntel,60.04202942,,,,,,,
,,,,,,,,,,,,,,,,,,,,,,32.22222222,60,20,75,54.22222222,5.777777778,2.311111111,-32.31111111,0.366286079,-0.318193834,1,0,0,0.1005,submitButton,-0.229738702,-0.411895684,0,0,0,2,39,159,44,1,60,67609,2,180,2022-02-19_21h52.48.425,orientation adjustment 2,2021.2.3,MacIntel,60.04202942,,,,,,,
,,,,,,,,,,,,,,,,,,,,,,21.66666667,59,20,75,70.66666667,11.66666667,4.666666667,-26.33333333,0.345854357,-0.29320516,1,0,0,0.368,submitButton,-0.297919685,-0.412330933,0,0,0,2,40,160,43,1,59,67609,2,180,2022-02-19_21h52.48.425,orientation adjustment 2,2021.2.3,MacIntel,60.04202942,,,,,,,
,,,,,,,,,,,,,,,,,,,,,,-32.22222222,-55,20,75,-102.2222222,47.22222222,37.77777778,-182.7777778,0.322139214,-0.353220011,1,0,0,3.7303,submitButton,-0.348556078,-0.405963203,0,0,0,2,41,161,39,1,55,67609,2,180,2022-02-19_21h52.48.425,orientation adjustment 2,2021.2.3,MacIntel,60.04202942,,,,,,,
,,,,,,,,,,,,,,,,,,,,,,-64.44444444,-71,20,75,-135.4444444,64.44444444,51.55555556,-212.5555556,-0.327771606,-0.407061225,1,0,0,16.6229,submitButton,-0.312355414,-0.40265313,0,0,0,2,42,162,55,1,71,67609,2,180,2022-02-19_21h52.48.425,orientation adjustment 2,2021.2.3,MacIntel,60.04202942,,,,,,,
,,,,,,,,,,,,,,,,,,,,,,51.11111111,64,20,75,232.1111111,11.88888889,4.755555556,-21.24444444,0.177387627,-0.306265394,1,0,0,0.8813,submitButton,0.253695679,-0.195370958,0,0,0,2,43,163,48,1,64,67609,2,180,2022-02-19_21h52.48.425,orientation adjustment 2,2021.2.3,MacIntel,60.04202942,,,,,,,
,,,,,,,,,,,,,,,,,,,,,,39.44444444,-66,20,75,-58.55555556,7.444444444,2.977777778,-153.0222222,0.380141602,-0.297019179,1,0,0,0.6492,submitButton,0.23265998,-0.396616821,1,0,0,2,44,164,50,1,66,67609,2,180,2022-02-19_21h52.48.425,orientation adjustment 2,2021.2.3,MacIntel,60.04202942,pause_continueButton,,,,,,
,,,,,,,,,,,,,,,,,,,,,,-66.66666667,43,20,75,38.33333333,4.666666667,1.866666667,-48.86666667,0.227798123,-0.298534207,1,0,0,0.1332,submitButton,0.157222358,-0.209332275,0,0,0,2,45,165,27,1,43,67609,2,180,2022-02-19_21h52.48.425,orientation adjustment 2,2021.2.3,MacIntel,60.04202942,,,,,,,
,,,,,,,,,,,,,,,,,,,,,,-52.77777778,19,20,75,37.22222222,18.22222222,11.84444444,-59.15555556,0.191716037,-0.2820617,1,0,0,0.3672,submitButton,0.209890137,-0.290595364,0,0,0,2,46,166,3,1,19,67609,2,180,2022-02-19_21h52.48.425,orientation adjustment 2,2021.2.3,MacIntel,60.04202942,,,,,,,
,,,,,,,,,,,,,,,,,,,,,,-20.55555556,-35,20,75,-21.55555556,13.44444444,5.377777778,-119.6222222,0.223733317,-0.31512797,1,0,0,1.0338,submitButton,-0.165419447,-0.398232354,0,0,0,2,47,167,19,1,35,67609,2,180,2022-02-19_21h52.48.425,orientation adjustment 2,2021.2.3,MacIntel,60.04202942,,,,,,,
,,,,,,,,,,,,,,,,,,,,,,52.77777778,63,20,75,158.7777778,84.22222222,67.37777778,40.37777778,0.185930379,-0.321208971,1,0,0,0.1507,submitButton,-0.222020671,-0.402498372,0,0,0,2,48,168,47,1,63,67609,2,180,2022-02-19_21h52.48.425,orientation adjustment 2,2021.2.3,MacIntel,60.04202942,,,,,,,
,,,,,,,,,,,,,,,,,,,,,,46.66666667,52,20,75,151.6666667,80.33333333,64.26666667,26.26666667,0.172953762,-0.320339695,1,0,0,0.132,submitButton,-0.151845228,-0.41766961,0,0,0,2,49,169,36,1,52,67609,2,180,2022-02-19_21h52.48.425,orientation adjustment 2,2021.2.3,MacIntel,60.04202942,,,,,,,
,,,,,,,,,,,,,,,,,,,,,,62.77777778,-34,20,75,-39.22222222,5.222222222,2.088888889,-126.0888889,0.422337918,-0.288428752,1,0,0,1.4477,submitButton,-0.221809082,-0.419606323,0,0,0,2,50,170,18,1,34,67609,2,180,2022-02-19_21h52.48.425,orientation adjustment 2,2021.2.3,MacIntel,60.04202942,,,,,,,
,,,,,,,,,,,,,,,,,,,,,,-41.66666667,23,20,75,-31.66666667,54.66666667,43.73333333,-110.7333333,0.406696913,-0.295468004,1,0,0,10.1589,submitButton,-0.162910156,-0.395019599,0,0,0,2,51,171,7,1,23,67609,2,180,2022-02-19_21h52.48.425,orientation adjustment 2,2021.2.3,MacIntel,60.04202942,,,,,,,
,,,,,,,,,,,,,,,,,,,,,,-43.88888889,47,20,75,31.11111111,15.88888889,10.32777778,-53.32777778,0.358020833,-0.288437297,1,0,0,4.6641,submitButton,-0.22107388,-0.405406969,0,0,0,2,52,172,31,1,47,67609,2,180,2022-02-19_21h52.48.425,orientation adjustment 2,2021.2.3,MacIntel,60.04202942,,,,,,,
,,,,,,,,,,,,,,,,,,,,,,-42.77777778,24,20,75,35.22222222,11.22222222,4.488888889,-61.51111111,0.233373277,-0.304923503,1,0,0,0.0179,submitButton,-0.289399753,-0.419719238,0,0,0,2,53,173,8,1,24,67609,2,180,2022-02-19_21h52.48.425,orientation adjustment 2,2021.2.3,MacIntel,60.04202942,,,,,,,
,,,,,,,,,,,,,,,,,,,,,,22.22222222,-72,20,75,-49.77777778,22.22222222,14.44444444,-147.5555556,-0.350802138,-0.377147081,1,0,0,7.0614,submitButton,-0.350802138,-0.377147081,0,0,0,2,54,174,56,1,72,67609,2,180,2022-02-19_21h52.48.425,orientation adjustment 2,2021.2.3,MacIntel,60.04202942,,,,,,,
,,,,,,,,,,,,,,,,,,,,,,-23.88888889,-54,20,75,-50.88888889,3.111111111,1.244444444,-142.7555556,0.153808322,-0.313646444,1,0,0,0.2836,submitButton,-0.333230353,-0.348173082,0,0,0,2,55,175,38,1,54,67609,2,180,2022-02-19_21h52.48.425,orientation adjustment 2,2021.2.3,MacIntel,60.04202942,,,,,,,
,,,,,,,,,,,,,,,,,,,,,,33.88888889,49,20,75,43.88888889,5.111111111,2.044444444,-43.04444444,0.35576728,-0.33060947,1,0,0,0.0995,submitButton,0.05661065,-0.298585883,0,0,0,2,56,176,33,1,49,67609,2,180,2022-02-19_21h52.48.425,orientation adjustment 2,2021.2.3,MacIntel,60.04202942,,,,,,,
,,,,,,,,,,,,,,,,,,,,,,-22.77777778,-18,20,75,36.22222222,54.22222222,43.37777778,-64.62222222,0.168195462,-0.290160522,1,0,0,6.729,submitButton,0.23501241,-0.371612888,0,0,0,2,57,177,2,1,18,67609,2,180,2022-02-19_21h52.48.425,orientation adjustment 2,2021.2.3,MacIntel,60.04202942,,,,,,,
,,,,,,,,,,,,,,,,,,,,,,30,-16,20,75,-30,14,5.6,-111.6,0.230089722,-0.303672689,1,0,0,1.9146,submitButton,0.043969794,-0.267870551,0,0,0,2,58,178,0,1,16,67609,2,180,2022-02-19_21h52.48.425,orientation adjustment 2,2021.2.3,MacIntel,60.04202942,,,,,,,
,,,,,,,,,,,,,,,,,,,,,,31.66666667,-58,20,75,-76.33333333,18.33333333,11.91666667,-159.9166667,0.401065403,-0.297779744,1,0,0,0.5167,submitButton,-0.147671509,-0.398403659,0,0,0,2,59,179,42,1,58,67609,2,180,2022-02-19_21h52.48.425,orientation adjustment 2,2021.2.3,MacIntel,60.04202942,,,,,,,
,,,,,,,,,,,,,,,,,,,,,,,,,,,,,,,,,,,,,,,,,,,,,,,,67609,2,180,2022-02-19_21h52.48.425,orientation adjustment 2,2021.2.3,MacIntel,60.04202942,,0.259078776,-0.406818237,1,0,0,EndButtonTxt
