consentMouse1.x,consentMouse1.y,consentMouse1.leftButton,consentMouse1.midButton,consentMouse1.rightButton,consentMouse1.clicked_name,consent_Mouse.x,consent_Mouse.y,consent_Mouse.leftButton,consent_Mouse.midButton,consent_Mouse.rightButton,consent_Mouse.clicked_name,startMouse.x,startMouse.y,startMouse.leftButton,startMouse.midButton,startMouse.rightButton,startMouse_2.x,startMouse_2.y,startMouse_2.leftButton,startMouse_2.midButton,startMouse_2.rightButton,start_distance,fixedOri,minimalDistance,maxOri,this_ori,accuracy,presented_accuracy,presented_this_ori,submitMouse.x,submitMouse.y,submitMouse.leftButton,submitMouse.midButton,submitMouse.rightButton,submitMouse.time,submitMouse.clicked_name,pauseMouse.x,pauseMouse.y,pauseMouse.leftButton,pauseMouse.midButton,pauseMouse.rightButton,trials.thisRepN,trials.thisTrialN,trials.thisN,trials.thisIndex,trials.ran,startOri,participant,condition,nTrials,date,expName,psychopyVersion,OS,frameRate,pauseMouse.clicked_name,EndButtonMouse.x,EndButtonMouse.y,EndButtonMouse.leftButton,EndButtonMouse.midButton,EndButtonMouse.rightButton,EndButtonMouse.clicked_name
0.383333371,-0.39629638,1,0,0,consent_button1,0.386111149,-0.40833336,1,0,0,consent_button,-0.372222207,-0.264814838,1,0,0,-0.372222207,-0.264814838,1,0,0,-51.11111111,-34,20,75,-79.11111111,45.11111111,36.08888889,-160.0888889,0.237962997,-0.309259283,1,0,0,2.5469,submitButton,-0.078703623,-0.352777803,0,0,0,0,0,0,18,1,34,69202,2,180,2022-02-10_08h30.14.998,orientation adjustment 2,2021.2.3,Win32,59.63029219,,,,,,,
,,,,,,,,,,,,,,,,,,,,,,61.66666667,28,20,75,56.66666667,28.66666667,18.63333333,-43.36666667,-0.339814798,-0.437963047,1,0,0,1.4663,submitButton,-0.159259181,-0.283333357,0,0,0,0,1,1,12,1,28,69202,2,180,2022-02-10_08h30.14.998,orientation adjustment 2,2021.2.3,Win32,59.63029219,,,,,,,
,,,,,,,,,,,,,,,,,,,,,,60.55555556,62,20,75,71.55555556,9.555555556,3.822222222,-24.17777778,0.377777816,-0.312963044,1,0,0,2.6158,submitButton,-0.09537029,-0.290740821,0,0,0,0,2,2,46,1,62,69202,2,180,2022-02-10_08h30.14.998,orientation adjustment 2,2021.2.3,Win32,59.63029219,,,,,,,
,,,,,,,,,,,,,,,,,,,,,,-68.33333333,70,20,75,-109.3333333,0.666666667,0.266666667,-20.26666667,0.184259291,-0.308333357,1,0,0,3.0825,submitButton,-0.228703684,-0.370370396,0,0,0,0,3,3,54,1,70,69202,2,180,2022-02-10_08h30.14.998,orientation adjustment 2,2021.2.3,Win32,59.63029219,,,,,,,
,,,,,,,,,,,,,,,,,,,,,,-48.33333333,19,20,75,16.66666667,2.333333333,0.933333333,-71.93333333,0.227777811,-0.294444468,1,0,0,0.4659,submitButton,-0.130555533,-0.323148173,0,0,0,0,4,4,3,1,19,69202,2,180,2022-02-10_08h30.14.998,orientation adjustment 2,2021.2.3,Win32,59.63029219,,,,,,,
,,,,,,,,,,,,,,,,,,,,,,37.22222222,-72,20,75,-60.77777778,11.22222222,4.488888889,-157.5111111,0.427777817,-0.300000024,1,0,0,0.5168,submitButton,-0.31666665,-0.36944447,0,0,0,0,5,5,56,1,72,69202,2,180,2022-02-10_08h30.14.998,orientation adjustment 2,2021.2.3,Win32,59.63029219,,,,,,,
,,,,,,,,,,,,,,,,,,,,,,-33.88888889,-30,20,75,-47.88888889,17.88888889,11.62777778,-131.6277778,0.185185217,-0.324074155,1,0,0,0.2494,submitButton,-0.168518497,-0.373148174,0,0,0,0,6,6,14,1,30,69202,2,180,2022-02-10_08h30.14.998,orientation adjustment 2,2021.2.3,Win32,59.63029219,,,,,,,
,,,,,,,,,,,,,,,,,,,,,,29.44444444,-59,20,75,-62.55555556,3.555555556,1.422222222,-150.4222222,0.423148187,-0.295370394,1,0,0,0.2164,submitButton,-0.175925848,-0.392592619,0,0,0,0,7,7,43,1,59,69202,2,180,2022-02-10_08h30.14.998,orientation adjustment 2,2021.2.3,Win32,59.63029219,,,,,,,
,,,,,,,,,,,,,,,,,,,,,,-67.22222222,74,20,75,-116.2222222,10.22222222,4.088888889,-20.08888889,0.357407445,-0.294444468,1,0,0,0.1332,submitButton,-0.267592574,-0.38240749,0,0,0,0,8,8,58,1,74,69202,2,180,2022-02-10_08h30.14.998,orientation adjustment 2,2021.2.3,Win32,59.63029219,,,,,,,
,,,,,,,,,,,,,,,,,,,,,,-61.66666667,-64,20,75,-244.6666667,0.666666667,0.266666667,-154.2666667,0.373148186,-0.30092595,1,0,0,0.1168,submitButton,-0.200925905,-0.379629712,0,0,0,0,9,9,48,1,64,69202,2,180,2022-02-10_08h30.14.998,orientation adjustment 2,2021.2.3,Win32,59.63029219,,,,,,,
,,,,,,,,,,,,,,,,,,,,,,-50,-31,20,75,-52,21,13.65,-134.65,0.455555596,-0.294444468,1,0,0,1.1661,submitButton,-0.031481399,-0.351851934,0,0,0,0,10,10,15,1,31,69202,2,180,2022-02-10_08h30.14.998,orientation adjustment 2,2021.2.3,Win32,59.63029219,,,,,,,
,,,,,,,,,,,,,,,,,,,,,,26.11111111,61,20,75,71.11111111,10.11111111,4.044444444,-24.95555556,0.357407445,-0.309259283,1,0,0,0.4328,submitButton,-0.048148067,-0.244444467,0,0,0,0,11,11,45,1,61,69202,2,180,2022-02-10_08h30.14.998,orientation adjustment 2,2021.2.3,Win32,59.63029219,,,,,,,
,,,,,,,,,,,,,,,,,,,,,,-38.33333333,-63,20,75,-71.33333333,8.333333333,3.333333333,-156.3333333,-0.175925848,-0.362963045,1,0,0,1.1833,submitButton,-0.155555534,-0.385185268,0,0,0,0,12,12,47,1,63,69202,2,180,2022-02-10_08h30.14.998,orientation adjustment 2,2021.2.3,Win32,59.63029219,,,,,,,
,,,,,,,,,,,,,,,,,,,,,,-21.11111111,48,20,75,34.88888889,13.11111111,5.244444444,-47.24444444,0.224074107,-0.311111135,1,0,0,0.6492,submitButton,-0.161111089,-0.357407489,0,0,0,0,13,13,32,1,48,69202,2,180,2022-02-10_08h30.14.998,orientation adjustment 2,2021.2.3,Win32,59.63029219,,,,,,,
,,,,,,,,,,,,,,,,,,,,,,58.33333333,-38,20,75,-34.66666667,3.333333333,1.333333333,-126.6666667,0.384259297,-0.30092595,1,0,0,0.1498,submitButton,0.298148184,-0.42129638,1,0,0,0,14,14,22,1,38,69202,2,180,2022-02-10_08h30.14.998,orientation adjustment 2,2021.2.3,Win32,59.63029219,pause_continueButton,,,,,,
,,,,,,,,,,,,,,,,,,,,,,55,35,20,75,206,9,3.6,-51.4,0.212962996,-0.301851932,1,0,0,0.1994,submitButton,-0.099999976,-0.220370392,0,0,0,0,15,15,19,1,35,69202,2,180,2022-02-10_08h30.14.998,orientation adjustment 2,2021.2.3,Win32,59.63029219,,,,,,,
,,,,,,,,,,,,,,,,,,,,,,43.33333333,68,20,75,74.33333333,6.333333333,2.533333333,-19.46666667,0.359259296,-0.302777802,1,0,0,1.9501,submitButton,-0.096296273,-0.379629712,0,0,0,0,16,16,52,1,68,69202,2,180,2022-02-10_08h30.14.998,orientation adjustment 2,2021.2.3,Win32,59.63029219,,,,,,,
,,,,,,,,,,,,,,,,,,,,,,27.77777778,22,20,75,40.77777778,18.77777778,12.20555556,-55.79444444,0.385185223,-0.307407488,1,0,0,0.0663,submitButton,0.050000028,-0.340740822,0,0,0,0,17,17,6,1,22,69202,2,180,2022-02-10_08h30.14.998,orientation adjustment 2,2021.2.3,Win32,59.63029219,,,,,,,
,,,,,,,,,,,,,,,,,,,,,,26.11111111,-45,20,75,-43.88888889,1.111111111,0.444444444,-134.5555556,0.187962995,-0.309259283,1,0,0,0.2332,submitButton,0.012963046,-0.33981484,0,0,0,0,18,18,29,1,45,69202,2,180,2022-02-10_08h30.14.998,orientation adjustment 2,2021.2.3,Win32,59.63029219,,,,,,,
,,,,,,,,,,,,,,,,,,,,,,60.55555556,27,20,75,51.55555556,24.55555556,15.96111111,-47.03888889,-0.281481463,-0.426851936,1,0,0,1.3659,submitButton,-0.034259177,-0.353703729,0,0,0,0,19,19,11,1,27,69202,2,180,2022-02-10_08h30.14.998,orientation adjustment 2,2021.2.3,Win32,59.63029219,,,,,,,
,,,,,,,,,,,,,,,,,,,,,,37.77777778,-24,20,75,-48.22222222,24.22222222,15.74444444,-129.7444444,0.213888922,-0.311111135,1,0,0,0.5156,submitButton,-0.178703683,-0.386111138,0,0,0,0,20,20,8,1,24,69202,2,180,2022-02-10_08h30.14.998,orientation adjustment 2,2021.2.3,Win32,59.63029219,,,,,,,
,,,,,,,,,,,,,,,,,,,,,,-45.55555556,52,20,75,37.44444444,14.55555556,5.822222222,-43.82222222,0.223148181,-0.318518599,1,0,0,0.1501,submitButton,0.099074104,-0.306481506,0,0,0,0,21,21,36,1,52,69202,2,180,2022-02-10_08h30.14.998,orientation adjustment 2,2021.2.3,Win32,59.63029219,,,,,,,
,,,,,,,,,,,,,,,,,,,,,,28.33333333,-46,20,75,-35.66666667,10.33333333,4.133333333,-131.8666667,0.215740774,-0.298148172,1,0,0,0.433,submitButton,0.00833336,-0.374074157,0,0,0,0,22,22,30,1,46,69202,2,180,2022-02-10_08h30.14.998,orientation adjustment 2,2021.2.3,Win32,59.63029219,,,,,,,
,,,,,,,,,,,,,,,,,,,,,,43.33333333,18,20,75,45.33333333,27.33333333,17.76666667,-54.23333333,0.369444482,-0.30462971,1,0,0,0.6662,submitButton,0.115740771,-0.336111136,0,0,0,0,23,23,2,1,18,69202,2,180,2022-02-10_08h30.14.998,orientation adjustment 2,2021.2.3,Win32,59.63029219,,,,,,,
,,,,,,,,,,,,,,,,,,,,,,58.33333333,-40,20,75,-39.66666667,0.333333333,0.133333333,-129.8666667,0.370370408,-0.288888912,1,0,0,0.7991,submitButton,-0.123148069,-0.370370396,0,0,0,0,24,24,24,1,40,69202,2,180,2022-02-10_08h30.14.998,orientation adjustment 2,2021.2.3,Win32,59.63029219,,,,,,,
,,,,,,,,,,,,,,,,,,,,,,-27.22222222,42,20,75,46.77777778,4.777777778,1.911111111,-46.08888889,-0.199074054,-0.379629712,1,0,0,1.2824,submitButton,-0.199074054,-0.379629712,0,0,0,0,25,25,26,1,42,69202,2,180,2022-02-10_08h30.14.998,orientation adjustment 2,2021.2.3,Win32,59.63029219,,,,,,,
,,,,,,,,,,,,,,,,,,,,,,22.77777778,17,20,75,12.77777778,4.222222222,1.688888889,-74.68888889,0.387037075,-0.298148172,1,0,0,0.566,submitButton,-0.155555534,-0.389814841,0,0,0,0,26,26,1,1,17,69202,2,180,2022-02-10_08h30.14.998,orientation adjustment 2,2021.2.3,Win32,59.63029219,,,,,,,
,,,,,,,,,,,,,,,,,,,,,,-31.11111111,43,20,75,30.88888889,12.11111111,4.844444444,-51.84444444,0.232407441,-0.322222247,1,0,0,0.2659,submitButton,-0.113888866,-0.387037063,0,0,0,0,27,27,27,1,43,69202,2,180,2022-02-10_08h30.14.998,orientation adjustment 2,2021.2.3,Win32,59.63029219,,,,,,,
,,,,,,,,,,,,,,,,,,,,,,32.77777778,-20,20,75,-26.22222222,6.222222222,2.488888889,-112.4888889,0.371296334,-0.286111135,1,0,0,0.6323,submitButton,-0.083333309,-0.395370397,0,0,0,0,28,28,4,1,20,69202,2,180,2022-02-10_08h30.14.998,orientation adjustment 2,2021.2.3,Win32,59.63029219,,,,,,,
,,,,,,,,,,,,,,,,,,,,,,-75,-39,20,75,-220,1,0.4,-129.4,0.218518552,-0.318518599,1,0,0,0.267,submitButton,0.41111115,-0.401851935,1,0,0,0,29,29,23,1,39,69202,2,180,2022-02-10_08h30.14.998,orientation adjustment 2,2021.2.3,Win32,59.63029219,pause_continueButton,,,,,,
,,,,,,,,,,,,,,,,,,,,,,60.55555556,-71,20,75,-56.44444444,14.55555556,5.822222222,-155.1777778,0.375925964,-0.294444468,1,0,0,0.883,submitButton,0.150925957,-0.337037062,0,0,0,0,30,30,55,1,71,69202,2,180,2022-02-10_08h30.14.998,orientation adjustment 2,2021.2.3,Win32,59.63029219,,,,,,,
,,,,,,,,,,,,,,,,,,,,,,25.55555556,67,20,75,61.55555556,5.444444444,2.177777778,-25.17777778,0.398148187,-0.29166669,1,0,0,0.2001,submitButton,-0.22499998,-0.373148174,0,0,0,0,31,31,51,1,67,69202,2,180,2022-02-10_08h30.14.998,orientation adjustment 2,2021.2.3,Win32,59.63029219,,,,,,,
,,,,,,,,,,,,,,,,,,,,,,40.55555556,-44,20,75,-31.44444444,12.55555556,5.022222222,-128.9777778,0.210185218,-0.316666691,1,0,0,0.15,submitButton,-0.18611109,-0.338888914,0,0,0,0,32,32,28,1,44,69202,2,180,2022-02-10_08h30.14.998,orientation adjustment 2,2021.2.3,Win32,59.63029219,,,,,,,
,,,,,,,,,,,,,,,,,,,,,,-64.44444444,-58,20,75,-208.4444444,29.55555556,19.21111111,-167.2111111,0.380555593,-0.308333357,1,0,0,0.9155,submitButton,-0.297222205,-0.395370397,0,0,0,0,33,33,42,1,58,69202,2,180,2022-02-10_08h30.14.998,orientation adjustment 2,2021.2.3,Win32,59.63029219,,,,,,,
,,,,,,,,,,,,,,,,,,,,,,65.55555556,-55,20,75,-30.44444444,24.55555556,15.96111111,-129.0388889,0.387963001,-0.290740821,1,0,0,0.3162,submitButton,-0.11296294,-0.303703728,0,0,0,0,34,34,39,1,55,69202,2,180,2022-02-10_08h30.14.998,orientation adjustment 2,2021.2.3,Win32,59.63029219,,,,,,,
,,,,,,,,,,,,,,,,,,,,,,38.33333333,-53,20,75,-48.66666667,4.333333333,1.733333333,-141.2666667,-0.34629628,-0.429629714,1,0,0,1.2835,submitButton,-0.314814798,-0.392592619,0,0,0,0,35,35,37,1,53,69202,2,180,2022-02-10_08h30.14.998,orientation adjustment 2,2021.2.3,Win32,59.63029219,,,,,,,
,,,,,,,,,,,,,,,,,,,,,,-69.44444444,-32,20,75,-216.4444444,4.444444444,1.777777778,-123.7777778,0.390740779,-0.310185266,1,0,0,0.1326,submitButton,-0.163888867,-0.350000025,0,0,0,0,36,36,16,1,32,69202,2,180,2022-02-10_08h30.14.998,orientation adjustment 2,2021.2.3,Win32,59.63029219,,,,,,,
,,,,,,,,,,,,,,,,,,,,,,-29.44444444,54,20,75,42.55555556,11.44444444,4.577777778,-40.57777778,0.223148181,-0.295370394,1,0,0,0.9324,submitButton,-0.094444421,-0.349074156,0,0,0,0,37,37,38,1,54,69202,2,180,2022-02-10_08h30.14.998,orientation adjustment 2,2021.2.3,Win32,59.63029219,,,,,,,
,,,,,,,,,,,,,,,,,,,,,,53.88888889,57,20,75,232.8888889,4.111111111,1.644444444,-31.35555556,0.221296329,-0.316666691,1,0,0,0.3666,submitButton,-0.176851831,-0.403703731,0,0,0,0,38,38,41,1,57,69202,2,180,2022-02-10_08h30.14.998,orientation adjustment 2,2021.2.3,Win32,59.63029219,,,,,,,
,,,,,,,,,,,,,,,,,,,,,,-36.66666667,49,20,75,62.33333333,13.33333333,5.333333333,-35.66666667,0.2166667,-0.301851932,1,0,0,0.0499,submitButton,-0.125925847,-0.393518602,0,0,0,0,39,39,33,1,49,69202,2,180,2022-02-10_08h30.14.998,orientation adjustment 2,2021.2.3,Win32,59.63029219,,,,,,,
,,,,,,,,,,,,,,,,,,,,,,75,60,20,75,64,4,1.6,-28.4,0.380555593,-0.284259283,1,0,0,0.0663,submitButton,-0.139814736,-0.374074157,0,0,0,0,40,40,44,1,60,69202,2,180,2022-02-10_08h30.14.998,orientation adjustment 2,2021.2.3,Win32,59.63029219,,,,,,,
,,,,,,,,,,,,,,,,,,,,,,-30.55555556,37,20,75,37.44444444,0.444444444,0.177777778,-52.82222222,0.386111149,-0.312963044,1,0,0,0.0833,submitButton,-0.088888865,-0.313888913,0,0,0,0,41,41,21,1,37,69202,2,180,2022-02-10_08h30.14.998,orientation adjustment 2,2021.2.3,Win32,59.63029219,,,,,,,
,,,,,,,,,,,,,,,,,,,,,,70.55555556,-33,20,75,-32.44444444,0.555555556,0.222222222,-122.7777778,0.426851891,-0.271296376,1,0,0,0.5666,submitButton,-0.223148128,-0.395370397,0,0,0,0,42,42,17,1,33,69202,2,180,2022-02-10_08h30.14.998,orientation adjustment 2,2021.2.3,Win32,59.63029219,,,,,,,
,,,,,,,,,,,,,,,,,,,,,,-68.88888889,75,20,75,57.11111111,17.88888889,11.62777778,-26.62777778,-0.182407386,-0.381481508,1,0,0,1.3999,submitButton,-0.178703683,-0.381481508,0,0,0,0,43,43,59,1,75,69202,2,180,2022-02-10_08h30.14.998,orientation adjustment 2,2021.2.3,Win32,59.63029219,,,,,,,
,,,,,,,,,,,,,,,,,,,,,,60.55555556,-23,20,75,-33.44444444,10.44444444,4.177777778,-117.1777778,0.428703743,-0.301851932,1,0,0,0.1493,submitButton,0.249074108,-0.426851936,1,0,0,0,44,44,7,1,23,69202,2,180,2022-02-10_08h30.14.998,orientation adjustment 2,2021.2.3,Win32,59.63029219,pause_continueButton,,,,,,
,,,,,,,,,,,,,,,,,,,,,,-39.44444444,66,20,75,45.55555556,20.44444444,13.28888889,-37.28888889,0.387963001,-0.30462971,1,0,0,0.6164,submitButton,0.022222249,-0.352777803,0,0,0,0,45,45,50,1,66,69202,2,180,2022-02-10_08h30.14.998,orientation adjustment 2,2021.2.3,Win32,59.63029219,,,,,,,
,,,,,,,,,,,,,,,,,,,,,,-56.11111111,26,20,75,24.88888889,1.111111111,0.444444444,-64.44444444,0.165740772,-0.321296377,1,0,0,0.1166,submitButton,-0.128703625,-0.38333336,0,0,0,0,46,46,10,1,26,69202,2,180,2022-02-10_08h30.14.998,orientation adjustment 2,2021.2.3,Win32,59.63029219,,,,,,,
,,,,,,,,,,,,,,,,,,,,,,-65.55555556,73,20,75,50.44444444,22.55555556,14.66111111,-31.66111111,0.190740773,-0.310185266,1,0,0,0.4332,submitButton,-0.183333312,-0.375000026,0,0,0,0,47,47,57,1,73,69202,2,180,2022-02-10_08h30.14.998,orientation adjustment 2,2021.2.3,Win32,59.63029219,,,,,,,
,,,,,,,,,,,,,,,,,,,,,,38.33333333,-41,20,75,-30.66666667,10.33333333,4.133333333,-126.8666667,0.387037075,-0.30092595,1,0,0,0.6332,submitButton,-0.183333312,-0.389814841,0,0,0,0,48,48,25,1,41,69202,2,180,2022-02-10_08h30.14.998,orientation adjustment 2,2021.2.3,Win32,59.63029219,,,,,,,
,,,,,,,,,,,,,,,,,,,,,,39.44444444,-47,20,75,-37.55555556,9.444444444,3.777777778,-133.2222222,0.386111149,-0.296296377,1,0,0,0.2667,submitButton,-0.039814733,-0.341666692,0,0,0,0,49,49,31,1,47,69202,2,180,2022-02-10_08h30.14.998,orientation adjustment 2,2021.2.3,Win32,59.63029219,,,,,,,
,,,,,,,,,,,,,,,,,,,,,,-65.55555556,-50,20,75,-227.5555556,2.444444444,0.977777778,-140.9777778,0.206481514,-0.29166669,1,0,0,2.5153,submitButton,-0.143518496,-0.375925952,0,0,0,0,50,50,34,1,50,69202,2,180,2022-02-10_08h30.14.998,orientation adjustment 2,2021.2.3,Win32,59.63029219,,,,,,,
,,,,,,,,,,,,,,,,,,,,,,25,-65,20,75,-45,20,13,-142,0.386111149,-0.301851932,1,0,0,1.1323,submitButton,-0.15185183,-0.400000027,0,0,0,0,51,51,49,1,65,69202,2,180,2022-02-10_08h30.14.998,orientation adjustment 2,2021.2.3,Win32,59.63029219,,,,,,,
,,,,,,,,,,,,,,,,,,,,,,-46.11111111,-16,20,75,-35.11111111,19.11111111,12.42222222,-118.4222222,0.187037069,-0.309259283,1,0,0,0.3826,submitButton,-0.015740715,-0.351851934,0,0,0,0,52,52,0,1,16,69202,2,180,2022-02-10_08h30.14.998,orientation adjustment 2,2021.2.3,Win32,59.63029219,,,,,,,
,,,,,,,,,,,,,,,,,,,,,,29.44444444,29,20,75,49.44444444,20.44444444,13.28888889,-47.71111111,0.356481519,-0.289814838,1,0,0,0.2336,submitButton,-0.170370292,-0.395370397,0,0,0,0,53,53,13,1,29,69202,2,180,2022-02-10_08h30.14.998,orientation adjustment 2,2021.2.3,Win32,59.63029219,,,,,,,
,,,,,,,,,,,,,,,,,,,,,,-36.11111111,69,20,75,53.88888889,15.11111111,9.822222222,-30.82222222,0.213888922,-0.302777802,1,0,0,0.3827,submitButton,0.035185269,-0.289814838,0,0,0,0,54,54,53,1,69,69202,2,180,2022-02-10_08h30.14.998,orientation adjustment 2,2021.2.3,Win32,59.63029219,,,,,,,
,,,,,,,,,,,,,,,,,,,,,,50.55555556,-21,20,75,-35.44444444,14.44444444,5.777777778,-116.7777778,-0.284259241,-0.412963047,1,0,0,1.749,submitButton,-0.099999976,-0.432407492,0,0,0,0,55,55,5,1,21,69202,2,180,2022-02-10_08h30.14.998,orientation adjustment 2,2021.2.3,Win32,59.63029219,,,,,,,
,,,,,,,,,,,,,,,,,,,,,,39.44444444,-51,20,75,-46.55555556,4.444444444,1.777777778,-139.2222222,0.400000038,-0.310185266,1,0,0,0.0337,submitButton,-0.221296276,-0.390740824,0,0,0,0,56,56,35,1,51,69202,2,180,2022-02-10_08h30.14.998,orientation adjustment 2,2021.2.3,Win32,59.63029219,,,,,,,
,,,,,,,,,,,,,,,,,,,,,,26.66666667,36,20,75,50.66666667,14.66666667,5.866666667,-48.13333333,0.387037075,-0.293518599,1,0,0,0.3663,submitButton,-0.010185159,-0.377777804,0,0,0,0,57,57,20,1,36,69202,2,180,2022-02-10_08h30.14.998,orientation adjustment 2,2021.2.3,Win32,59.63029219,,,,,,,
,,,,,,,,,,,,,,,,,,,,,,-46.66666667,-56,20,75,-218.6666667,17.33333333,11.26666667,-157.2666667,0.237962997,-0.283333357,1,0,0,2.5317,submitButton,-0.013888863,-0.370370396,0,0,0,0,58,58,40,1,56,69202,2,180,2022-02-10_08h30.14.998,orientation adjustment 2,2021.2.3,Win32,59.63029219,,,,,,,
,,,,,,,,,,,,,,,,,,,,,,44.44444444,-25,20,75,-29.55555556,4.555555556,1.822222222,-116.8222222,0.385185223,-0.295370394,1,0,0,0.1327,submitButton,0.475000041,-0.400000027,1,0,0,0,59,59,9,1,25,69202,2,180,2022-02-10_08h30.14.998,orientation adjustment 2,2021.2.3,Win32,59.63029219,pause_continueButton,,,,,,
,,,,,,,,,,,,,,,,,,,,,,-28.33333333,54,20,75,38.66666667,15.33333333,9.966666667,-45.96666667,0.364814852,-0.284259283,1,0,0,0.1328,submitButton,-0.208333313,-0.390740824,0,0,0,1,0,60,38,1,54,69202,2,180,2022-02-10_08h30.14.998,orientation adjustment 2,2021.2.3,Win32,59.63029219,,,,,,,
,,,,,,,,,,,,,,,,,,,,,,-20.55555556,65,20,75,50.44444444,14.55555556,5.822222222,-30.82222222,0.210185218,-0.302777802,1,0,0,0.3664,submitButton,0.150000031,-0.366666692,0,0,0,1,1,61,49,1,65,69202,2,180,2022-02-10_08h30.14.998,orientation adjustment 2,2021.2.3,Win32,59.63029219,,,,,,,
,,,,,,,,,,,,,,,,,,,,,,35,35,20,75,47,12,4.8,-50.2,0.421296335,-0.282407487,1,0,0,0.366,submitButton,0.01759262,-0.357407489,0,0,0,1,2,62,19,1,35,69202,2,180,2022-02-10_08h30.14.998,orientation adjustment 2,2021.2.3,Win32,59.63029219,,,,,,,
,,,,,,,,,,,,,,,,,,,,,,54.44444444,-45,20,75,-35.55555556,9.444444444,3.777777778,-131.2222222,0.382407445,-0.303703728,1,0,0,0.749,submitButton,-0.0564814,-0.34444447,0,0,0,1,3,63,29,1,45,69202,2,180,2022-02-10_08h30.14.998,orientation adjustment 2,2021.2.3,Win32,59.63029219,,,,,,,
,,,,,,,,,,,,,,,,,,,,,,31.11111111,30,20,75,44.11111111,14.11111111,5.644444444,-54.35555556,0.405555594,-0.283333357,1,0,0,0.1161,submitButton,-0.111111088,-0.311111135,0,0,0,1,4,64,14,1,30,69202,2,180,2022-02-10_08h30.14.998,orientation adjustment 2,2021.2.3,Win32,59.63029219,,,,,,,
,,,,,,,,,,,,,,,,,,,,,,-68.88888889,-25,20,75,-44.88888889,19.88888889,12.92777778,-127.9277778,0.2166667,-0.313888913,1,0,0,0.0334,submitButton,-0.131481402,-0.323148173,0,0,0,1,5,65,9,1,25,69202,2,180,2022-02-10_08h30.14.998,orientation adjustment 2,2021.2.3,Win32,59.63029219,,,,,,,
,,,,,,,,,,,,,,,,,,,,,,23.88888889,32,20,75,50.88888889,18.88888889,12.27777778,-45.72222222,0.343518555,-0.306481506,1,0,0,0.4005,submitButton,0.144444475,-0.368518601,0,0,0,1,6,66,16,1,32,69202,2,180,2022-02-10_08h30.14.998,orientation adjustment 2,2021.2.3,Win32,59.63029219,,,,,,,
,,,,,,,,,,,,,,,,,,,,,,-22.22222222,21,20,75,17.77777778,3.222222222,1.288888889,-70.28888889,0.225925959,-0.30462971,1,0,0,0.8997,submitButton,-0.06944442,-0.362963045,0,0,0,1,7,67,5,1,21,69202,2,180,2022-02-10_08h30.14.998,orientation adjustment 2,2021.2.3,Win32,59.63029219,,,,,,,
,,,,,,,,,,,,,,,,,,,,,,36.11111111,-61,20,75,-37.88888889,23.11111111,15.02222222,-135.9777778,0.390740779,-0.29166669,1,0,0,0.5998,submitButton,-0.042592511,-0.353703729,0,0,0,1,8,68,45,1,61,69202,2,180,2022-02-10_08h30.14.998,orientation adjustment 2,2021.2.3,Win32,59.63029219,,,,,,,
,,,,,,,,,,,,,,,,,,,,,,-35,62,20,75,42,20,13,-41,0.228703737,-0.317592617,1,0,0,0.2164,submitButton,0.02129638,-0.319444469,0,0,0,1,9,69,46,1,62,69202,2,180,2022-02-10_08h30.14.998,orientation adjustment 2,2021.2.3,Win32,59.63029219,,,,,,,
,,,,,,,,,,,,,,,,,,,,,,-64.44444444,42,20,75,-124.4444444,13.55555556,5.422222222,-53.42222222,0.405555594,-0.292592616,1,0,0,0.633,submitButton,-0.110185162,-0.347222247,0,0,0,1,10,70,26,1,42,69202,2,180,2022-02-10_08h30.14.998,orientation adjustment 2,2021.2.3,Win32,59.63029219,,,,,,,
,,,,,,,,,,,,,,,,,,,,,,45.55555556,-31,20,75,1.555555556,32.55555556,26.04444444,-94.95555556,0.364814852,-0.306481506,1,0,0,1.1994,submitButton,-0.189814794,-0.391666693,0,0,0,1,11,71,15,1,31,69202,2,180,2022-02-10_08h30.14.998,orientation adjustment 2,2021.2.3,Win32,59.63029219,,,,,,,
,,,,,,,,,,,,,,,,,,,,,,-68.88888889,47,20,75,41.11111111,5.888888889,2.355555556,-45.35555556,0.225925959,-0.307407488,1,0,0,1.0161,submitButton,-0.124999977,-0.365740823,0,0,0,1,12,72,31,1,47,69202,2,180,2022-02-10_08h30.14.998,orientation adjustment 2,2021.2.3,Win32,59.63029219,,,,,,,
,,,,,,,,,,,,,,,,,,,,,,-63.88888889,-73,20,75,-232.8888889,20.11111111,13.07222222,-176.0722222,0.355555593,-0.294444468,1,0,0,0.1326,submitButton,-0.120370291,-0.370370396,0,0,0,1,13,73,57,1,73,69202,2,180,2022-02-10_08h30.14.998,orientation adjustment 2,2021.2.3,Win32,59.63029219,,,,,,,
,,,,,,,,,,,,,,,,,,,,,,55,51,20,75,54,3,1.2,-37.8,-0.204629609,-0.387037063,1,0,0,1.2328,submitButton,0.330555592,-0.424074158,1,0,0,1,14,74,35,1,51,69202,2,180,2022-02-10_08h30.14.998,orientation adjustment 2,2021.2.3,Win32,59.63029219,pause_continueButton,,,,,,
,,,,,,,,,,,,,,,,,,,,,,31.66666667,-17,20,75,-26.33333333,9.333333333,3.733333333,-110.7333333,0.238888922,-0.303703728,1,0,0,0.1999,submitButton,0.005555582,-0.377777804,0,0,0,1,15,75,1,1,17,69202,2,180,2022-02-10_08h30.14.998,orientation adjustment 2,2021.2.3,Win32,59.63029219,,,,,,,
,,,,,,,,,,,,,,,,,,,,,,44.44444444,-44,20,75,-38.55555556,5.444444444,2.177777778,-131.8222222,0.388888927,-0.296296377,1,0,0,0.4997,submitButton,0.105555585,-0.328703728,0,0,0,1,16,76,28,1,44,69202,2,180,2022-02-10_08h30.14.998,orientation adjustment 2,2021.2.3,Win32,59.63029219,,,,,,,
,,,,,,,,,,,,,,,,,,,,,,33.88888889,41,20,75,45.88888889,4.888888889,1.955555556,-47.04444444,0.203703736,-0.289814838,1,0,0,0.7494,submitButton,-0.040740715,-0.362963045,0,0,0,1,17,77,25,1,41,69202,2,180,2022-02-10_08h30.14.998,orientation adjustment 2,2021.2.3,Win32,59.63029219,,,,,,,
,,,,,,,,,,,,,,,,,,,,,,62.77777778,-56,20,75,-41.22222222,14.77777778,5.911111111,-140.0888889,0.399074112,-0.297222246,1,0,0,0.4674,submitButton,-0.123148069,-0.373148174,0,0,0,1,18,78,40,1,56,69202,2,180,2022-02-10_08h30.14.998,orientation adjustment 2,2021.2.3,Win32,59.63029219,,,,,,,
,,,,,,,,,,,,,,,,,,,,,,-45.55555556,-33,20,75,-49.55555556,16.55555556,10.76111111,-133.7611111,0.208333366,-0.295370394,1,0,0,0.2162,submitButton,-0.028703622,-0.325000025,0,0,0,1,19,79,17,1,33,69202,2,180,2022-02-10_08h30.14.998,orientation adjustment 2,2021.2.3,Win32,59.63029219,,,,,,,
,,,,,,,,,,,,,,,,,,,,,,-54.44444444,-58,20,75,-237.4444444,0.555555556,0.222222222,-148.2222222,0.375000038,-0.286111135,1,0,0,2.0819,submitButton,-0.009259177,-0.292592616,0,0,0,1,20,80,42,1,58,69202,2,180,2022-02-10_08h30.14.998,orientation adjustment 2,2021.2.3,Win32,59.63029219,,,,,,,
,,,,,,,,,,,,,,,,,,,,,,-63.33333333,55,20,75,49.66666667,5.333333333,2.133333333,-37.13333333,0.237037071,-0.286111135,1,0,0,0.0171,submitButton,0.044444472,-0.285185265,0,0,0,1,21,81,39,1,55,69202,2,180,2022-02-10_08h30.14.998,orientation adjustment 2,2021.2.3,Win32,59.63029219,,,,,,,
,,,,,,,,,,,,,,,,,,,,,,-26.66666667,52,20,75,44.33333333,7.666666667,3.066666667,-41.06666667,0.390740779,-0.273148171,1,0,0,0.2157,submitButton,-0.206481461,-0.379629712,0,0,0,1,22,82,36,1,52,69202,2,180,2022-02-10_08h30.14.998,orientation adjustment 2,2021.2.3,Win32,59.63029219,,,,,,,
,,,,,,,,,,,,,,,,,,,,,,-22.22222222,-16,20,75,-21.22222222,5.222222222,2.088888889,-108.0888889,0.402777816,-0.30462971,1,0,0,0.5496,submitButton,0.152777809,-0.297222246,0,0,0,1,23,83,0,1,16,69202,2,180,2022-02-10_08h30.14.998,orientation adjustment 2,2021.2.3,Win32,59.63029219,,,,,,,
,,,,,,,,,,,,,,,,,,,,,,-42.22222222,-75,20,75,-63.22222222,11.77777778,4.711111111,-160.2888889,0.25092596,-0.301851932,1,0,0,0.0335,submitButton,-0.045370289,-0.327777802,0,0,0,1,24,84,59,1,75,69202,2,180,2022-02-10_08h30.14.998,orientation adjustment 2,2021.2.3,Win32,59.63029219,,,,,,,
,,,,,,,,,,,,,,,,,,,,,,73.88888889,63,20,75,223.8888889,19.11111111,12.42222222,-14.57777778,0.429629669,-0.295370394,1,0,0,2.049,submitButton,-0.133333311,-0.392592619,0,0,0,1,25,85,47,1,63,69202,2,180,2022-02-10_08h30.14.998,orientation adjustment 2,2021.2.3,Win32,59.63029219,,,,,,,
,,,,,,,,,,,,,,,,,,,,,,23.88888889,66,20,75,59.88888889,6.111111111,2.444444444,-26.44444444,-0.199074054,-0.387037063,1,0,0,0.9994,submitButton,-0.199074054,-0.387037063,0,0,0,1,26,86,50,1,66,69202,2,180,2022-02-10_08h30.14.998,orientation adjustment 2,2021.2.3,Win32,59.63029219,,,,,,,
,,,,,,,,,,,,,,,,,,,,,,-41.11111111,53,20,75,39.88888889,13.11111111,5.244444444,-42.24444444,0.215740774,-0.298148172,1,0,0,0.5827,submitButton,0.016666694,-0.358333359,0,0,0,1,27,87,37,1,53,69202,2,180,2022-02-10_08h30.14.998,orientation adjustment 2,2021.2.3,Win32,59.63029219,,,,,,,
,,,,,,,,,,,,,,,,,,,,,,-39.44444444,-23,20,75,-35.44444444,12.44444444,4.977777778,-117.9777778,0.383333371,-0.285185265,1,0,0,0.1499,submitButton,-0.049999975,-0.363888915,0,0,0,1,28,88,7,1,23,69202,2,180,2022-02-10_08h30.14.998,orientation adjustment 2,2021.2.3,Win32,59.63029219,,,,,,,
,,,,,,,,,,,,,,,,,,,,,,-21.66666667,48,20,75,44.33333333,3.666666667,1.466666667,-43.46666667,0.20277781,-0.319444469,1,0,0,0.5662,submitButton,0.412037076,-0.395370397,1,0,0,1,29,89,32,1,48,69202,2,180,2022-02-10_08h30.14.998,orientation adjustment 2,2021.2.3,Win32,59.63029219,pause_continueButton,,,,,,
,,,,,,,,,,,,,,,,,,,,,,-41.66666667,19,20,75,20.33333333,1.333333333,0.533333333,-70.46666667,0.37685189,-0.303703728,1,0,0,0.1658,submitButton,-0.189814794,-0.398148175,0,0,0,1,30,90,3,1,19,69202,2,180,2022-02-10_08h30.14.998,orientation adjustment 2,2021.2.3,Win32,59.63029219,,,,,,,
,,,,,,,,,,,,,,,,,,,,,,69.44444444,-26,20,75,-28.55555556,2.555555556,1.022222222,-117.0222222,-0.209259239,-0.409259286,1,0,0,1.7802,submitButton,-0.209259239,-0.409259286,0,0,0,1,31,91,10,1,26,69202,2,180,2022-02-10_08h30.14.998,orientation adjustment 2,2021.2.3,Win32,59.63029219,,,,,,,
,,,,,,,,,,,,,,,,,,,,,,72.77777778,68,20,75,223.7777778,24.22222222,15.74444444,-6.255555556,-0.221296276,-0.386111138,1,0,0,2.0135,submitButton,-0.221296276,-0.386111138,0,0,0,1,32,92,52,1,68,69202,2,180,2022-02-10_08h30.14.998,orientation adjustment 2,2021.2.3,Win32,59.63029219,,,,,,,
,,,,,,,,,,,,,,,,,,,,,,22.77777778,46,20,75,53.77777778,7.777777778,3.111111111,-40.88888889,0.197222255,-0.319444469,1,0,0,1.5333,submitButton,0.037963047,-0.325925951,0,0,0,1,33,93,30,1,46,69202,2,180,2022-02-10_08h30.14.998,orientation adjustment 2,2021.2.3,Win32,59.63029219,,,,,,,
,,,,,,,,,,,,,,,,,,,,,,-49.44444444,34,20,75,31.55555556,2.444444444,0.977777778,-56.97777778,-0.182407386,-0.394444471,1,0,0,1.4994,submitButton,-0.182407386,-0.394444471,0,0,0,1,34,94,18,1,34,69202,2,180,2022-02-10_08h30.14.998,orientation adjustment 2,2021.2.3,Win32,59.63029219,,,,,,,
,,,,,,,,,,,,,,,,,,,,,,60.55555556,-28,20,75,-31.44444444,3.444444444,1.377777778,-119.3777778,0.217592626,-0.293518599,1,0,0,0.1497,submitButton,-0.192592572,-0.386111138,0,0,0,1,35,95,12,1,28,69202,2,180,2022-02-10_08h30.14.998,orientation adjustment 2,2021.2.3,Win32,59.63029219,,,,,,,
,,,,,,,,,,,,,,,,,,,,,,-51.11111111,-49,20,75,-217.1111111,11.88888889,4.755555556,-143.7555556,0.419444483,-0.286111135,1,0,0,2.1294,submitButton,0.043518603,-0.269444467,0,0,0,1,36,96,33,1,49,69202,2,180,2022-02-10_08h30.14.998,orientation adjustment 2,2021.2.3,Win32,59.63029219,,,,,,,
,,,,,,,,,,,,,,,,,,,,,,-46.66666667,-20,20,75,-45.66666667,25.66666667,16.68333333,-126.6833333,0.15925929,-0.294444468,1,0,0,0.3504,submitButton,-0.203703683,-0.392592619,0,0,0,1,37,97,4,1,20,69202,2,180,2022-02-10_08h30.14.998,orientation adjustment 2,2021.2.3,Win32,59.63029219,,,,,,,
,,,,,,,,,,,,,,,,,,,,,,-43.33333333,70,20,75,50.66666667,19.33333333,12.56666667,-32.56666667,0.369444482,-0.295370394,1,0,0,0.019,submitButton,-0.155555534,-0.40833336,0,0,0,1,38,98,54,1,70,69202,2,180,2022-02-10_08h30.14.998,orientation adjustment 2,2021.2.3,Win32,59.63029219,,,,,,,
,,,,,,,,,,,,,,,,,,,,,,73.88888889,39,20,75,71.88888889,32.88888889,26.31111111,-24.68888889,-0.230555536,-0.42222225,1,0,0,1.3335,submitButton,-0.079629606,-0.274074154,0,0,0,1,39,99,23,1,39,69202,2,180,2022-02-10_08h30.14.998,orientation adjustment 2,2021.2.3,Win32,59.63029219,,,,,,,
,,,,,,,,,,,,,,,,,,,,,,74.44444444,71,20,75,238.4444444,12.55555556,5.022222222,-13.97777778,-0.194444424,-0.420370398,1,0,0,2.2502,submitButton,-0.194444424,-0.420370398,0,0,0,1,40,100,55,1,71,69202,2,180,2022-02-10_08h30.14.998,orientation adjustment 2,2021.2.3,Win32,59.63029219,,,,,,,
,,,,,,,,,,,,,,,,,,,,,,54.44444444,40,20,75,57.44444444,17.44444444,11.33888889,-38.66111111,-0.250925907,-0.412963047,1,0,0,1.1974,submitButton,-0.162036959,-0.368518601,0,0,0,1,41,101,24,1,40,69202,2,180,2022-02-10_08h30.14.998,orientation adjustment 2,2021.2.3,Win32,59.63029219,,,,,,,
,,,,,,,,,,,,,,,,,,,,,,-27.77777778,-38,20,75,-52.77777778,14.77777778,5.911111111,-133.9111111,0.386111149,-0.297222246,1,0,0,0.3169,submitButton,0.220370403,-0.275000023,0,0,0,1,42,102,22,1,38,69202,2,180,2022-02-10_08h30.14.998,orientation adjustment 2,2021.2.3,Win32,59.63029219,,,,,,,
,,,,,,,,,,,,,,,,,,,,,,-65.55555556,72,20,75,33.44444444,38.55555556,30.84444444,-48.84444444,0.213888922,-0.310185266,1,0,0,0.4495,submitButton,-0.115740718,-0.409259286,0,0,0,1,43,103,56,1,72,69202,2,180,2022-02-10_08h30.14.998,orientation adjustment 2,2021.2.3,Win32,59.63029219,,,,,,,
,,,,,,,,,,,,,,,,,,,,,,32.77777778,74,20,75,76.77777778,2.777777778,1.111111111,-14.88888889,0.424074113,-0.289814838,1,0,0,0.0822,submitButton,0.394444483,-0.398148175,1,0,0,1,44,104,58,1,74,69202,2,180,2022-02-10_08h30.14.998,orientation adjustment 2,2021.2.3,Win32,59.63029219,pause_continueButton,,,,,,
,,,,,,,,,,,,,,,,,,,,,,-42.22222222,-60,20,75,-57.22222222,2.777777778,1.111111111,-148.8888889,-0.283333315,-0.39629638,1,0,0,1.4829,submitButton,-0.283333315,-0.39629638,0,0,0,1,45,105,44,1,60,69202,2,180,2022-02-10_08h30.14.998,orientation adjustment 2,2021.2.3,Win32,59.63029219,,,,,,,
,,,,,,,,,,,,,,,,,,,,,,-51.66666667,24,20,75,17.33333333,6.666666667,2.666666667,-68.66666667,-0.208333313,-0.399074157,1,0,0,1.266,submitButton,0.187962995,-0.139814834,0,0,0,1,46,106,8,1,24,69202,2,180,2022-02-10_08h30.14.998,orientation adjustment 2,2021.2.3,Win32,59.63029219,,,,,,,
,,,,,,,,,,,,,,,,,,,,,,-35.55555556,-64,20,75,-69.55555556,5.555555556,2.222222222,-156.2222222,0.409259298,-0.310185266,1,0,0,0.4462,submitButton,-0.282407389,-0.387963046,0,0,0,1,47,107,48,1,64,69202,2,180,2022-02-10_08h30.14.998,orientation adjustment 2,2021.2.3,Win32,59.63029219,,,,,,,
,,,,,,,,,,,,,,,,,,,,,,-73.33333333,22,20,75,-133.3333333,24.66666667,16.03333333,-84.03333333,0.353703741,-0.287963043,1,0,0,0.0464,submitButton,-0.305555538,-0.393518602,0,0,0,1,48,108,6,1,22,69202,2,180,2022-02-10_08h30.14.998,orientation adjustment 2,2021.2.3,Win32,59.63029219,,,,,,,
,,,,,,,,,,,,,,,,,,,,,,-72.22222222,50,20,75,40.77777778,9.222222222,3.688888889,-43.68888889,0.219444477,-0.323148173,1,0,0,0.766,submitButton,-0.09537029,-0.349074156,0,0,0,1,49,109,34,1,50,69202,2,180,2022-02-10_08h30.14.998,orientation adjustment 2,2021.2.3,Win32,59.63029219,,,,,,,
,,,,,,,,,,,,,,,,,,,,,,-42.77777778,-43,20,75,-61.77777778,18.77777778,12.20555556,-145.2055556,0.234259293,-0.30555558,1,0,0,0.1995,submitButton,0.28055559,-0.052777794,0,0,0,1,50,110,27,1,43,69202,2,180,2022-02-10_08h30.14.998,orientation adjustment 2,2021.2.3,Win32,59.63029219,,,,,,,
,,,,,,,,,,,,,,,,,,,,,,53.33333333,29,20,75,50.33333333,21.33333333,13.86666667,-47.13333333,-0.217592573,-0.387963046,1,0,0,0.8141,submitButton,-0.217592573,-0.387963046,0,0,0,1,51,111,13,1,29,69202,2,180,2022-02-10_08h30.14.998,orientation adjustment 2,2021.2.3,Win32,59.63029219,,,,,,,
,,,,,,,,,,,,,,,,,,,,,,-52.22222222,-57,20,75,-69.22222222,12.22222222,4.888888889,-151.8888889,0.167592624,-0.319444469,1,0,0,0.0666,submitButton,-0.042592511,-0.240740819,0,0,0,1,52,112,41,1,57,69202,2,180,2022-02-10_08h30.14.998,orientation adjustment 2,2021.2.3,Win32,59.63029219,,,,,,,
,,,,,,,,,,,,,,,,,,,,,,60,-59,20,75,-47,12,4.8,-144.2,0.460185225,-0.308333357,1,0,0,0.9833,submitButton,-0.156481403,-0.410185269,0,0,0,1,53,113,43,1,59,69202,2,180,2022-02-10_08h30.14.998,orientation adjustment 2,2021.2.3,Win32,59.63029219,,,,,,,
,,,,,,,,,,,,,,,,,,,,,,-50,-37,20,75,-56,19,12.35,-139.35,-0.269444426,-0.405555583,1,0,0,0.9144,submitButton,-0.269444426,-0.405555583,0,0,0,1,54,114,21,1,37,69202,2,180,2022-02-10_08h30.14.998,orientation adjustment 2,2021.2.3,Win32,59.63029219,,,,,,,
,,,,,,,,,,,,,,,,,,,,,,50.55555556,69,20,75,69.55555556,0.555555556,0.222222222,-20.77777778,0.37222226,-0.300000024,1,0,0,0.8001,submitButton,-0.177777757,-0.403703731,0,0,0,1,55,115,53,1,69,69202,2,180,2022-02-10_08h30.14.998,orientation adjustment 2,2021.2.3,Win32,59.63029219,,,,,,,
,,,,,,,,,,,,,,,,,,,,,,22.77777778,18,20,75,29.77777778,11.77777778,4.711111111,-67.28888889,0.36759263,-0.297222246,1,0,0,0.1506,submitButton,-0.174074053,-0.393518602,0,0,0,1,56,116,2,1,18,69202,2,180,2022-02-10_08h30.14.998,orientation adjustment 2,2021.2.3,Win32,59.63029219,,,,,,,
,,,,,,,,,,,,,,,,,,,,,,-62.22222222,27,20,75,28.77777778,1.777777778,0.711111111,-62.28888889,-0.162036959,-0.385185268,1,0,0,1.5297,submitButton,-0.162036959,-0.385185268,0,0,0,1,57,117,11,1,27,69202,2,180,2022-02-10_08h30.14.998,orientation adjustment 2,2021.2.3,Win32,59.63029219,,,,,,,
,,,,,,,,,,,,,,,,,,,,,,-20,-67,20,75,-75,8,3.2,-160.2,0.382407445,-0.299074154,1,0,0,0.248,submitButton,-0.192592572,-0.389814841,0,0,0,1,58,118,51,1,67,69202,2,180,2022-02-10_08h30.14.998,orientation adjustment 2,2021.2.3,Win32,59.63029219,,,,,,,
,,,,,,,,,,,,,,,,,,,,,,68.33333333,-36,20,75,-39.66666667,3.666666667,1.466666667,-127.4666667,0.396296335,-0.303703728,1,0,0,0.2652,submitButton,0.417592632,-0.413888916,1,0,0,1,59,119,20,1,36,69202,2,180,2022-02-10_08h30.14.998,orientation adjustment 2,2021.2.3,Win32,59.63029219,pause_continueButton,,,,,,
,,,,,,,,,,,,,,,,,,,,,,23.88888889,58,20,75,69.88888889,11.88888889,4.755555556,-27.24444444,0.384259297,-0.30555558,1,0,0,0.2839,submitButton,-0.161111089,-0.400000027,0,0,0,2,0,120,42,1,58,69202,2,180,2022-02-10_08h30.14.998,orientation adjustment 2,2021.2.3,Win32,59.63029219,,,,,,,
,,,,,,,,,,,,,,,,,,,,,,-38.33333333,-38,20,75,-63.33333333,25.33333333,16.46666667,-144.4666667,0.383333371,-0.29166669,1,0,0,0.051,submitButton,-0.192592572,-0.403703731,0,0,0,2,1,121,22,1,38,69202,2,180,2022-02-10_08h30.14.998,orientation adjustment 2,2021.2.3,Win32,59.63029219,,,,,,,
,,,,,,,,,,,,,,,,,,,,,,-55.55555556,71,20,75,37.44444444,33.55555556,26.84444444,-45.84444444,0.199074106,-0.312963044,1,0,0,0.0478,submitButton,-0.0564814,-0.335185267,0,0,0,2,2,122,55,1,71,69202,2,180,2022-02-10_08h30.14.998,orientation adjustment 2,2021.2.3,Win32,59.63029219,,,,,,,
,,,,,,,,,,,,,,,,,,,,,,22.77777778,28,20,75,28.77777778,0.777777778,0.311111111,-61.68888889,-0.193518498,-0.401851935,1,0,0,0.8145,submitButton,-0.193518498,-0.401851935,0,0,0,2,3,123,12,1,28,69202,2,180,2022-02-10_08h30.14.998,orientation adjustment 2,2021.2.3,Win32,59.63029219,,,,,,,
,,,,,,,,,,,,,,,,,,,,,,20,-48,20,75,-38,10,4,-134,0.217592626,-0.315740822,1,0,0,0.0691,submitButton,-0.210185165,-0.409259286,0,0,0,2,4,124,32,1,48,69202,2,180,2022-02-10_08h30.14.998,orientation adjustment 2,2021.2.3,Win32,59.63029219,,,,,,,
,,,,,,,,,,,,,,,,,,,,,,-37.22222222,68,20,75,47.77777778,20.22222222,13.14444444,-35.14444444,0.217592626,-0.308333357,1,0,0,0.1308,submitButton,-0.200925905,-0.405555583,0,0,0,2,5,125,52,1,68,69202,2,180,2022-02-10_08h30.14.998,orientation adjustment 2,2021.2.3,Win32,59.63029219,,,,,,,
,,,,,,,,,,,,,,,,,,,,,,-27.77777778,-29,20,75,-32.77777778,3.777777778,1.511111111,-120.5111111,0.368518556,-0.296296377,1,0,0,0.1332,submitButton,-0.145370292,-0.406481508,0,0,0,2,6,126,13,1,29,69202,2,180,2022-02-10_08h30.14.998,orientation adjustment 2,2021.2.3,Win32,59.63029219,,,,,,,
,,,,,,,,,,,,,,,,,,,,,,-48.88888889,16,20,75,15.11111111,0.888888889,0.355555556,-74.35555556,0.359259296,-0.29166669,1,0,0,0.083,submitButton,-0.135185163,-0.397222249,0,0,0,2,7,127,0,1,16,69202,2,180,2022-02-10_08h30.14.998,orientation adjustment 2,2021.2.3,Win32,59.63029219,,,,,,,
,,,,,,,,,,,,,,,,,,,,,,-58.33333333,31,20,75,38.66666667,7.666666667,3.066666667,-55.93333333,0.392592631,-0.28703706,1,0,0,1.8863,submitButton,0.100000029,-0.235185264,0,0,0,2,8,128,15,1,31,69202,2,180,2022-02-10_08h30.14.998,orientation adjustment 2,2021.2.3,Win32,59.63029219,,,,,,,
,,,,,,,,,,,,,,,,,,,,,,36.66666667,60,20,75,58.66666667,1.333333333,0.533333333,-30.53333333,0.361111148,-0.288888912,1,0,0,0.0692,submitButton,-0.18611109,-0.390740824,0,0,0,2,9,129,44,1,60,69202,2,180,2022-02-10_08h30.14.998,orientation adjustment 2,2021.2.3,Win32,59.63029219,,,,,,,
,,,,,,,,,,,,,,,,,,,,,,-67.22222222,55,20,75,38.77777778,16.22222222,10.54444444,-45.54444444,-0.228703684,-0.409259286,1,0,0,1.3968,submitButton,0.073148177,-0.303703728,0,0,0,2,10,130,39,1,55,69202,2,180,2022-02-10_08h30.14.998,orientation adjustment 2,2021.2.3,Win32,59.63029219,,,,,,,
,,,,,,,,,,,,,,,,,,,,,,-42.22222222,-43,20,75,-58.22222222,15.22222222,9.894444444,-142.8944444,0.409259298,-0.298148172,1,0,0,0.5692,submitButton,-0.072222198,-0.342592618,0,0,0,2,11,131,27,1,43,69202,2,180,2022-02-10_08h30.14.998,orientation adjustment 2,2021.2.3,Win32,59.63029219,,,,,,,
,,,,,,,,,,,,,,,,,,,,,,-25,30,20,75,23,7,2.8,-62.8,0.229629663,-0.296296377,1,0,0,0.2635,submitButton,0.032407491,-0.218518596,0,0,0,2,12,132,14,1,30,69202,2,180,2022-02-10_08h30.14.998,orientation adjustment 2,2021.2.3,Win32,59.63029219,,,,,,,
,,,,,,,,,,,,,,,,,,,,,,-45.55555556,35,20,75,31.44444444,3.555555556,1.422222222,-56.42222222,0.2166667,-0.283333357,1,0,0,0.6671,submitButton,-0.066666642,-0.366666692,0,0,0,2,13,133,19,1,35,69202,2,180,2022-02-10_08h30.14.998,orientation adjustment 2,2021.2.3,Win32,59.63029219,,,,,,,
,,,,,,,,,,,,,,,,,,,,,,-39.44444444,57,20,75,42.55555556,14.44444444,5.777777778,-38.77777778,0.213888922,-0.292592616,1,0,0,0.2675,submitButton,0.271296331,-0.398148175,1,0,0,2,14,134,41,1,57,69202,2,180,2022-02-10_08h30.14.998,orientation adjustment 2,2021.2.3,Win32,59.63029219,pause_continueButton,,,,,,
,,,,,,,,,,,,,,,,,,,,,,-42.77777778,42,20,75,24.22222222,17.77777778,11.55555556,-59.55555556,0.209259292,-0.314814839,1,0,0,0.1664,submitButton,-0.23888887,-0.395370397,0,0,0,2,15,135,26,1,42,69202,2,180,2022-02-10_08h30.14.998,orientation adjustment 2,2021.2.3,Win32,59.63029219,,,,,,,
,,,,,,,,,,,,,,,,,,,,,,58.88888889,-70,20,75,-33.11111111,36.88888889,29.51111111,-130.4888889,0.368518556,-0.293518599,1,0,0,0.3306,submitButton,-0.253703685,-0.403703731,0,0,0,2,16,136,54,1,70,69202,2,180,2022-02-10_08h30.14.998,orientation adjustment 2,2021.2.3,Win32,59.63029219,,,,,,,
,,,,,,,,,,,,,,,,,,,,,,20.55555556,-52,20,75,-36.44444444,15.55555556,10.11111111,-131.8888889,0.383333371,-0.318518599,1,0,0,0.183,submitButton,-0.121296273,-0.306481506,0,0,0,2,17,137,36,1,52,69202,2,180,2022-02-10_08h30.14.998,orientation adjustment 2,2021.2.3,Win32,59.63029219,,,,,,,
,,,,,,,,,,,,,,,,,,,,,,66.11111111,27,20,75,227.1111111,20.11111111,13.07222222,-49.92777778,0.20740744,-0.281481505,1,0,0,2.1493,submitButton,0.04722225,-0.298148172,0,0,0,2,18,138,11,1,27,69202,2,180,2022-02-10_08h30.14.998,orientation adjustment 2,2021.2.3,Win32,59.63029219,,,,,,,
,,,,,,,,,,,,,,,,,,,,,,-45,-45,20,75,-214,11,4.4,-139.4,0.379629667,-0.295370394,1,0,0,0.069,submitButton,-0.15185183,-0.397222249,0,0,0,2,19,139,29,1,45,69202,2,180,2022-02-10_08h30.14.998,orientation adjustment 2,2021.2.3,Win32,59.63029219,,,,,,,
,,,,,,,,,,,,,,,,,,,,,,-35.55555556,22,20,75,-138.5555556,19.44444444,12.63888889,-80.63888889,0.381481519,-0.313888913,1,0,0,0.2645,submitButton,-0.199999979,-0.386111138,0,0,0,2,20,140,6,1,22,69202,2,180,2022-02-10_08h30.14.998,orientation adjustment 2,2021.2.3,Win32,59.63029219,,,,,,,
,,,,,,,,,,,,,,,,,,,,,,73.33333333,-73,20,75,-56.66666667,16.33333333,10.61666667,-152.3833333,0.405555594,-0.298148172,1,0,0,0.1846,submitButton,-0.174074053,-0.38333336,0,0,0,2,21,141,57,1,73,69202,2,180,2022-02-10_08h30.14.998,orientation adjustment 2,2021.2.3,Win32,59.63029219,,,,,,,
,,,,,,,,,,,,,,,,,,,,,,-72.77777778,-63,20,75,-60.77777778,2.222222222,0.888888889,-152.1111111,-0.150925847,-0.388888915,1,0,0,1.8294,submitButton,0.077777807,-0.310185266,0,0,0,2,22,142,47,1,63,69202,2,180,2022-02-10_08h30.14.998,orientation adjustment 2,2021.2.3,Win32,59.63029219,,,,,,,
,,,,,,,,,,,,,,,,,,,,,,68.88888889,-20,20,75,137.8888889,22.11111111,14.37222222,-95.62777778,-0.171296275,-0.400000027,1,0,0,2.1167,submitButton,-0.171296275,-0.400000027,0,0,0,2,23,143,4,1,20,69202,2,180,2022-02-10_08h30.14.998,orientation adjustment 2,2021.2.3,Win32,59.63029219,,,,,,,
,,,,,,,,,,,,,,,,,,,,,,29.44444444,37,20,75,57.44444444,20.44444444,13.28888889,-39.71111111,0.20277781,-0.277777801,1,0,0,0.3664,submitButton,-0.199999979,-0.39629638,0,0,0,2,24,144,21,1,37,69202,2,180,2022-02-10_08h30.14.998,orientation adjustment 2,2021.2.3,Win32,59.63029219,,,,,,,
,,,,,,,,,,,,,,,,,,,,,,-38.33333333,18,20,75,19.66666667,1.666666667,0.666666667,-71.33333333,0.228703737,-0.289814838,1,0,0,0.1145,submitButton,-0.149999978,-0.400925953,0,0,0,2,25,145,2,1,18,69202,2,180,2022-02-10_08h30.14.998,orientation adjustment 2,2021.2.3,Win32,59.63029219,,,,,,,
,,,,,,,,,,,,,,,,,,,,,,41.66666667,74,20,75,223.6666667,30.33333333,24.26666667,8.266666667,0.181481513,-0.321296377,1,0,0,2.0295,submitButton,-0.14814807,-0.412963047,0,0,0,2,26,146,58,1,74,69202,2,180,2022-02-10_08h30.14.998,orientation adjustment 2,2021.2.3,Win32,59.63029219,,,,,,,
,,,,,,,,,,,,,,,,,,,,,,-42.77777778,-23,20,75,-53.77777778,30.77777778,24.62222222,-137.6222222,0.402777816,-0.292592616,1,0,0,0.2162,submitButton,-0.058333309,-0.348148173,0,0,0,2,27,147,7,1,23,69202,2,180,2022-02-10_08h30.14.998,orientation adjustment 2,2021.2.3,Win32,59.63029219,,,,,,,
,,,,,,,,,,,,,,,,,,,,,,66.66666667,-46,20,75,-17.33333333,28.66666667,18.63333333,-117.3666667,0.375925964,-0.294444468,1,0,0,0.3855,submitButton,-0.180555534,-0.407407491,0,0,0,2,28,148,30,1,46,69202,2,180,2022-02-10_08h30.14.998,orientation adjustment 2,2021.2.3,Win32,59.63029219,,,,,,,
,,,,,,,,,,,,,,,,,,,,,,35.55555556,33,20,75,57.55555556,24.55555556,15.96111111,-41.03888889,0.366666704,-0.299074154,1,0,0,0.3165,submitButton,0.29444448,-0.400000027,1,0,0,2,29,149,17,1,33,69202,2,180,2022-02-10_08h30.14.998,orientation adjustment 2,2021.2.3,Win32,59.63029219,pause_continueButton,,,,,,
,,,,,,,,,,,,,,,,,,,,,,71.11111111,44,20,75,51.11111111,7.111111111,2.844444444,-43.15555556,0.358333371,-0.315740822,1,0,0,0.0668,submitButton,0.069444473,-0.313888913,0,0,0,2,30,150,28,1,44,69202,2,180,2022-02-10_08h30.14.998,orientation adjustment 2,2021.2.3,Win32,59.63029219,,,,,,,
,,,,,,,,,,,,,,,,,,,,,,-47.22222222,-59,20,75,-214.2222222,24.77777778,16.10555556,-165.1055556,-0.207407387,-0.395370397,1,0,0,2.4114,submitButton,-0.207407387,-0.395370397,0,0,0,2,31,151,43,1,59,69202,2,180,2022-02-10_08h30.14.998,orientation adjustment 2,2021.2.3,Win32,59.63029219,,,,,,,
,,,,,,,,,,,,,,,,,,,,,,63.33333333,50,20,75,219.3333333,10.66666667,4.266666667,-35.73333333,0.380555593,-0.289814838,1,0,0,2.4118,submitButton,-0.200925905,-0.397222249,0,0,0,2,32,152,34,1,50,69202,2,180,2022-02-10_08h30.14.998,orientation adjustment 2,2021.2.3,Win32,59.63029219,,,,,,,
,,,,,,,,,,,,,,,,,,,,,,41.11111111,75,20,75,65.11111111,9.888888889,3.955555556,-18.95555556,-0.333333317,-0.415740825,1,0,0,1.4995,submitButton,-0.266666648,-0.355555581,0,0,0,2,33,153,59,1,75,69202,2,180,2022-02-10_08h30.14.998,orientation adjustment 2,2021.2.3,Win32,59.63029219,,,,,,,
,,,,,,,,,,,,,,,,,,,,,,68.33333333,-62,20,75,-40.66666667,21.33333333,13.86666667,-138.1333333,-0.206481461,-0.428703731,1,0,0,1.1136,submitButton,-0.089814734,-0.355555581,0,0,0,2,34,154,46,1,62,69202,2,180,2022-02-10_08h30.14.998,orientation adjustment 2,2021.2.3,Win32,59.63029219,,,,,,,
,,,,,,,,,,,,,,,,,,,,,,56.11111111,69,20,75,230.1111111,18.88888889,12.27777778,-8.722222222,-0.174074053,-0.392592619,1,0,0,2.05,submitButton,-0.174074053,-0.392592619,0,0,0,2,35,155,53,1,69,69202,2,180,2022-02-10_08h30.14.998,orientation adjustment 2,2021.2.3,Win32,59.63029219,,,,,,,
,,,,,,,,,,,,,,,,,,,,,,33.33333333,-25,20,75,-24.66666667,0.333333333,0.133333333,-114.8666667,0.381481519,-0.309259283,1,0,0,0.4329,submitButton,-0.206481461,-0.400925953,0,0,0,2,36,156,9,1,25,69202,2,180,2022-02-10_08h30.14.998,orientation adjustment 2,2021.2.3,Win32,59.63029219,,,,,,,
,,,,,,,,,,,,,,,,,,,,,,20.55555556,-36,20,75,-19.44444444,16.55555556,10.76111111,-115.2388889,-0.189814794,-0.381481508,1,0,0,0.8999,submitButton,-0.094444421,-0.346296378,0,0,0,2,37,157,20,1,36,69202,2,180,2022-02-10_08h30.14.998,orientation adjustment 2,2021.2.3,Win32,59.63029219,,,,,,,
,,,,,,,,,,,,,,,,,,,,,,36.11111111,-64,20,75,-42.88888889,21.11111111,13.72222222,-140.2777778,0.388888927,-0.282407487,1,0,0,0.0337,submitButton,-0.128703625,-0.356481507,0,0,0,2,38,158,48,1,64,69202,2,180,2022-02-10_08h30.14.998,orientation adjustment 2,2021.2.3,Win32,59.63029219,,,,,,,
,,,,,,,,,,,,,,,,,,,,,,-37.22222222,19,20,75,20.77777778,1.777777778,0.711111111,-70.28888889,0.214814848,-0.320370395,1,0,0,0.1471,submitButton,-0.041666641,-0.347222247,0,0,0,2,39,159,3,1,19,69202,2,180,2022-02-10_08h30.14.998,orientation adjustment 2,2021.2.3,Win32,59.63029219,,,,,,,
,,,,,,,,,,,,,,,,,,,,,,62.77777778,54,20,75,223.7777778,10.22222222,4.088888889,-31.91111111,0.184259291,-0.308333357,1,0,0,0.0151,submitButton,-0.098148068,-0.324074155,0,0,0,2,40,160,38,1,54,69202,2,180,2022-02-10_08h30.14.998,orientation adjustment 2,2021.2.3,Win32,59.63029219,,,,,,,
,,,,,,,,,,,,,,,,,,,,,,35.55555556,66,20,75,72.55555556,6.555555556,2.622222222,-21.37777778,0.350000037,-0.290740821,1,0,0,0.2,submitButton,-0.143518496,-0.347222247,0,0,0,2,41,161,50,1,66,69202,2,180,2022-02-10_08h30.14.998,orientation adjustment 2,2021.2.3,Win32,59.63029219,,,,,,,
,,,,,,,,,,,,,,,,,,,,,,-71.66666667,51,20,75,17.33333333,33.66666667,26.93333333,-65.93333333,0.187962995,-0.297222246,1,0,0,0.2837,submitButton,-0.154629608,-0.373148174,0,0,0,2,42,162,35,1,51,69202,2,180,2022-02-10_08h30.14.998,orientation adjustment 2,2021.2.3,Win32,59.63029219,,,,,,,
,,,,,,,,,,,,,,,,,,,,,,-44.44444444,-24,20,75,-50.44444444,26.44444444,17.18888889,-131.1888889,0.366666704,-0.303703728,1,0,0,0.0994,submitButton,-0.161111089,-0.400000027,0,0,0,2,43,163,8,1,24,69202,2,180,2022-02-10_08h30.14.998,orientation adjustment 2,2021.2.3,Win32,59.63029219,,,,,,,
,,,,,,,,,,,,,,,,,,,,,,30,-53,20,75,-31,22,14.3,-128.7,0.40185189,-0.30555558,1,0,0,0.3667,submitButton,0.400925964,-0.388888915,1,0,0,2,44,164,37,1,53,69202,2,180,2022-02-10_08h30.14.998,orientation adjustment 2,2021.2.3,Win32,59.63029219,pause_continueButton,,,,,,
,,,,,,,,,,,,,,,,,,,,,,56.11111111,-32,20,75,-18.88888889,13.11111111,5.244444444,-116.7555556,0.377777816,-0.323148173,1,0,0,0.0856,submitButton,-0.166666645,-0.402777805,0,0,0,2,45,165,16,1,32,69202,2,180,2022-02-10_08h30.14.998,orientation adjustment 2,2021.2.3,Win32,59.63029219,,,,,,,
,,,,,,,,,,,,,,,,,,,,,,57.77777778,-40,20,75,-38.22222222,1.777777778,0.711111111,-129.2888889,0.364814852,-0.30555558,1,0,0,0.9167,submitButton,-0.140740718,-0.40833336,0,0,0,2,46,166,24,1,40,69202,2,180,2022-02-10_08h30.14.998,orientation adjustment 2,2021.2.3,Win32,59.63029219,,,,,,,
,,,,,,,,,,,,,,,,,,,,,,-52.77777778,67,20,75,46.22222222,20.77777778,13.50555556,-36.50555556,0.198148181,-0.314814839,1,0,0,0.0494,submitButton,0.037963047,-0.216666688,0,0,0,2,47,167,51,1,67,69202,2,180,2022-02-10_08h30.14.998,orientation adjustment 2,2021.2.3,Win32,59.63029219,,,,,,,
,,,,,,,,,,,,,,,,,,,,,,-71.11111111,-39,20,75,-216.1111111,2.888888889,1.155555556,-130.1555556,0.395370409,-0.294444468,1,0,0,0.0825,submitButton,-0.149074052,-0.400000027,0,0,0,2,48,168,23,1,39,69202,2,180,2022-02-10_08h30.14.998,orientation adjustment 2,2021.2.3,Win32,59.63029219,,,,,,,
,,,,,,,,,,,,,,,,,,,,,,55,26,20,75,44,18,11.7,-52.3,0.20740744,-0.325925951,1,0,0,0.316,submitButton,-0.015740715,-0.258333356,0,0,0,2,49,169,10,1,26,69202,2,180,2022-02-10_08h30.14.998,orientation adjustment 2,2021.2.3,Win32,59.63029219,,,,,,,
,,,,,,,,,,,,,,,,,,,,,,67.77777778,41,20,75,49.77777778,8.777777778,3.511111111,-45.48888889,0.205555588,-0.328703728,1,0,0,1.7308,submitButton,-0.204629609,-0.416666694,0,0,0,2,50,170,25,1,41,69202,2,180,2022-02-10_08h30.14.998,orientation adjustment 2,2021.2.3,Win32,59.63029219,,,,,,,
,,,,,,,,,,,,,,,,,,,,,,57.22222222,-49,20,75,-42.77777778,6.222222222,2.488888889,-136.5111111,-0.213888869,-0.405555583,1,0,0,1.6332,submitButton,-0.187037016,-0.376851934,0,0,0,2,51,171,33,1,49,69202,2,180,2022-02-10_08h30.14.998,orientation adjustment 2,2021.2.3,Win32,59.63029219,,,,,,,
,,,,,,,,,,,,,,,,,,,,,,-55,-61,20,75,-226,15,9.75,-160.75,-0.279629611,-0.397222249,1,0,0,2.23,submitButton,-0.279629611,-0.397222249,0,0,0,2,52,172,45,1,61,69202,2,180,2022-02-10_08h30.14.998,orientation adjustment 2,2021.2.3,Win32,59.63029219,,,,,,,
,,,,,,,,,,,,,,,,,,,,,,35.55555556,-47,20,75,-37.44444444,9.555555556,3.822222222,-133.1777778,0.199074106,-0.312963044,1,0,0,0.1178,submitButton,-0.212037017,-0.42129638,0,0,0,2,53,173,31,1,47,69202,2,180,2022-02-10_08h30.14.998,orientation adjustment 2,2021.2.3,Win32,59.63029219,,,,,,,
,,,,,,,,,,,,,,,,,,,,,,74.44444444,34,20,75,209.4444444,4.555555556,1.822222222,-54.17777778,0.245370404,-0.318518599,1,0,0,0.033,submitButton,-0.1472222,-0.395370397,0,0,0,2,54,174,18,1,34,69202,2,180,2022-02-10_08h30.14.998,orientation adjustment 2,2021.2.3,Win32,59.63029219,,,,,,,
,,,,,,,,,,,,,,,,,,,,,,51.11111111,-56,20,75,-36.88888889,19.11111111,12.42222222,-133.5777778,0.394444483,-0.30462971,1,0,0,0.0508,submitButton,-0.024074048,-0.271296376,0,0,0,2,55,175,40,1,56,69202,2,180,2022-02-10_08h30.14.998,orientation adjustment 2,2021.2.3,Win32,59.63029219,,,,,,,
,,,,,,,,,,,,,,,,,,,,,,-23.33333333,65,20,75,58.66666667,6.333333333,2.533333333,-27.53333333,0.220370403,-0.292592616,1,0,0,0.0471,submitButton,-0.130555533,-0.397222249,0,0,0,2,56,176,49,1,65,69202,2,180,2022-02-10_08h30.14.998,orientation adjustment 2,2021.2.3,Win32,59.63029219,,,,,,,
,,,,,,,,,,,,,,,,,,,,,,35.55555556,17,20,75,28.55555556,11.55555556,4.622222222,-68.37777778,0.371296334,-0.323148173,1,0,0,0.1638,submitButton,-0.066666642,-0.359259285,0,0,0,2,57,177,1,1,17,69202,2,180,2022-02-10_08h30.14.998,orientation adjustment 2,2021.2.3,Win32,59.63029219,,,,,,,
,,,,,,,,,,,,,,,,,,,,,,-32.77777778,21,20,75,15.22222222,5.777777778,2.311111111,-71.31111111,0.210185218,-0.321296377,1,0,0,0.0508,submitButton,-0.100925846,-0.393518602,0,0,0,2,58,178,5,1,21,69202,2,180,2022-02-10_08h30.14.998,orientation adjustment 2,2021.2.3,Win32,59.63029219,,,,,,,
,,,,,,,,,,,,,,,,,,,,,,-40,-72,20,75,-64,8,3.2,-158.8,0.222222255,-0.302777802,1,0,0,0.4664,submitButton,-0.092592512,-0.329629711,0,0,0,2,59,179,56,1,72,69202,2,180,2022-02-10_08h30.14.998,orientation adjustment 2,2021.2.3,Win32,59.63029219,,,,,,,
,,,,,,,,,,,,,,,,,,,,,,,,,,,,,,,,,,,,,,,,,,,,,,,,69202,2,180,2022-02-10_08h30.14.998,orientation adjustment 2,2021.2.3,Win32,59.63029219,,0.297222258,-0.398148175,1,0,0,EndButtonTxt
