consentMouse1.x,consentMouse1.y,consentMouse1.leftButton,consentMouse1.midButton,consentMouse1.rightButton,consentMouse1.clicked_name,consent_Mouse.x,consent_Mouse.y,consent_Mouse.leftButton,consent_Mouse.midButton,consent_Mouse.rightButton,consent_Mouse.clicked_name,startMouse.x,startMouse.y,startMouse.leftButton,startMouse.midButton,startMouse.rightButton,startMouse_2.x,startMouse_2.y,startMouse_2.leftButton,startMouse_2.midButton,startMouse_2.rightButton,start_distance,fixedOri,minimalDistance,maxOri,this_ori,accuracy,presented_accuracy,presented_this_ori,submitMouse.x,submitMouse.y,submitMouse.leftButton,submitMouse.midButton,submitMouse.rightButton,submitMouse.time,submitMouse.clicked_name,pauseMouse.x,pauseMouse.y,pauseMouse.leftButton,pauseMouse.midButton,pauseMouse.rightButton,trials.thisRepN,trials.thisTrialN,trials.thisN,trials.thisIndex,trials.ran,startOri,participant,condition,nTrials,date,expName,psychopyVersion,OS,frameRate,pauseMouse.clicked_name,EndButtonMouse.x,EndButtonMouse.y,EndButtonMouse.leftButton,EndButtonMouse.midButton,EndButtonMouse.rightButton,EndButtonMouse.clicked_name
0.385416667,-0.408854167,1,0,0,consent_button1,0.375,-0.399739583,1,0,0,consent_button,0.375,-0.399739583,1,0,0,0.127604167,-0.364583333,1,0,0,53.33333333,-69,20,75,23.33333333,87.66666667,70.13333333,-88.86666667,0.208333333,-0.303385417,1,0,0,2.2843,submitButton,-0.220052083,-0.256510417,0,0,0,0,0,0,53,1,69,69352,2,180,2022-02-10_10h45.19.831,orientation adjustment 2,2021.2.3,Win32,60.0240096,,,,,,,
,,,,,,,,,,,,,,,,,,,,,,-20,75,20,75,79,4,1.6,-13.4,0.220052083,-0.305989583,1,0,0,0.1326,submitButton,-0.0703125,-0.498697917,0,0,0,0,1,1,59,1,75,69352,2,180,2022-02-10_10h45.19.831,orientation adjustment 2,2021.2.3,Win32,60.0240096,,,,,,,
,,,,,,,,,,,,,,,,,,,,,,33.33333333,-23,20,75,-32.66666667,9.666666667,3.866666667,-116.8666667,0.416666667,-0.283854167,1,0,0,0.2845,submitButton,-0.125,-0.389322917,0,0,0,0,2,2,7,1,23,69352,2,180,2022-02-10_10h45.19.831,orientation adjustment 2,2021.2.3,Win32,60.0240096,,,,,,,
,,,,,,,,,,,,,,,,,,,,,,-31.66666667,-54,20,75,-50.66666667,3.333333333,1.333333333,-142.6666667,0.192708333,-0.313802083,1,0,0,0.1665,submitButton,-0.251302083,-0.481770833,0,0,0,0,3,3,38,1,54,69352,2,180,2022-02-10_10h45.19.831,orientation adjustment 2,2021.2.3,Win32,60.0240096,,,,,,,
,,,,,,,,,,,,,,,,,,,,,,-74.44444444,34,20,75,49.55555556,15.55555556,10.11111111,-45.88888889,0.182291667,-0.313802083,1,0,0,1.1494,submitButton,-0.0546875,-0.459635417,0,0,0,0,4,4,18,1,34,69352,2,180,2022-02-10_10h45.19.831,orientation adjustment 2,2021.2.3,Win32,60.0240096,,,,,,,
,,,,,,,,,,,,,,,,,,,,,,26.11111111,40,20,75,41.11111111,1.111111111,0.444444444,-49.55555556,0.393229167,-0.291666667,1,0,0,0.5655,submitButton,-0.313802083,-0.498697917,0,0,0,0,5,5,24,1,40,69352,2,180,2022-02-10_10h45.19.831,orientation adjustment 2,2021.2.3,Win32,60.0240096,,,,,,,
,,,,,,,,,,,,,,,,,,,,,,-35,45,20,75,45,0,0,-45,0.1953125,-0.3125,1,0,0,0.0173,submitButton,-0.177083333,-0.4296875,0,0,0,0,6,6,29,1,45,69352,2,180,2022-02-10_10h45.19.831,orientation adjustment 2,2021.2.3,Win32,60.0240096,,,,,,,
,,,,,,,,,,,,,,,,,,,,,,30,-18,20,75,-25,7,2.8,-110.8,0.427083333,-0.302083333,1,0,0,0.5152,submitButton,-0.26953125,-0.450520833,0,0,0,0,7,7,2,1,18,69352,2,180,2022-02-10_10h45.19.831,orientation adjustment 2,2021.2.3,Win32,60.0240096,,,,,,,
,,,,,,,,,,,,,,,,,,,,,,39.44444444,-51,20,75,-57.55555556,6.555555556,2.622222222,-143.6222222,0.3984375,-0.279947917,1,0,0,0.4661,submitButton,-0.11328125,-0.403645833,0,0,0,0,8,8,35,1,51,69352,2,180,2022-02-10_10h45.19.831,orientation adjustment 2,2021.2.3,Win32,60.0240096,,,,,,,
,,,,,,,,,,,,,,,,,,,,,,-71.11111111,71,20,75,64.88888889,6.111111111,2.444444444,-21.44444444,0.212239583,-0.307291667,1,0,0,0.8836,submitButton,-0.19140625,-0.4375,0,0,0,0,9,9,55,1,71,69352,2,180,2022-02-10_10h45.19.831,orientation adjustment 2,2021.2.3,Win32,60.0240096,,,,,,,
,,,,,,,,,,,,,,,,,,,,,,-65,-66,20,75,-245,1,0.4,-156.4,0.399739583,-0.3203125,1,0,0,2.567,submitButton,-0.231770833,-0.453125,0,0,0,0,10,10,50,1,66,69352,2,180,2022-02-10_10h45.19.831,orientation adjustment 2,2021.2.3,Win32,60.0240096,,,,,,,
,,,,,,,,,,,,,,,,,,,,,,-36.11111111,56,20,75,66.88888889,10.88888889,4.355555556,-29.64444444,-0.165364583,-0.399739583,1,0,0,1.8499,submitButton,-0.135416667,-0.498697917,0,0,0,0,11,11,40,1,56,69352,2,180,2022-02-10_10h45.19.831,orientation adjustment 2,2021.2.3,Win32,60.0240096,,,,,,,
,,,,,,,,,,,,,,,,,,,,,,75,42,20,75,234,12,4.8,-43.2,0.194010417,-0.32421875,1,0,0,1.6006,submitButton,-0.229166667,-0.498697917,0,0,0,0,12,12,26,1,42,69352,2,180,2022-02-10_10h45.19.831,orientation adjustment 2,2021.2.3,Win32,60.0240096,,,,,,,
,,,,,,,,,,,,,,,,,,,,,,-43.88888889,67,20,75,73.11111111,6.111111111,2.444444444,-20.55555556,0.205729167,-0.299479167,1,0,0,0.8834,submitButton,-0.3359375,-0.438802083,0,0,0,0,13,13,51,1,67,69352,2,180,2022-02-10_10h45.19.831,orientation adjustment 2,2021.2.3,Win32,60.0240096,,,,,,,
,,,,,,,,,,,,,,,,,,,,,,53.88888889,28,20,75,37.88888889,9.888888889,3.955555556,-58.04444444,0.451822917,-0.307291667,1,0,0,0.7168,submitButton,0.263020833,-0.40625,1,0,0,0,14,14,12,1,28,69352,2,180,2022-02-10_10h45.19.831,orientation adjustment 2,2021.2.3,Win32,60.0240096,pause_continueButton,,,,,,
,,,,,,,,,,,,,,,,,,,,,,33.88888889,-41,20,75,-38.11111111,2.888888889,1.155555556,-129.8444444,0.37109375,-0.291666667,1,0,0,0.2351,submitButton,-0.649739583,-0.41796875,0,0,0,0,15,15,25,1,41,69352,2,180,2022-02-10_10h45.19.831,orientation adjustment 2,2021.2.3,Win32,60.0240096,,,,,,,
,,,,,,,,,,,,,,,,,,,,,,-53.88888889,-52,20,75,-237.8888889,5.888888889,2.355555556,-144.3555556,0.411458333,-0.2890625,1,0,0,1.7997,submitButton,-0.1015625,-0.415364583,0,0,0,0,16,16,36,1,52,69352,2,180,2022-02-10_10h45.19.831,orientation adjustment 2,2021.2.3,Win32,60.0240096,,,,,,,
,,,,,,,,,,,,,,,,,,,,,,32.22222222,-31,20,75,-27.77777778,3.222222222,1.288888889,-119.7111111,0.404947917,-0.3125,1,0,0,0.4852,submitButton,-0.2578125,-0.4296875,0,0,0,0,17,17,15,1,31,69352,2,180,2022-02-10_10h45.19.831,orientation adjustment 2,2021.2.3,Win32,60.0240096,,,,,,,
,,,,,,,,,,,,,,,,,,,,,,38.33333333,-19,20,75,-28.66666667,9.666666667,3.866666667,-112.8666667,0.390625,-0.317708333,1,0,0,0.8997,submitButton,-0.188802083,-0.420572917,0,0,0,0,18,18,3,1,19,69352,2,180,2022-02-10_10h45.19.831,orientation adjustment 2,2021.2.3,Win32,60.0240096,,,,,,,
,,,,,,,,,,,,,,,,,,,,,,-24.44444444,-46,20,75,-38.44444444,7.555555556,3.022222222,-132.9777778,0.17578125,-0.298177083,1,0,0,0.2836,submitButton,-0.333333333,-0.427083333,0,0,0,0,19,19,30,1,46,69352,2,180,2022-02-10_10h45.19.831,orientation adjustment 2,2021.2.3,Win32,60.0240096,,,,,,,
,,,,,,,,,,,,,,,,,,,,,,54.44444444,-62,20,75,-50.55555556,11.44444444,4.577777778,-147.4222222,0.416666667,-0.305989583,1,0,0,0.0992,submitButton,-0.188802083,-0.39453125,0,0,0,0,20,20,46,1,62,69352,2,180,2022-02-10_10h45.19.831,orientation adjustment 2,2021.2.3,Win32,60.0240096,,,,,,,
,,,,,,,,,,,,,,,,,,,,,,39.44444444,-22,20,75,-38.55555556,16.55555556,10.76111111,-122.7611111,0.41796875,-0.26171875,1,0,0,2.0834,submitButton,0.204427083,-0.16796875,0,0,0,0,21,21,6,1,22,69352,2,180,2022-02-10_10h45.19.831,orientation adjustment 2,2021.2.3,Win32,60.0240096,,,,,,,
,,,,,,,,,,,,,,,,,,,,,,50,-30,20,75,-29,1,0.4,-119.6,-0.158854167,-0.419270833,1,0,0,1.7003,submitButton,-0.158854167,-0.419270833,0,0,0,0,22,22,14,1,30,69352,2,180,2022-02-10_10h45.19.831,orientation adjustment 2,2021.2.3,Win32,60.0240096,,,,,,,
,,,,,,,,,,,,,,,,,,,,,,52.22222222,60,20,75,217.2222222,22.77777778,14.80555556,-15.19444444,0.1953125,-0.305989583,1,0,0,1.5164,submitButton,-0.233072917,-0.427083333,0,0,0,0,23,23,44,1,60,69352,2,180,2022-02-10_10h45.19.831,orientation adjustment 2,2021.2.3,Win32,60.0240096,,,,,,,
,,,,,,,,,,,,,,,,,,,,,,51.11111111,-53,20,75,-51.88888889,1.111111111,0.444444444,-142.5555556,0.428385417,-0.305989583,1,0,0,0.0176,submitButton,-0.09765625,-0.30078125,0,0,0,0,24,24,37,1,53,69352,2,180,2022-02-10_10h45.19.831,orientation adjustment 2,2021.2.3,Win32,60.0240096,,,,,,,
,,,,,,,,,,,,,,,,,,,,,,52.77777778,-74,20,75,-72.22222222,1.777777778,0.711111111,-163.2888889,-0.342447917,-0.407552083,1,0,0,1.6172,submitButton,-0.342447917,-0.407552083,0,0,0,0,25,25,58,1,74,69352,2,180,2022-02-10_10h45.19.831,orientation adjustment 2,2021.2.3,Win32,60.0240096,,,,,,,
,,,,,,,,,,,,,,,,,,,,,,33.88888889,25,20,75,24.88888889,0.111111111,0.044444444,-65.04444444,0.423177083,-0.296875,1,0,0,0.45,submitButton,-0.23828125,-0.41796875,0,0,0,0,26,26,9,1,25,69352,2,180,2022-02-10_10h45.19.831,orientation adjustment 2,2021.2.3,Win32,60.0240096,,,,,,,
,,,,,,,,,,,,,,,,,,,,,,-55.55555556,-26,20,75,-208.5555556,2.555555556,1.022222222,-117.0222222,0.385416667,-0.305989583,1,0,0,2.1496,submitButton,0.123697917,-0.373697917,0,0,0,0,27,27,10,1,26,69352,2,180,2022-02-10_10h45.19.831,orientation adjustment 2,2021.2.3,Win32,60.0240096,,,,,,,
,,,,,,,,,,,,,,,,,,,,,,61.11111111,-48,20,75,-50.88888889,2.888888889,1.155555556,-139.1555556,-0.302083333,-0.4140625,1,0,0,1.3162,submitButton,-0.319010417,-0.451822917,0,0,0,0,28,28,32,1,48,69352,2,180,2022-02-10_10h45.19.831,orientation adjustment 2,2021.2.3,Win32,60.0240096,,,,,,,
,,,,,,,,,,,,,,,,,,,,,,-69.44444444,44,20,75,43.55555556,0.444444444,0.177777778,-46.17777778,0.188802083,-0.333333333,1,0,0,0.85,submitButton,0.477864583,-0.399739583,1,0,0,0,29,29,28,1,44,69352,2,180,2022-02-10_10h45.19.831,orientation adjustment 2,2021.2.3,Win32,60.0240096,pause_continueButton,,,,,,
,,,,,,,,,,,,,,,,,,,,,,25.55555556,29,20,75,55.55555556,26.55555556,17.26111111,-43.73888889,-0.205729167,-0.404947917,1,0,0,0.8002,submitButton,-0.21875,-0.407552083,0,0,0,0,30,30,13,1,29,69352,2,180,2022-02-10_10h45.19.831,orientation adjustment 2,2021.2.3,Win32,60.0240096,,,,,,,
,,,,,,,,,,,,,,,,,,,,,,-48.88888889,35,20,75,47.11111111,12.11111111,4.844444444,-50.15555556,0.20703125,-0.3046875,1,0,0,1.2504,submitButton,-0.333333333,-0.421875,0,0,0,0,31,31,19,1,35,69352,2,180,2022-02-10_10h45.19.831,orientation adjustment 2,2021.2.3,Win32,60.0240096,,,,,,,
,,,,,,,,,,,,,,,,,,,,,,28.33333333,-47,20,75,-36.66666667,10.33333333,4.133333333,-132.8666667,-0.200520833,-0.395833333,1,0,0,1.4828,submitButton,-0.196614583,-0.41015625,0,0,0,0,32,32,31,1,47,69352,2,180,2022-02-10_10h45.19.831,orientation adjustment 2,2021.2.3,Win32,60.0240096,,,,,,,
,,,,,,,,,,,,,,,,,,,,,,40.55555556,-57,20,75,-62.44444444,5.444444444,2.177777778,-149.1777778,0.384114583,-0.2890625,1,0,0,1.0838,submitButton,-0.141927083,-0.436197917,0,0,0,0,33,33,41,1,57,69352,2,180,2022-02-10_10h45.19.831,orientation adjustment 2,2021.2.3,Win32,60.0240096,,,,,,,
,,,,,,,,,,,,,,,,,,,,,,-42.77777778,-70,20,75,-72.77777778,2.777777778,1.111111111,-161.1111111,0.200520833,-0.291666667,1,0,0,0.3493,submitButton,-0.221354167,-0.19921875,0,0,0,0,34,34,54,1,70,69352,2,180,2022-02-10_10h45.19.831,orientation adjustment 2,2021.2.3,Win32,60.0240096,,,,,,,
,,,,,,,,,,,,,,,,,,,,,,58.88888889,-61,20,75,-68.11111111,7.111111111,2.844444444,-153.8444444,0.408854167,-0.282552083,1,0,0,0.5501,submitButton,-0.221354167,-0.395833333,0,0,0,0,35,35,45,1,61,69352,2,180,2022-02-10_10h45.19.831,orientation adjustment 2,2021.2.3,Win32,60.0240096,,,,,,,
,,,,,,,,,,,,,,,,,,,,,,21.66666667,72,20,75,62.66666667,9.333333333,3.733333333,-21.73333333,0.397135417,-0.315104167,1,0,0,0.4683,submitButton,-0.236979167,-0.391927083,0,0,0,0,36,36,56,1,72,69352,2,180,2022-02-10_10h45.19.831,orientation adjustment 2,2021.2.3,Win32,60.0240096,,,,,,,
,,,,,,,,,,,,,,,,,,,,,,22.22222222,38,20,75,42.22222222,4.222222222,1.688888889,-50.31111111,0.385416667,-0.305989583,1,0,0,0.2833,submitButton,-0.140625,-0.399739583,0,0,0,0,37,37,22,1,38,69352,2,180,2022-02-10_10h45.19.831,orientation adjustment 2,2021.2.3,Win32,60.0240096,,,,,,,
,,,,,,,,,,,,,,,,,,,,,,54.44444444,-36,20,75,-33.55555556,2.444444444,0.977777778,-125.0222222,0.41015625,-0.329427083,1,0,0,0.6164,submitButton,-0.266927083,-0.471354167,0,0,0,0,38,38,20,1,36,69352,2,180,2022-02-10_10h45.19.831,orientation adjustment 2,2021.2.3,Win32,60.0240096,,,,,,,
,,,,,,,,,,,,,,,,,,,,,,-34.44444444,-64,20,75,-238.4444444,5.555555556,2.222222222,-156.2222222,0.40625,-0.3125,1,0,0,0.7004,submitButton,-0.3046875,-0.412760417,0,0,0,0,39,39,48,1,64,69352,2,180,2022-02-10_10h45.19.831,orientation adjustment 2,2021.2.3,Win32,60.0240096,,,,,,,
,,,,,,,,,,,,,,,,,,,,,,-29.44444444,39,20,75,46.55555556,7.555555556,3.022222222,-47.97777778,0.1953125,-0.303385417,1,0,0,0.1178,submitButton,-0.145833333,-0.389322917,0,0,0,0,40,40,23,1,39,69352,2,180,2022-02-10_10h45.19.831,orientation adjustment 2,2021.2.3,Win32,60.0240096,,,,,,,
,,,,,,,,,,,,,,,,,,,,,,60,65,20,75,50,15,9.75,-34.75,0.391927083,-0.26953125,1,0,0,0.6007,submitButton,-0.264322917,-0.481770833,0,0,0,0,41,41,49,1,65,69352,2,180,2022-02-10_10h45.19.831,orientation adjustment 2,2021.2.3,Win32,60.0240096,,,,,,,
,,,,,,,,,,,,,,,,,,,,,,-68.88888889,73,20,75,-102.8888889,4.111111111,1.644444444,-18.64444444,0.348958333,-0.287760417,1,0,0,0.1665,submitButton,-0.162760417,-0.39453125,0,0,0,0,42,42,57,1,73,69352,2,180,2022-02-10_10h45.19.831,orientation adjustment 2,2021.2.3,Win32,60.0240096,,,,,,,
,,,,,,,,,,,,,,,,,,,,,,65,-24,20,75,-49,25,16.25,-130.25,0.412760417,-0.296875,1,0,0,1.233,submitButton,-0.188802083,-0.4140625,0,0,0,0,43,43,8,1,24,69352,2,180,2022-02-10_10h45.19.831,orientation adjustment 2,2021.2.3,Win32,60.0240096,,,,,,,
,,,,,,,,,,,,,,,,,,,,,,-22.22222222,59,20,75,70.77777778,11.77777778,4.711111111,-26.28888889,0.235677083,-0.295572917,1,0,0,0.5654,submitButton,0.520833333,-0.384114583,1,0,0,0,44,44,43,1,59,69352,2,180,2022-02-10_10h45.19.831,orientation adjustment 2,2021.2.3,Win32,60.0240096,pause_continueButton,,,,,,
,,,,,,,,,,,,,,,,,,,,,,-36.11111111,-33,20,75,-41.11111111,8.111111111,3.244444444,-126.2444444,0.1484375,-0.296875,1,0,0,0.1832,submitButton,-0.1953125,-0.390625,0,0,0,0,45,45,17,1,33,69352,2,180,2022-02-10_10h45.19.831,orientation adjustment 2,2021.2.3,Win32,60.0240096,,,,,,,
,,,,,,,,,,,,,,,,,,,,,,-20,-37,20,75,-31,6,2.4,-124.6,0.243489583,-0.311197917,1,0,0,0.0334,submitButton,-0.020833333,-0.40625,0,0,0,0,46,46,21,1,37,69352,2,180,2022-02-10_10h45.19.831,orientation adjustment 2,2021.2.3,Win32,60.0240096,,,,,,,
,,,,,,,,,,,,,,,,,,,,,,65.55555556,55,20,75,241.5555556,6.555555556,2.622222222,-32.37777778,0.1953125,-0.279947917,1,0,0,1.6668,submitButton,-0.21484375,-0.475260417,0,0,0,0,47,47,39,1,55,69352,2,180,2022-02-10_10h45.19.831,orientation adjustment 2,2021.2.3,Win32,60.0240096,,,,,,,
,,,,,,,,,,,,,,,,,,,,,,47.22222222,20,20,75,23.22222222,3.222222222,1.288888889,-68.71111111,0.447916667,-0.302083333,1,0,0,0.5332,submitButton,-0.231770833,-0.446614583,0,0,0,0,48,48,4,1,20,69352,2,180,2022-02-10_10h45.19.831,orientation adjustment 2,2021.2.3,Win32,60.0240096,,,,,,,
,,,,,,,,,,,,,,,,,,,,,,-27.77777778,58,20,75,64.22222222,6.222222222,2.488888889,-29.51111111,0.240885417,-0.2734375,1,0,0,0.0508,submitButton,-0.098958333,-0.486979167,0,0,0,0,49,49,42,1,58,69352,2,180,2022-02-10_10h45.19.831,orientation adjustment 2,2021.2.3,Win32,60.0240096,,,,,,,
,,,,,,,,,,,,,,,,,,,,,,73.33333333,-68,20,75,-76.66666667,8.666666667,3.466666667,-161.4666667,0.4140625,-0.3046875,1,0,0,0.983,submitButton,-0.317708333,-0.419270833,0,0,0,0,50,50,52,1,68,69352,2,180,2022-02-10_10h45.19.831,orientation adjustment 2,2021.2.3,Win32,60.0240096,,,,,,,
,,,,,,,,,,,,,,,,,,,,,,32.22222222,63,20,75,55.22222222,7.777777778,3.111111111,-30.11111111,0.493489583,-0.294270833,1,0,0,0.051,submitButton,-0.384114583,-0.498697917,0,0,0,0,51,51,47,1,63,69352,2,180,2022-02-10_10h45.19.831,orientation adjustment 2,2021.2.3,Win32,60.0240096,,,,,,,
,,,,,,,,,,,,,,,,,,,,,,-45.55555556,16,20,75,32.44444444,16.44444444,10.68888889,-63.31111111,0.18359375,-0.311197917,1,0,0,0.0337,submitButton,-0.194010417,-0.397135417,0,0,0,0,52,52,0,1,16,69352,2,180,2022-02-10_10h45.19.831,orientation adjustment 2,2021.2.3,Win32,60.0240096,,,,,,,
,,,,,,,,,,,,,,,,,,,,,,27.22222222,-50,20,75,-59.77777778,9.777777778,3.911111111,-143.9111111,0.424479167,-0.30078125,1,0,0,0.0175,submitButton,-0.37890625,-0.442708333,0,0,0,0,53,53,34,1,50,69352,2,180,2022-02-10_10h45.19.831,orientation adjustment 2,2021.2.3,Win32,60.0240096,,,,,,,
,,,,,,,,,,,,,,,,,,,,,,74.44444444,32,20,75,36.44444444,4.444444444,1.777777778,-56.22222222,0.4375,-0.30078125,1,0,0,0.2165,submitButton,-0.333333333,-0.44921875,0,0,0,0,54,54,16,1,32,69352,2,180,2022-02-10_10h45.19.831,orientation adjustment 2,2021.2.3,Win32,60.0240096,,,,,,,
,,,,,,,,,,,,,,,,,,,,,,-30,-27,20,75,-28,1,0.4,-117.4,0.173177083,-0.30078125,1,0,0,0.4334,submitButton,-0.169270833,-0.3984375,0,0,0,0,55,55,11,1,27,69352,2,180,2022-02-10_10h45.19.831,orientation adjustment 2,2021.2.3,Win32,60.0240096,,,,,,,
,,,,,,,,,,,,,,,,,,,,,,-52.77777778,17,20,75,34.22222222,17.22222222,11.19444444,-61.80555556,0.20703125,-0.29296875,1,0,0,1.3169,submitButton,-0.111979167,-0.40625,0,0,0,0,56,56,1,1,17,69352,2,180,2022-02-10_10h45.19.831,orientation adjustment 2,2021.2.3,Win32,60.0240096,,,,,,,
,,,,,,,,,,,,,,,,,,,,,,63.33333333,49,20,75,40.33333333,8.666666667,3.466666667,-44.46666667,0.37890625,-0.291666667,1,0,0,0.1336,submitButton,-0.330729167,-0.479166667,0,0,0,0,57,57,33,1,49,69352,2,180,2022-02-10_10h45.19.831,orientation adjustment 2,2021.2.3,Win32,60.0240096,,,,,,,
,,,,,,,,,,,,,,,,,,,,,,-26.11111111,43,20,75,46.88888889,3.888888889,1.555555556,-45.44444444,0.208333333,-0.294270833,1,0,0,0.2505,submitButton,-0.149739583,-0.421875,0,0,0,0,58,58,27,1,43,69352,2,180,2022-02-10_10h45.19.831,orientation adjustment 2,2021.2.3,Win32,60.0240096,,,,,,,
,,,,,,,,,,,,,,,,,,,,,,-33.88888889,-21,20,75,-14.88888889,6.111111111,2.444444444,-108.5555556,0.178385417,-0.298177083,1,0,0,0.3834,submitButton,0.380208333,-0.401041667,1,0,0,0,59,59,5,1,21,69352,2,180,2022-02-10_10h45.19.831,orientation adjustment 2,2021.2.3,Win32,60.0240096,pause_continueButton,,,,,,
,,,,,,,,,,,,,,,,,,,,,,73.33333333,-45,20,75,-58.66666667,13.66666667,5.466666667,-140.4666667,0.4375,-0.296875,1,0,0,0.0999,submitButton,-0.244791667,-0.38671875,0,0,0,1,0,60,29,1,45,69352,2,180,2022-02-10_10h45.19.831,orientation adjustment 2,2021.2.3,Win32,60.0240096,,,,,,,
,,,,,,,,,,,,,,,,,,,,,,30.55555556,46,20,75,63.55555556,17.55555556,11.41111111,-32.58888889,0.395833333,-0.299479167,1,0,0,0.3497,submitButton,-0.3203125,-0.407552083,0,0,0,1,1,61,30,1,46,69352,2,180,2022-02-10_10h45.19.831,orientation adjustment 2,2021.2.3,Win32,60.0240096,,,,,,,
,,,,,,,,,,,,,,,,,,,,,,66.66666667,21,20,75,32.66666667,11.66666667,4.666666667,-64.33333333,0.36328125,-0.299479167,1,0,0,0.8334,submitButton,-0.240885417,-0.415364583,0,0,0,1,2,62,5,1,21,69352,2,180,2022-02-10_10h45.19.831,orientation adjustment 2,2021.2.3,Win32,60.0240096,,,,,,,
,,,,,,,,,,,,,,,,,,,,,,-68.88888889,-36,20,75,-219.8888889,3.888888889,1.555555556,-127.5555556,0.412760417,-0.307291667,1,0,0,1.917,submitButton,-0.46484375,-0.481770833,0,0,0,1,3,63,20,1,36,69352,2,180,2022-02-10_10h45.19.831,orientation adjustment 2,2021.2.3,Win32,60.0240096,,,,,,,
,,,,,,,,,,,,,,,,,,,,,,-46.11111111,28,20,75,41.88888889,13.88888889,5.555555556,-56.44444444,-0.158854167,-0.404947917,1,0,0,1.8497,submitButton,-0.26171875,-0.47265625,0,0,0,1,4,64,12,1,28,69352,2,180,2022-02-10_10h45.19.831,orientation adjustment 2,2021.2.3,Win32,60.0240096,,,,,,,
,,,,,,,,,,,,,,,,,,,,,,-43.33333333,37,20,75,36.66666667,0.333333333,0.133333333,-53.13333333,-0.141927083,-0.40625,1,0,0,1.4837,submitButton,-0.139322917,-0.40625,0,0,0,1,5,65,21,1,37,69352,2,180,2022-02-10_10h45.19.831,orientation adjustment 2,2021.2.3,Win32,60.0240096,,,,,,,
,,,,,,,,,,,,,,,,,,,,,,58.88888889,-61,20,75,-67.11111111,6.111111111,2.444444444,-153.4444444,-0.221354167,-0.408854167,1,0,0,6.9329,submitButton,-0.20703125,-0.424479167,0,0,0,1,6,66,45,1,61,69352,2,180,2022-02-10_10h45.19.831,orientation adjustment 2,2021.2.3,Win32,60.0240096,,,,,,,
,,,,,,,,,,,,,,,,,,,,,,-58.88888889,-57,20,75,-238.8888889,1.888888889,0.755555556,-147.7555556,0.385416667,-0.294270833,1,0,0,1.7322,submitButton,-0.080729167,-0.213541667,0,0,0,1,7,67,41,1,57,69352,2,180,2022-02-10_10h45.19.831,orientation adjustment 2,2021.2.3,Win32,60.0240096,,,,,,,
,,,,,,,,,,,,,,,,,,,,,,68.33333333,23,20,75,38.33333333,15.33333333,9.966666667,-57.03333333,0.424479167,-0.30078125,1,0,0,0.1637,submitButton,-0.274739583,-0.325520833,0,0,0,1,8,68,7,1,23,69352,2,180,2022-02-10_10h45.19.831,orientation adjustment 2,2021.2.3,Win32,60.0240096,,,,,,,
,,,,,,,,,,,,,,,,,,,,,,-42.22222222,-60,20,75,-245.2222222,5.222222222,2.088888889,-152.0888889,0.416666667,-0.299479167,1,0,0,1.8327,submitButton,-0.787760417,-0.498697917,0,0,0,1,9,69,44,1,60,69352,2,180,2022-02-10_10h45.19.831,orientation adjustment 2,2021.2.3,Win32,60.0240096,,,,,,,
,,,,,,,,,,,,,,,,,,,,,,45,35,20,75,51,16,10.4,-44.6,0.39453125,-0.325520833,1,0,0,0.1835,submitButton,-0.173177083,-0.407552083,0,0,0,1,10,70,19,1,35,69352,2,180,2022-02-10_10h45.19.831,orientation adjustment 2,2021.2.3,Win32,60.0240096,,,,,,,
,,,,,,,,,,,,,,,,,,,,,,-58.88888889,-51,20,75,-236.8888889,5.888888889,2.355555556,-143.3555556,0.42578125,-0.30078125,1,0,0,1.5663,submitButton,-0.373697917,-0.372395833,0,0,0,1,11,71,35,1,51,69352,2,180,2022-02-10_10h45.19.831,orientation adjustment 2,2021.2.3,Win32,60.0240096,,,,,,,
,,,,,,,,,,,,,,,,,,,,,,-26.66666667,53,20,75,59.33333333,6.333333333,2.533333333,-34.46666667,0.196614583,-0.298177083,1,0,0,0.1498,submitButton,-0.145833333,-0.3828125,0,0,0,1,12,72,37,1,53,69352,2,180,2022-02-10_10h45.19.831,orientation adjustment 2,2021.2.3,Win32,60.0240096,,,,,,,
,,,,,,,,,,,,,,,,,,,,,,-57.22222222,69,20,75,74.77777778,5.777777778,2.311111111,-18.68888889,-0.21875,-0.393229167,1,0,0,1.5832,submitButton,-0.34375,-0.444010417,0,0,0,1,13,73,53,1,69,69352,2,180,2022-02-10_10h45.19.831,orientation adjustment 2,2021.2.3,Win32,60.0240096,,,,,,,
,,,,,,,,,,,,,,,,,,,,,,22.77777778,27,20,75,30.77777778,3.777777778,1.511111111,-61.48888889,0.454427083,-0.294270833,1,0,0,0.1157,submitButton,0.3671875,-0.40625,1,0,0,1,14,74,11,1,27,69352,2,180,2022-02-10_10h45.19.831,orientation adjustment 2,2021.2.3,Win32,60.0240096,pause_continueButton,,,,,,
,,,,,,,,,,,,,,,,,,,,,,32.77777778,59,20,75,52.77777778,6.222222222,2.488888889,-33.48888889,0.40625,-0.302083333,1,0,0,0.8664,submitButton,-0.248697917,-0.416666667,0,0,0,1,15,75,43,1,59,69352,2,180,2022-02-10_10h45.19.831,orientation adjustment 2,2021.2.3,Win32,60.0240096,,,,,,,
,,,,,,,,,,,,,,,,,,,,,,-27.77777778,75,20,75,75.22222222,0.222222222,0.088888889,-14.91111111,0.177083333,-0.311197917,1,0,0,0.1835,submitButton,-0.2265625,-0.442708333,0,0,0,1,16,76,59,1,75,69352,2,180,2022-02-10_10h45.19.831,orientation adjustment 2,2021.2.3,Win32,60.0240096,,,,,,,
,,,,,,,,,,,,,,,,,,,,,,-38.33333333,58,20,75,62.66666667,4.666666667,1.866666667,-30.13333333,0.145833333,-0.307291667,1,0,0,0.0331,submitButton,-0.373697917,-0.471354167,0,0,0,1,17,77,42,1,58,69352,2,180,2022-02-10_10h45.19.831,orientation adjustment 2,2021.2.3,Win32,60.0240096,,,,,,,
,,,,,,,,,,,,,,,,,,,,,,-28.33333333,49,20,75,53.66666667,4.666666667,1.866666667,-39.13333333,0.240885417,-0.30859375,1,0,0,0.5013,submitButton,-0.270833333,-0.481770833,0,0,0,1,18,78,33,1,49,69352,2,180,2022-02-10_10h45.19.831,orientation adjustment 2,2021.2.3,Win32,60.0240096,,,,,,,
,,,,,,,,,,,,,,,,,,,,,,-42.22222222,-66,20,75,-53.22222222,12.77777778,5.111111111,-150.8888889,0.209635417,-0.309895833,1,0,0,0.3501,submitButton,-0.34375,-0.423177083,0,0,0,1,19,79,50,1,66,69352,2,180,2022-02-10_10h45.19.831,orientation adjustment 2,2021.2.3,Win32,60.0240096,,,,,,,
,,,,,,,,,,,,,,,,,,,,,,-33.33333333,-55,20,75,-53.33333333,1.666666667,0.666666667,-144.3333333,-0.174479167,-0.39453125,1,0,0,0.9674,submitButton,-0.365885417,-0.4296875,0,0,0,1,20,80,39,1,55,69352,2,180,2022-02-10_10h45.19.831,orientation adjustment 2,2021.2.3,Win32,60.0240096,,,,,,,
,,,,,,,,,,,,,,,,,,,,,,-46.66666667,65,20,75,62.33333333,2.666666667,1.066666667,-26.06666667,0.192708333,-0.296875,1,0,0,0.4333,submitButton,-0.272135417,-0.3515625,0,0,0,1,21,81,49,1,65,69352,2,180,2022-02-10_10h45.19.831,orientation adjustment 2,2021.2.3,Win32,60.0240096,,,,,,,
,,,,,,,,,,,,,,,,,,,,,,-43.88888889,-42,20,75,-45.88888889,3.888888889,1.555555556,-133.5555556,0.203125,-0.32421875,1,0,0,0.2975,submitButton,-0.223958333,-0.467447917,0,0,0,1,22,82,26,1,42,69352,2,180,2022-02-10_10h45.19.831,orientation adjustment 2,2021.2.3,Win32,60.0240096,,,,,,,
,,,,,,,,,,,,,,,,,,,,,,26.66666667,-71,20,75,-74.33333333,3.333333333,1.333333333,-162.3333333,-0.247395833,-0.403645833,1,0,0,1.4683,submitButton,-0.420572917,-0.450520833,0,0,0,1,23,83,55,1,71,69352,2,180,2022-02-10_10h45.19.831,orientation adjustment 2,2021.2.3,Win32,60.0240096,,,,,,,
,,,,,,,,,,,,,,,,,,,,,,-43.88888889,-67,20,75,-64.88888889,2.111111111,0.844444444,-156.1555556,0.188802083,-0.315104167,1,0,0,0.1158,submitButton,-0.138020833,-0.393229167,0,0,0,1,24,84,51,1,67,69352,2,180,2022-02-10_10h45.19.831,orientation adjustment 2,2021.2.3,Win32,60.0240096,,,,,,,
,,,,,,,,,,,,,,,,,,,,,,-67.77777778,16,20,75,-169.7777778,5.777777778,2.311111111,-76.31111111,0.3984375,-0.294270833,1,0,0,1.8656,submitButton,-0.180989583,-0.389322917,0,0,0,1,25,85,0,1,16,69352,2,180,2022-02-10_10h45.19.831,orientation adjustment 2,2021.2.3,Win32,60.0240096,,,,,,,
,,,,,,,,,,,,,,,,,,,,,,-73.33333333,-72,20,75,-81.33333333,9.333333333,3.733333333,-165.7333333,0.13671875,-0.299479167,1,0,0,0.0799,submitButton,-0.024739583,-0.454427083,0,0,0,1,26,86,56,1,72,69352,2,180,2022-02-10_10h45.19.831,orientation adjustment 2,2021.2.3,Win32,60.0240096,,,,,,,
,,,,,,,,,,,,,,,,,,,,,,57.77777778,63,20,75,65.77777778,2.777777778,1.111111111,-25.88888889,0.381510417,-0.295572917,1,0,0,0.0336,submitButton,-0.46875,-0.4296875,0,0,0,1,27,87,47,1,63,69352,2,180,2022-02-10_10h45.19.831,orientation adjustment 2,2021.2.3,Win32,60.0240096,,,,,,,
,,,,,,,,,,,,,,,,,,,,,,-27.77777778,18,20,75,18.22222222,0.222222222,0.088888889,-71.91111111,-0.248697917,-0.395833333,1,0,0,1.1002,submitButton,-0.317708333,-0.390625,0,0,0,1,28,88,2,1,18,69352,2,180,2022-02-10_10h45.19.831,orientation adjustment 2,2021.2.3,Win32,60.0240096,,,,,,,
,,,,,,,,,,,,,,,,,,,,,,-63.88888889,-38,20,75,-41.88888889,3.888888889,1.555555556,-129.5555556,0.1875,-0.33203125,1,0,0,0.0331,submitButton,0.623697917,-0.4140625,1,0,0,1,29,89,22,1,38,69352,2,180,2022-02-10_10h45.19.831,orientation adjustment 2,2021.2.3,Win32,60.0240096,pause_continueButton,,,,,,
,,,,,,,,,,,,,,,,,,,,,,67.77777778,-40,20,75,-24.22222222,15.77777778,10.25555556,-119.7444444,-0.260416667,-0.41015625,1,0,0,2.0665,submitButton,0.006510417,-0.421875,0,0,0,1,30,90,24,1,40,69352,2,180,2022-02-10_10h45.19.831,orientation adjustment 2,2021.2.3,Win32,60.0240096,,,,,,,
,,,,,,,,,,,,,,,,,,,,,,-40.55555556,39,20,75,43.44444444,4.444444444,1.777777778,-49.22222222,0.192708333,-0.307291667,1,0,0,0.9178,submitButton,-0.17578125,-0.360677083,0,0,0,1,31,91,23,1,39,69352,2,180,2022-02-10_10h45.19.831,orientation adjustment 2,2021.2.3,Win32,60.0240096,,,,,,,
,,,,,,,,,,,,,,,,,,,,,,37.77777778,-47,20,75,-38.22222222,8.777777778,3.511111111,-133.4888889,0.411458333,-0.313802083,1,0,0,0.1167,submitButton,-0.234375,-0.493489583,0,0,0,1,32,92,31,1,47,69352,2,180,2022-02-10_10h45.19.831,orientation adjustment 2,2021.2.3,Win32,60.0240096,,,,,,,
,,,,,,,,,,,,,,,,,,,,,,-43.33333333,32,20,75,45.66666667,13.66666667,5.466666667,-52.53333333,0.1953125,-0.31640625,1,0,0,0.3348,submitButton,-0.147135417,-0.294270833,0,0,0,1,33,93,16,1,32,69352,2,180,2022-02-10_10h45.19.831,orientation adjustment 2,2021.2.3,Win32,60.0240096,,,,,,,
,,,,,,,,,,,,,,,,,,,,,,38.88888889,-44,20,75,-46.11111111,2.111111111,0.844444444,-134.8444444,0.408854167,-0.287760417,1,0,0,0.1332,submitButton,-0.247395833,-0.455729167,0,0,0,1,34,94,28,1,44,69352,2,180,2022-02-10_10h45.19.831,orientation adjustment 2,2021.2.3,Win32,60.0240096,,,,,,,
,,,,,,,,,,,,,,,,,,,,,,-31.66666667,34,20,75,52.33333333,18.33333333,11.91666667,-44.08333333,-0.178385417,-0.39453125,1,0,0,1.383,submitButton,-0.018229167,-0.44921875,0,0,0,1,35,95,18,1,34,69352,2,180,2022-02-10_10h45.19.831,orientation adjustment 2,2021.2.3,Win32,60.0240096,,,,,,,
,,,,,,,,,,,,,,,,,,,,,,-32.77777778,25,20,75,32.22222222,7.222222222,2.888888889,-62.11111111,-0.165364583,-0.3984375,1,0,0,1.4169,submitButton,-0.157552083,-0.498697917,0,0,0,1,36,96,9,1,25,69352,2,180,2022-02-10_10h45.19.831,orientation adjustment 2,2021.2.3,Win32,60.0240096,,,,,,,
,,,,,,,,,,,,,,,,,,,,,,-62.22222222,-17,20,75,-26.22222222,9.222222222,3.688888889,-110.6888889,0.21875,-0.311197917,1,0,0,1.2886,submitButton,-0.098958333,-0.3984375,0,0,0,1,37,97,1,1,17,69352,2,180,2022-02-10_10h45.19.831,orientation adjustment 2,2021.2.3,Win32,60.0240096,,,,,,,
,,,,,,,,,,,,,,,,,,,,,,59.44444444,-33,20,75,-43.55555556,10.55555556,4.222222222,-127.2222222,0.4140625,-0.294270833,1,0,0,0.6669,submitButton,-0.44140625,-0.444010417,0,0,0,1,38,98,17,1,33,69352,2,180,2022-02-10_10h45.19.831,orientation adjustment 2,2021.2.3,Win32,60.0240096,,,,,,,
,,,,,,,,,,,,,,,,,,,,,,-43.33333333,50,20,75,63.66666667,13.66666667,5.466666667,-34.53333333,0.171875,-0.279947917,1,0,0,0.617,submitButton,-0.122395833,-0.498697917,0,0,0,1,39,99,34,1,50,69352,2,180,2022-02-10_10h45.19.831,orientation adjustment 2,2021.2.3,Win32,60.0240096,,,,,,,
,,,,,,,,,,,,,,,,,,,,,,-53.88888889,22,20,75,30.11111111,8.111111111,3.244444444,-64.75555556,0.157552083,-0.295572917,1,0,0,0.9334,submitButton,-0.481770833,-0.494791667,0,0,0,1,40,100,6,1,22,69352,2,180,2022-02-10_10h45.19.831,orientation adjustment 2,2021.2.3,Win32,60.0240096,,,,,,,
,,,,,,,,,,,,,,,,,,,,,,62.77777778,-73,20,75,-82.22222222,9.222222222,3.688888889,-166.6888889,0.420572917,-0.299479167,1,0,0,0.8169,submitButton,-0.356770833,-0.407552083,0,0,0,1,41,101,57,1,73,69352,2,180,2022-02-10_10h45.19.831,orientation adjustment 2,2021.2.3,Win32,60.0240096,,,,,,,
,,,,,,,,,,,,,,,,,,,,,,-47.77777778,74,20,75,80.22222222,6.222222222,2.488888889,-13.51111111,0.182291667,-0.298177083,1,0,0,0.7336,submitButton,-0.481770833,-0.423177083,0,0,0,1,42,102,58,1,74,69352,2,180,2022-02-10_10h45.19.831,orientation adjustment 2,2021.2.3,Win32,60.0240096,,,,,,,
,,,,,,,,,,,,,,,,,,,,,,-72.22222222,41,20,75,-130.2222222,8.777777778,3.511111111,-52.51111111,0.375,-0.341145833,1,0,0,1.7829,submitButton,-0.208333333,-0.3671875,0,0,0,1,43,103,25,1,41,69352,2,180,2022-02-10_10h45.19.831,orientation adjustment 2,2021.2.3,Win32,60.0240096,,,,,,,
,,,,,,,,,,,,,,,,,,,,,,-39.44444444,43,20,75,56.55555556,13.55555556,5.422222222,-41.57777778,0.1953125,-0.282552083,1,0,0,0.1293,submitButton,0.384114583,-0.385416667,1,0,0,1,44,104,27,1,43,69352,2,180,2022-02-10_10h45.19.831,orientation adjustment 2,2021.2.3,Win32,60.0240096,pause_continueButton,,,,,,
,,,,,,,,,,,,,,,,,,,,,,72.22222222,-62,20,75,-71.77777778,9.777777778,3.911111111,-155.9111111,-0.356770833,-0.420572917,1,0,0,1.8831,submitButton,-0.34765625,-0.420572917,0,0,0,1,45,105,46,1,62,69352,2,180,2022-02-10_10h45.19.831,orientation adjustment 2,2021.2.3,Win32,60.0240096,,,,,,,
,,,,,,,,,,,,,,,,,,,,,,40,-20,20,75,-39,19,12.35,-122.35,0.393229167,-0.298177083,1,0,0,0.0496,submitButton,-0.286458333,-0.489583333,0,0,0,1,46,106,4,1,20,69352,2,180,2022-02-10_10h45.19.831,orientation adjustment 2,2021.2.3,Win32,60.0240096,,,,,,,
,,,,,,,,,,,,,,,,,,,,,,-66.11111111,48,20,75,69.88888889,21.88888889,14.22777778,-27.77222222,0.234375,-0.305989583,1,0,0,1.2502,submitButton,-0.108072917,-0.329427083,0,0,0,1,47,107,32,1,48,69352,2,180,2022-02-10_10h45.19.831,orientation adjustment 2,2021.2.3,Win32,60.0240096,,,,,,,
,,,,,,,,,,,,,,,,,,,,,,63.33333333,-54,20,75,-62.66666667,8.666666667,3.466666667,-147.4666667,0.423177083,-0.298177083,1,0,0,0.4001,submitButton,-0.19921875,-0.399739583,0,0,0,1,48,108,38,1,54,69352,2,180,2022-02-10_10h45.19.831,orientation adjustment 2,2021.2.3,Win32,60.0240096,,,,,,,
,,,,,,,,,,,,,,,,,,,,,,30.55555556,-56,20,75,-63.44444444,7.444444444,2.977777778,-148.9777778,-0.180989583,-0.416666667,1,0,0,1.0996,submitButton,-0.126302083,-0.348958333,0,0,0,1,49,109,40,1,56,69352,2,180,2022-02-10_10h45.19.831,orientation adjustment 2,2021.2.3,Win32,60.0240096,,,,,,,
,,,,,,,,,,,,,,,,,,,,,,74.44444444,24,20,75,238.4444444,34.44444444,27.55555556,-38.44444444,0.1875,-0.303385417,1,0,0,1.7829,submitButton,-0.102864583,-0.407552083,0,0,0,1,50,110,8,1,24,69352,2,180,2022-02-10_10h45.19.831,orientation adjustment 2,2021.2.3,Win32,60.0240096,,,,,,,
,,,,,,,,,,,,,,,,,,,,,,46.11111111,30,20,75,34.11111111,4.111111111,1.644444444,-58.35555556,0.411458333,-0.329427083,1,0,0,0.6669,submitButton,-0.28515625,-0.416666667,0,0,0,1,51,111,14,1,30,69352,2,180,2022-02-10_10h45.19.831,orientation adjustment 2,2021.2.3,Win32,60.0240096,,,,,,,
,,,,,,,,,,,,,,,,,,,,,,-58.33333333,68,20,75,70.66666667,2.666666667,1.066666667,-20.93333333,-0.158854167,-0.40625,1,0,0,1.4333,submitButton,-0.190104167,-0.44140625,0,0,0,1,52,112,52,1,68,69352,2,180,2022-02-10_10h45.19.831,orientation adjustment 2,2021.2.3,Win32,60.0240096,,,,,,,
,,,,,,,,,,,,,,,,,,,,,,-31.66666667,-31,20,75,-26.66666667,4.333333333,1.733333333,-119.2666667,0.19921875,-0.294270833,1,0,0,0.8167,submitButton,-0.311197917,-0.438802083,0,0,0,1,53,113,15,1,31,69352,2,180,2022-02-10_10h45.19.831,orientation adjustment 2,2021.2.3,Win32,60.0240096,,,,,,,
,,,,,,,,,,,,,,,,,,,,,,20,-19,20,75,-30,11,4.4,-113.4,0.42578125,-0.28515625,1,0,0,0.1337,submitButton,-0.247395833,-0.471354167,0,0,0,1,54,114,3,1,19,69352,2,180,2022-02-10_10h45.19.831,orientation adjustment 2,2021.2.3,Win32,60.0240096,,,,,,,
,,,,,,,,,,,,,,,,,,,,,,66.66666667,70,20,75,253.6666667,3.666666667,1.466666667,-18.53333333,0.173177083,-0.287760417,1,0,0,2.4677,submitButton,-0.40234375,-0.4453125,0,0,0,1,55,115,54,1,70,69352,2,180,2022-02-10_10h45.19.831,orientation adjustment 2,2021.2.3,Win32,60.0240096,,,,,,,
,,,,,,,,,,,,,,,,,,,,,,66.11111111,-26,20,75,-34.88888889,8.888888889,3.555555556,-119.5555556,-0.173177083,-0.3984375,1,0,0,2.2329,submitButton,-0.19140625,-0.411458333,0,0,0,1,56,116,10,1,26,69352,2,180,2022-02-10_10h45.19.831,orientation adjustment 2,2021.2.3,Win32,60.0240096,,,,,,,
,,,,,,,,,,,,,,,,,,,,,,25.55555556,-64,20,75,-76.44444444,12.44444444,4.977777778,-158.9777778,0.395833333,-0.305989583,1,0,0,0.2685,submitButton,-0.1640625,-0.3984375,0,0,0,1,57,117,48,1,64,69352,2,180,2022-02-10_10h45.19.831,orientation adjustment 2,2021.2.3,Win32,60.0240096,,,,,,,
,,,,,,,,,,,,,,,,,,,,,,40,52,20,75,61,9,3.6,-34.4,-0.141927083,-0.395833333,1,0,0,1.7838,submitButton,-0.141927083,-0.395833333,0,0,0,1,58,118,36,1,52,69352,2,180,2022-02-10_10h45.19.831,orientation adjustment 2,2021.2.3,Win32,60.0240096,,,,,,,
,,,,,,,,,,,,,,,,,,,,,,51.66666667,-29,20,75,-46.33333333,17.33333333,11.26666667,-130.2666667,0.4140625,-0.31640625,1,0,0,0.0163,submitButton,0.252604167,-0.3984375,1,0,0,1,59,119,13,1,29,69352,2,180,2022-02-10_10h45.19.831,orientation adjustment 2,2021.2.3,Win32,60.0240096,pause_continueButton,,,,,,
,,,,,,,,,,,,,,,,,,,,,,-28.33333333,24,20,75,58.66666667,34.66666667,27.73333333,-38.26666667,-0.194010417,-0.39453125,1,0,0,1.417,submitButton,0.321614583,-0.315104167,0,0,0,2,0,120,8,1,24,69352,2,180,2022-02-10_10h45.19.831,orientation adjustment 2,2021.2.3,Win32,60.0240096,,,,,,,
,,,,,,,,,,,,,,,,,,,,,,-44.44444444,49,20,75,50.55555556,1.555555556,0.622222222,-40.37777778,-0.1953125,-0.40234375,1,0,0,2.4172,submitButton,0.092447917,-0.135416667,0,0,0,2,1,121,33,1,49,69352,2,180,2022-02-10_10h45.19.831,orientation adjustment 2,2021.2.3,Win32,60.0240096,,,,,,,
,,,,,,,,,,,,,,,,,,,,,,-64.44444444,47,20,75,43.55555556,3.444444444,1.377777778,-44.37777778,-0.233072917,-0.408854167,1,0,0,2.0682,submitButton,-0.104166667,-0.489583333,0,0,0,2,2,122,31,1,47,69352,2,180,2022-02-10_10h45.19.831,orientation adjustment 2,2021.2.3,Win32,60.0240096,,,,,,,
,,,,,,,,,,,,,,,,,,,,,,-33.33333333,-23,20,75,-34.33333333,11.33333333,4.533333333,-117.5333333,0.169270833,-0.31640625,1,0,0,0.0159,submitButton,-0.201822917,-0.498697917,0,0,0,2,3,123,7,1,23,69352,2,180,2022-02-10_10h45.19.831,orientation adjustment 2,2021.2.3,Win32,60.0240096,,,,,,,
,,,,,,,,,,,,,,,,,,,,,,33.33333333,29,20,75,28.33333333,0.666666667,0.266666667,-61.26666667,0.42578125,-0.283854167,1,0,0,0.1006,submitButton,-0.135416667,-0.42578125,0,0,0,2,4,124,13,1,29,69352,2,180,2022-02-10_10h45.19.831,orientation adjustment 2,2021.2.3,Win32,60.0240096,,,,,,,
,,,,,,,,,,,,,,,,,,,,,,-72.22222222,62,20,75,57.77777778,4.222222222,1.688888889,-29.68888889,0.16796875,-0.329427083,1,0,0,0.7834,submitButton,0.024739583,-0.377604167,0,0,0,2,5,125,46,1,62,69352,2,180,2022-02-10_10h45.19.831,orientation adjustment 2,2021.2.3,Win32,60.0240096,,,,,,,
,,,,,,,,,,,,,,,,,,,,,,-39.44444444,-30,20,75,-31.44444444,1.444444444,0.577777778,-120.5777778,0.209635417,-0.3203125,1,0,0,0.6499,submitButton,-0.235677083,-0.41796875,0,0,0,2,6,126,14,1,30,69352,2,180,2022-02-10_10h45.19.831,orientation adjustment 2,2021.2.3,Win32,60.0240096,,,,,,,
,,,,,,,,,,,,,,,,,,,,,,30.55555556,64,20,75,133.5555556,69.55555556,55.64444444,29.64444444,0.233072917,-0.29296875,1,0,0,3.0996,submitButton,-0.12109375,-0.428385417,0,0,0,2,7,127,48,1,64,69352,2,180,2022-02-10_10h45.19.831,orientation adjustment 2,2021.2.3,Win32,60.0240096,,,,,,,
,,,,,,,,,,,,,,,,,,,,,,-53.88888889,-19,20,75,-30.88888889,11.88888889,4.755555556,-113.7555556,-0.235677083,-0.40625,1,0,0,1.667,submitButton,-0.303385417,-0.46875,0,0,0,2,8,128,3,1,19,69352,2,180,2022-02-10_10h45.19.831,orientation adjustment 2,2021.2.3,Win32,60.0240096,,,,,,,
,,,,,,,,,,,,,,,,,,,,,,-30,-25,20,75,-25,0,0,-115,0.234375,-0.26953125,1,0,0,0.5167,submitButton,-0.21484375,-0.4296875,0,0,0,2,9,129,9,1,25,69352,2,180,2022-02-10_10h45.19.831,orientation adjustment 2,2021.2.3,Win32,60.0240096,,,,,,,
,,,,,,,,,,,,,,,,,,,,,,48.88888889,50,20,75,56.88888889,6.888888889,2.755555556,-37.24444444,-0.151041667,-0.399739583,1,0,0,1.6836,submitButton,-0.13671875,-0.411458333,0,0,0,2,10,130,34,1,50,69352,2,180,2022-02-10_10h45.19.831,orientation adjustment 2,2021.2.3,Win32,60.0240096,,,,,,,
,,,,,,,,,,,,,,,,,,,,,,-43.33333333,-17,20,75,-23.33333333,6.333333333,2.533333333,-109.5333333,-0.147135417,-0.3984375,1,0,0,1.2499,submitButton,-0.171875,-0.442708333,0,0,0,2,11,131,1,1,17,69352,2,180,2022-02-10_10h45.19.831,orientation adjustment 2,2021.2.3,Win32,60.0240096,,,,,,,
,,,,,,,,,,,,,,,,,,,,,,-32.22222222,41,20,75,49.77777778,8.777777778,3.511111111,-45.48888889,-0.151041667,-0.3984375,1,0,0,1.9,submitButton,-0.104166667,-0.46875,0,0,0,2,12,132,25,1,41,69352,2,180,2022-02-10_10h45.19.831,orientation adjustment 2,2021.2.3,Win32,60.0240096,,,,,,,
,,,,,,,,,,,,,,,,,,,,,,-68.33333333,-70,20,75,-246.3333333,3.666666667,1.466666667,-161.4666667,-0.12109375,-0.384114583,1,0,0,2.7164,submitButton,-0.180989583,-0.479166667,0,0,0,2,13,133,54,1,70,69352,2,180,2022-02-10_10h45.19.831,orientation adjustment 2,2021.2.3,Win32,60.0240096,,,,,,,
,,,,,,,,,,,,,,,,,,,,,,-26.66666667,-75,20,75,-69.66666667,5.333333333,2.133333333,-162.8666667,-0.1640625,-0.397135417,1,0,0,1.3351,submitButton,0.453125,-0.41015625,1,0,0,2,14,134,59,1,75,69352,2,180,2022-02-10_10h45.19.831,orientation adjustment 2,2021.2.3,Win32,60.0240096,pause_continueButton,,,,,,
,,,,,,,,,,,,,,,,,,,,,,29.44444444,73,20,75,62.44444444,10.55555556,4.222222222,-21.22222222,0.444010417,-0.279947917,1,0,0,0.2521,submitButton,-0.013020833,-0.260416667,0,0,0,2,15,135,57,1,73,69352,2,180,2022-02-10_10h45.19.831,orientation adjustment 2,2021.2.3,Win32,60.0240096,,,,,,,
,,,,,,,,,,,,,,,,,,,,,,61.66666667,71,20,75,58.66666667,12.33333333,4.933333333,-23.93333333,0.388020833,-0.311197917,1,0,0,0.1824,submitButton,-0.21484375,-0.307291667,0,0,0,2,16,136,55,1,71,69352,2,180,2022-02-10_10h45.19.831,orientation adjustment 2,2021.2.3,Win32,60.0240096,,,,,,,
,,,,,,,,,,,,,,,,,,,,,,-72.22222222,39,20,75,50.77777778,11.77777778,4.711111111,-46.28888889,0.217447917,-0.330729167,1,0,0,1.0661,submitButton,-0.166666667,-0.438802083,0,0,0,2,17,137,23,1,39,69352,2,180,2022-02-10_10h45.19.831,orientation adjustment 2,2021.2.3,Win32,60.0240096,,,,,,,
,,,,,,,,,,,,,,,,,,,,,,35,-69,20,75,-64,5,2,-157,-0.131510417,-0.41015625,1,0,0,1.3349,submitButton,-0.0078125,-0.498697917,0,0,0,2,18,138,53,1,69,69352,2,180,2022-02-10_10h45.19.831,orientation adjustment 2,2021.2.3,Win32,60.0240096,,,,,,,
,,,,,,,,,,,,,,,,,,,,,,26.66666667,31,20,75,40.66666667,9.666666667,3.866666667,-55.13333333,0.3671875,-0.286458333,1,0,0,0.147,submitButton,0.0078125,-0.35546875,0,0,0,2,19,139,15,1,31,69352,2,180,2022-02-10_10h45.19.831,orientation adjustment 2,2021.2.3,Win32,60.0240096,,,,,,,
,,,,,,,,,,,,,,,,,,,,,,-33.88888889,20,20,75,33.11111111,13.11111111,5.244444444,-64.75555556,0.233072917,-0.311197917,1,0,0,0.398,submitButton,0.072916667,-0.389322917,0,0,0,2,20,140,4,1,20,69352,2,180,2022-02-10_10h45.19.831,orientation adjustment 2,2021.2.3,Win32,60.0240096,,,,,,,
,,,,,,,,,,,,,,,,,,,,,,-30.55555556,-38,20,75,-40.55555556,2.555555556,1.022222222,-129.0222222,-0.287760417,-0.40234375,1,0,0,2.0497,submitButton,-0.328125,-0.274739583,0,0,0,2,21,141,22,1,38,69352,2,180,2022-02-10_10h45.19.831,orientation adjustment 2,2021.2.3,Win32,60.0240096,,,,,,,
,,,,,,,,,,,,,,,,,,,,,,35.55555556,51,20,75,52.55555556,1.555555556,0.622222222,-38.37777778,0.3828125,-0.30078125,1,0,0,0.434,submitButton,-0.139322917,-0.30078125,0,0,0,2,22,142,35,1,51,69352,2,180,2022-02-10_10h45.19.831,orientation adjustment 2,2021.2.3,Win32,60.0240096,,,,,,,
,,,,,,,,,,,,,,,,,,,,,,-57.77777778,-72,20,75,-241.7777778,10.22222222,4.088888889,-166.0888889,0.365885417,-0.296875,1,0,0,1.8666,submitButton,-0.19921875,-0.411458333,0,0,0,2,23,143,56,1,72,69352,2,180,2022-02-10_10h45.19.831,orientation adjustment 2,2021.2.3,Win32,60.0240096,,,,,,,
,,,,,,,,,,,,,,,,,,,,,,-42.77777778,-18,20,75,-11.77777778,6.222222222,2.488888889,-105.5111111,0.171875,-0.313802083,1,0,0,0.5135,submitButton,0.080729167,-0.455729167,0,0,0,2,24,144,2,1,18,69352,2,180,2022-02-10_10h45.19.831,orientation adjustment 2,2021.2.3,Win32,60.0240096,,,,,,,
,,,,,,,,,,,,,,,,,,,,,,69.44444444,74,20,75,59.44444444,14.55555556,5.822222222,-21.82222222,0.37109375,-0.294270833,1,0,0,1.3674,submitButton,-0.149739583,-0.42578125,0,0,0,2,25,145,58,1,74,69352,2,180,2022-02-10_10h45.19.831,orientation adjustment 2,2021.2.3,Win32,60.0240096,,,,,,,
,,,,,,,,,,,,,,,,,,,,,,-22.77777778,26,20,75,50.22222222,24.22222222,15.74444444,-48.25555556,-0.153645833,-0.3984375,1,0,0,1.883,submitButton,-0.10546875,-0.498697917,0,0,0,2,26,146,10,1,26,69352,2,180,2022-02-10_10h45.19.831,orientation adjustment 2,2021.2.3,Win32,60.0240096,,,,,,,
,,,,,,,,,,,,,,,,,,,,,,58.33333333,43,20,75,30.33333333,12.66666667,5.066666667,-52.06666667,0.416666667,-0.309895833,1,0,0,0.7331,submitButton,-0.196614583,-0.498697917,0,0,0,2,27,147,27,1,43,69352,2,180,2022-02-10_10h45.19.831,orientation adjustment 2,2021.2.3,Win32,60.0240096,,,,,,,
,,,,,,,,,,,,,,,,,,,,,,75,-42,20,75,-44,2,0.8,-132.8,0.388020833,-0.28125,1,0,0,0.9502,submitButton,-0.290364583,-0.498697917,0,0,0,2,28,148,26,1,42,69352,2,180,2022-02-10_10h45.19.831,orientation adjustment 2,2021.2.3,Win32,60.0240096,,,,,,,
,,,,,,,,,,,,,,,,,,,,,,60.55555556,67,20,75,56.55555556,10.44444444,4.177777778,-27.17777778,0.3984375,-0.291666667,1,0,0,0.1308,submitButton,0.21484375,-0.41796875,1,0,0,2,29,149,51,1,67,69352,2,180,2022-02-10_10h45.19.831,orientation adjustment 2,2021.2.3,Win32,60.0240096,pause_continueButton,,,,,,
,,,,,,,,,,,,,,,,,,,,,,51.11111111,22,20,75,36.11111111,14.11111111,5.644444444,-62.35555556,0.411458333,-0.296875,1,0,0,0.0333,submitButton,0.329427083,-0.424479167,0,0,0,2,30,150,6,1,22,69352,2,180,2022-02-10_10h45.19.831,orientation adjustment 2,2021.2.3,Win32,60.0240096,,,,,,,
,,,,,,,,,,,,,,,,,,,,,,-52.77777778,-53,20,75,-37.77777778,15.22222222,9.894444444,-133.1055556,0.213541667,-0.294270833,1,0,0,1.3333,submitButton,-0.1015625,-0.286458333,0,0,0,2,31,151,37,1,53,69352,2,180,2022-02-10_10h45.19.831,orientation adjustment 2,2021.2.3,Win32,60.0240096,,,,,,,
,,,,,,,,,,,,,,,,,,,,,,55.55555556,68,20,75,56.55555556,11.44444444,4.577777778,-26.57777778,0.415364583,-0.319010417,1,0,0,0.9333,submitButton,-0.014322917,-0.34765625,0,0,0,2,32,152,52,1,68,69352,2,180,2022-02-10_10h45.19.831,orientation adjustment 2,2021.2.3,Win32,60.0240096,,,,,,,
,,,,,,,,,,,,,,,,,,,,,,72.22222222,-28,20,75,152.2222222,0.222222222,0.088888889,-117.9111111,0.173177083,-0.317708333,1,0,0,1.7304,submitButton,0.005208333,0.00390625,0,0,0,2,33,153,12,1,28,69352,2,180,2022-02-10_10h45.19.831,orientation adjustment 2,2021.2.3,Win32,60.0240096,,,,,,,
,,,,,,,,,,,,,,,,,,,,,,60.55555556,66,20,75,56.55555556,9.444444444,3.777777778,-27.77777778,-0.24609375,-0.393229167,1,0,0,1.5672,submitButton,-0.24609375,-0.3984375,0,0,0,2,34,154,50,1,66,69352,2,180,2022-02-10_10h45.19.831,orientation adjustment 2,2021.2.3,Win32,60.0240096,,,,,,,
,,,,,,,,,,,,,,,,,,,,,,38.33333333,-34,20,75,-27.66666667,6.333333333,2.533333333,-121.4666667,0.44921875,-0.30859375,1,0,0,0.0153,submitButton,-0.158854167,-0.423177083,0,0,0,2,35,155,18,1,34,69352,2,180,2022-02-10_10h45.19.831,orientation adjustment 2,2021.2.3,Win32,60.0240096,,,,,,,
,,,,,,,,,,,,,,,,,,,,,,25,-56,20,75,-61,5,2,-148,-0.11328125,-0.404947917,1,0,0,1.0997,submitButton,-0.139322917,-0.40625,0,0,0,2,36,156,40,1,56,69352,2,180,2022-02-10_10h45.19.831,orientation adjustment 2,2021.2.3,Win32,60.0240096,,,,,,,
,,,,,,,,,,,,,,,,,,,,,,-20,-44,20,75,-38,6,2.4,-131.6,-0.1875,-0.40625,1,0,0,0.8167,submitButton,-0.266927083,-0.498697917,0,0,0,2,37,157,28,1,44,69352,2,180,2022-02-10_10h45.19.831,orientation adjustment 2,2021.2.3,Win32,60.0240096,,,,,,,
,,,,,,,,,,,,,,,,,,,,,,25,32,20,75,22,10,4,-62,0.3671875,-0.29296875,1,0,0,0.4334,submitButton,-0.2265625,-0.498697917,0,0,0,2,38,158,16,1,32,69352,2,180,2022-02-10_10h45.19.831,orientation adjustment 2,2021.2.3,Win32,60.0240096,,,,,,,
,,,,,,,,,,,,,,,,,,,,,,-65,-35,20,75,-217,2,0.8,-125.8,0.424479167,-0.290364583,1,0,0,1.9499,submitButton,-0.35546875,-0.375,0,0,0,2,39,159,19,1,35,69352,2,180,2022-02-10_10h45.19.831,orientation adjustment 2,2021.2.3,Win32,60.0240096,,,,,,,
,,,,,,,,,,,,,,,,,,,,,,-32.22222222,45,20,75,43.77777778,1.222222222,0.488888889,-45.48888889,0.165364583,-0.29296875,1,0,0,0.1009,submitButton,-0.013020833,-0.463541667,0,0,0,2,40,160,29,1,45,69352,2,180,2022-02-10_10h45.19.831,orientation adjustment 2,2021.2.3,Win32,60.0240096,,,,,,,
,,,,,,,,,,,,,,,,,,,,,,70,65,20,75,247,2,0.8,-24.2,0.180989583,-0.328125,1,0,0,1.8831,submitButton,-0.04296875,-0.372395833,0,0,0,2,41,161,49,1,65,69352,2,180,2022-02-10_10h45.19.831,orientation adjustment 2,2021.2.3,Win32,60.0240096,,,,,,,
,,,,,,,,,,,,,,,,,,,,,,-35,-37,20,75,-30,7,2.8,-124.2,0.130208333,-0.326822917,1,0,0,0.0997,submitButton,-0.104166667,-0.483072917,0,0,0,2,42,162,21,1,37,69352,2,180,2022-02-10_10h45.19.831,orientation adjustment 2,2021.2.3,Win32,60.0240096,,,,,,,
,,,,,,,,,,,,,,,,,,,,,,54.44444444,-54,20,75,-82.55555556,28.55555556,18.56111111,-162.5611111,0.3984375,-0.305989583,1,0,0,0.7498,submitButton,0.0859375,-0.397135417,0,0,0,2,43,163,38,1,54,69352,2,180,2022-02-10_10h45.19.831,orientation adjustment 2,2021.2.3,Win32,60.0240096,,,,,,,
,,,,,,,,,,,,,,,,,,,,,,32.77777778,27,20,75,24.77777778,2.222222222,0.888888889,-63.88888889,0.40234375,-0.317708333,1,0,0,0.55,submitButton,0.419270833,-0.423177083,1,0,0,2,44,164,11,1,27,69352,2,180,2022-02-10_10h45.19.831,orientation adjustment 2,2021.2.3,Win32,60.0240096,pause_continueButton,,,,,,
,,,,,,,,,,,,,,,,,,,,,,-69.44444444,-40,20,75,-244.4444444,24.44444444,15.88888889,-145.8888889,0.4140625,-0.276041667,1,0,0,1.8316,submitButton,-0.041666667,-0.204427083,0,0,0,2,45,165,24,1,40,69352,2,180,2022-02-10_10h45.19.831,orientation adjustment 2,2021.2.3,Win32,60.0240096,,,,,,,
,,,,,,,,,,,,,,,,,,,,,,37.22222222,16,20,75,13.22222222,2.777777778,1.111111111,-75.11111111,0.389322917,-0.2890625,1,0,0,0.4996,submitButton,-0.09375,-0.325520833,0,0,0,2,46,166,0,1,16,69352,2,180,2022-02-10_10h45.19.831,orientation adjustment 2,2021.2.3,Win32,60.0240096,,,,,,,
,,,,,,,,,,,,,,,,,,,,,,56.66666667,-33,20,75,-33.33333333,0.333333333,0.133333333,-123.1333333,-0.1796875,-0.3984375,1,0,0,1.1184,submitButton,-0.209635417,-0.295572917,0,0,0,2,47,167,17,1,33,69352,2,180,2022-02-10_10h45.19.831,orientation adjustment 2,2021.2.3,Win32,60.0240096,,,,,,,
,,,,,,,,,,,,,,,,,,,,,,-61.11111111,-58,20,75,-60.11111111,2.111111111,0.844444444,-148.8444444,0.22265625,-0.315104167,1,0,0,0.1327,submitButton,-0.06640625,-0.328125,0,0,0,2,48,168,42,1,58,69352,2,180,2022-02-10_10h45.19.831,orientation adjustment 2,2021.2.3,Win32,60.0240096,,,,,,,
,,,,,,,,,,,,,,,,,,,,,,66.11111111,60,20,75,63.11111111,3.111111111,1.244444444,-28.75555556,-0.1484375,-0.397135417,1,0,0,1.4167,submitButton,-0.153645833,-0.399739583,0,0,0,2,49,169,44,1,60,69352,2,180,2022-02-10_10h45.19.831,orientation adjustment 2,2021.2.3,Win32,60.0240096,,,,,,,
,,,,,,,,,,,,,,,,,,,,,,-43.33333333,-46,20,75,-55.33333333,9.333333333,3.733333333,-139.7333333,-0.229166667,-0.389322917,1,0,0,0.8498,submitButton,-0.03515625,-0.171875,0,0,0,2,50,170,30,1,46,69352,2,180,2022-02-10_10h45.19.831,orientation adjustment 2,2021.2.3,Win32,60.0240096,,,,,,,
,,,,,,,,,,,,,,,,,,,,,,48.88888889,-48,20,75,-48.11111111,0.111111111,0.044444444,-138.0444444,-0.295572917,-0.40625,1,0,0,1.733,submitButton,-0.3046875,-0.427083333,0,0,0,2,51,171,32,1,48,69352,2,180,2022-02-10_10h45.19.831,orientation adjustment 2,2021.2.3,Win32,60.0240096,,,,,,,
,,,,,,,,,,,,,,,,,,,,,,67.22222222,36,20,75,46.22222222,10.22222222,4.088888889,-49.91111111,0.373697917,-0.291666667,1,0,0,0.3171,submitButton,-0.182291667,-0.411458333,0,0,0,2,52,172,20,1,36,69352,2,180,2022-02-10_10h45.19.831,orientation adjustment 2,2021.2.3,Win32,60.0240096,,,,,,,
,,,,,,,,,,,,,,,,,,,,,,-45,52,20,75,47,5,2,-40,0.16015625,-0.311197917,1,0,0,0.1168,submitButton,-0.25390625,-0.4765625,0,0,0,2,53,173,36,1,52,69352,2,180,2022-02-10_10h45.19.831,orientation adjustment 2,2021.2.3,Win32,60.0240096,,,,,,,
,,,,,,,,,,,,,,,,,,,,,,45.55555556,57,20,75,50.55555556,6.444444444,2.577777778,-35.57777778,0.403645833,-0.3046875,1,0,0,0.5839,submitButton,-0.178385417,-0.434895833,0,0,0,2,54,174,41,1,57,69352,2,180,2022-02-10_10h45.19.831,orientation adjustment 2,2021.2.3,Win32,60.0240096,,,,,,,
,,,,,,,,,,,,,,,,,,,,,,-48.33333333,55,20,75,60.66666667,5.666666667,2.266666667,-32.73333333,-0.149739583,-0.40625,1,0,0,1.7668,submitButton,-0.157552083,-0.41796875,0,0,0,2,55,175,39,1,55,69352,2,180,2022-02-10_10h45.19.831,orientation adjustment 2,2021.2.3,Win32,60.0240096,,,,,,,
,,,,,,,,,,,,,,,,,,,,,,-38.33333333,59,20,75,63.66666667,4.666666667,1.866666667,-29.13333333,-0.12890625,-0.4140625,1,0,0,1.4503,submitButton,-0.157552083,-0.450520833,0,0,0,2,56,176,43,1,59,69352,2,180,2022-02-10_10h45.19.831,orientation adjustment 2,2021.2.3,Win32,60.0240096,,,,,,,
,,,,,,,,,,,,,,,,,,,,,,58.33333333,-61,20,75,-67.66666667,6.666666667,2.666666667,-153.6666667,0.39453125,-0.334635417,1,0,0,0.9009,submitButton,-0.520833333,-0.3515625,0,0,0,2,57,177,45,1,61,69352,2,180,2022-02-10_10h45.19.831,orientation adjustment 2,2021.2.3,Win32,60.0240096,,,,,,,
,,,,,,,,,,,,,,,,,,,,,,-28.33333333,21,20,75,37.66666667,16.66666667,10.83333333,-58.16666667,-0.12109375,-0.404947917,1,0,0,1.2164,submitButton,0.040364583,-0.330729167,0,0,0,2,58,178,5,1,21,69352,2,180,2022-02-10_10h45.19.831,orientation adjustment 2,2021.2.3,Win32,60.0240096,,,,,,,
,,,,,,,,,,,,,,,,,,,,,,32.77777778,63,20,75,63.77777778,0.777777778,0.311111111,-26.68888889,0.368489583,-0.28125,1,0,0,0.1165,submitButton,-0.350260417,-0.415364583,0,0,0,2,59,179,47,1,63,69352,2,180,2022-02-10_10h45.19.831,orientation adjustment 2,2021.2.3,Win32,60.0240096,,,,,,,
,,,,,,,,,,,,,,,,,,,,,,,,,,,,,,,,,,,,,,,,,,,,,,,,69352,2,180,2022-02-10_10h45.19.831,orientation adjustment 2,2021.2.3,Win32,60.0240096,,0.21875,-0.401041667,1,0,0,EndButtonTxt
