consentMouse1.x,consentMouse1.y,consentMouse1.leftButton,consentMouse1.midButton,consentMouse1.rightButton,consentMouse1.clicked_name,consent_Mouse.x,consent_Mouse.y,consent_Mouse.leftButton,consent_Mouse.midButton,consent_Mouse.rightButton,consent_Mouse.clicked_name,startMouse.x,startMouse.y,startMouse.leftButton,startMouse.midButton,startMouse.rightButton,startMouse_2.x,startMouse_2.y,startMouse_2.leftButton,startMouse_2.midButton,startMouse_2.rightButton,start_distance,fixedOri,minimalDistance,maxOri,this_ori,accuracy,presented_accuracy,presented_this_ori,submitMouse.x,submitMouse.y,submitMouse.leftButton,submitMouse.midButton,submitMouse.rightButton,submitMouse.time,submitMouse.clicked_name,pauseMouse.x,pauseMouse.y,pauseMouse.leftButton,pauseMouse.midButton,pauseMouse.rightButton,trials.thisRepN,trials.thisTrialN,trials.thisN,trials.thisIndex,trials.ran,startOri,participant,condition,nTrials,date,expName,psychopyVersion,OS,frameRate,pauseMouse.clicked_name,EndButtonMouse.x,EndButtonMouse.y,EndButtonMouse.leftButton,EndButtonMouse.midButton,EndButtonMouse.rightButton,EndButtonMouse.clicked_name
0.384259297,-0.407407491,1,0,0,consent_button1,0.434259299,-0.392592619,1,0,0,consent_button,0.070370399,-0.160185205,1,0,0,0.070370399,-0.160185205,1,0,0,-73.88888889,-68,20,75,-62.88888889,5.111111111,2.044444444,-155.9555556,0.175925958,-0.279629709,1,0,0,7.7657,submitButton,-0.270370352,-0.412037064,0,0,0,0,0,0,52,1,68,69571,2,180,2022-02-11_12h15.29.852,orientation adjustment 2,2021.2.3,Win32,60.33546519,,,,,,,
,,,,,,,,,,,,,,,,,,,,,,47.77777778,56,20,75,230.7777778,5.222222222,2.088888889,-31.91111111,0.200000032,-0.28703706,1,0,0,1.933,submitButton,-0.165740719,-0.457407436,0,0,0,0,1,1,40,1,56,69571,2,180,2022-02-11_12h15.29.852,orientation adjustment 2,2021.2.3,Win32,60.33546519,,,,,,,
,,,,,,,,,,,,,,,,,,,,,,-63.33333333,-37,20,75,-218.3333333,1.333333333,0.533333333,-127.5333333,0.41111115,-0.284259283,1,0,0,1.8675,submitButton,-0.206481461,-0.409259286,0,0,0,0,2,2,21,1,37,69571,2,180,2022-02-11_12h15.29.852,orientation adjustment 2,2021.2.3,Win32,60.33546519,,,,,,,
,,,,,,,,,,,,,,,,,,,,,,-46.11111111,-59,20,75,-239.1111111,0.111111111,0.044444444,-149.0444444,0.410185224,-0.286111135,1,0,0,2.0514,submitButton,-0.203703683,-0.393518602,0,0,0,0,3,3,43,1,59,69571,2,180,2022-02-11_12h15.29.852,orientation adjustment 2,2021.2.3,Win32,60.33546519,,,,,,,
,,,,,,,,,,,,,,,,,,,,,,-39.44444444,-58,20,75,-236.4444444,1.555555556,0.622222222,-148.6222222,0.389814853,-0.283333357,1,0,0,2.1466,submitButton,0.012963046,-0.303703728,0,0,0,0,4,4,42,1,58,69571,2,180,2022-02-11_12h15.29.852,orientation adjustment 2,2021.2.3,Win32,60.33546519,,,,,,,
,,,,,,,,,,,,,,,,,,,,,,55,-50,20,75,-54,4,1.6,-141.6,0.378703741,-0.275925949,1,0,0,0.5508,submitButton,0.171296328,-0.326851933,0,0,0,0,5,5,34,1,50,69571,2,180,2022-02-11_12h15.29.852,orientation adjustment 2,2021.2.3,Win32,60.33546519,,,,,,,
,,,,,,,,,,,,,,,,,,,,,,36.11111111,-69,20,75,-81.88888889,12.88888889,5.155555556,-164.1555556,0.425925965,-0.269444467,1,0,0,0.7835,submitButton,-0.182407386,-0.401851935,0,0,0,0,6,6,53,1,69,69571,2,180,2022-02-11_12h15.29.852,orientation adjustment 2,2021.2.3,Win32,60.33546519,,,,,,,
,,,,,,,,,,,,,,,,,,,,,,38.88888889,-33,20,75,-21.11111111,11.88888889,4.755555556,-118.2444444,-0.166666645,-0.398148175,1,0,0,1.2297,submitButton,0.061111139,-0.390740824,0,0,0,0,7,7,17,1,33,69571,2,180,2022-02-11_12h15.29.852,orientation adjustment 2,2021.2.3,Win32,60.33546519,,,,,,,
,,,,,,,,,,,,,,,,,,,,,,-25,73,20,75,64,9,3.6,-20.6,-0.188888868,-0.395370397,1,0,0,1.002,submitButton,0.119444474,-0.354629712,0,0,0,0,8,8,57,1,73,69571,2,180,2022-02-11_12h15.29.852,orientation adjustment 2,2021.2.3,Win32,60.33546519,,,,,,,
,,,,,,,,,,,,,,,,,,,,,,25.55555556,60,20,75,67.55555556,7.555555556,3.022222222,-26.97777778,0.435185225,-0.276851932,1,0,0,0.4034,submitButton,0.115740771,-0.39629638,0,0,0,0,9,9,44,1,60,69571,2,180,2022-02-11_12h15.29.852,orientation adjustment 2,2021.2.3,Win32,60.33546519,,,,,,,
,,,,,,,,,,,,,,,,,,,,,,52.22222222,-75,20,75,-70.77777778,4.222222222,1.688888889,-163.3111111,0.379629667,-0.308333357,1,0,0,0.5459,submitButton,0.12500003,-0.365740823,0,0,0,0,10,10,59,1,75,69571,2,180,2022-02-11_12h15.29.852,orientation adjustment 2,2021.2.3,Win32,60.33546519,,,,,,,
,,,,,,,,,,,,,,,,,,,,,,-75,-18,20,75,-200,2,0.8,-108.8,0.385185223,-0.280555579,1,0,0,2.4505,submitButton,0.189814847,-0.403703731,0,0,0,0,11,11,2,1,18,69571,2,180,2022-02-11_12h15.29.852,orientation adjustment 2,2021.2.3,Win32,60.33546519,,,,,,,
,,,,,,,,,,,,,,,,,,,,,,26.66666667,-44,20,75,-46.33333333,2.333333333,0.933333333,-134.9333333,-0.184259238,-0.41759262,1,0,0,1.8334,submitButton,0.012963046,-0.320370395,0,0,0,0,12,12,28,1,44,69571,2,180,2022-02-11_12h15.29.852,orientation adjustment 2,2021.2.3,Win32,60.33546519,,,,,,,
,,,,,,,,,,,,,,,,,,,,,,-64.44444444,-64,20,75,-229.4444444,14.55555556,5.822222222,-159.8222222,0.395370409,-0.30555558,1,0,0,1.5064,submitButton,0.201851884,-0.434259287,0,0,0,0,13,13,48,1,64,69571,2,180,2022-02-11_12h15.29.852,orientation adjustment 2,2021.2.3,Win32,60.33546519,,,,,,,
,,,,,,,,,,,,,,,,,,,,,,-52.77777778,22,20,75,24.22222222,2.222222222,0.888888889,-67.11111111,0.188888921,-0.298148172,1,0,0,0.9966,submitButton,0.375000038,-0.377777804,1,0,0,0,14,14,6,1,22,69571,2,180,2022-02-11_12h15.29.852,orientation adjustment 2,2021.2.3,Win32,60.33546519,pause_continueButton,,,,,,
,,,,,,,,,,,,,,,,,,,,,,-34.44444444,-54,20,75,-239.4444444,5.444444444,2.177777778,-146.1777778,0.405555594,-0.280555579,1,0,0,2.4629,submitButton,0.060185213,-0.309259283,0,0,0,0,15,15,38,1,54,69571,2,180,2022-02-11_12h15.29.852,orientation adjustment 2,2021.2.3,Win32,60.33546519,,,,,,,
,,,,,,,,,,,,,,,,,,,,,,56.11111111,23,20,75,52.11111111,29.11111111,18.92222222,-48.07777778,0.41111115,-0.316666691,1,0,0,0.2672,submitButton,0.027777805,-0.373148174,0,0,0,0,16,16,7,1,23,69571,2,180,2022-02-11_12h15.29.852,orientation adjustment 2,2021.2.3,Win32,60.33546519,,,,,,,
,,,,,,,,,,,,,,,,,,,,,,-33.88888889,-21,20,75,-29.88888889,8.888888889,3.555555556,-114.5555556,0.211111144,-0.300000024,1,0,0,1.4705,submitButton,-0.116666644,-0.372222248,0,0,0,0,17,17,5,1,21,69571,2,180,2022-02-11_12h15.29.852,orientation adjustment 2,2021.2.3,Win32,60.33546519,,,,,,,
,,,,,,,,,,,,,,,,,,,,,,-44.44444444,-57,20,75,-203.4444444,33.55555556,26.84444444,-173.8444444,0.397222261,-0.283333357,1,0,0,3.1161,submitButton,-0.213888869,-0.410185269,0,0,0,0,18,18,41,1,57,69571,2,180,2022-02-11_12h15.29.852,orientation adjustment 2,2021.2.3,Win32,60.33546519,,,,,,,
,,,,,,,,,,,,,,,,,,,,,,24.44444444,16,20,75,28.44444444,12.44444444,4.977777778,-69.02222222,0.400925964,-0.303703728,1,0,0,0.4131,submitButton,0.104629659,-0.45648151,0,0,0,0,19,19,0,1,16,69571,2,180,2022-02-11_12h15.29.852,orientation adjustment 2,2021.2.3,Win32,60.33546519,,,,,,,
,,,,,,,,,,,,,,,,,,,,,,25,-51,20,75,-58,7,2.8,-143.8,0.418518557,-0.273148171,1,0,0,0.2172,submitButton,0.027777805,-0.358333359,0,0,0,0,20,20,35,1,51,69571,2,180,2022-02-11_12h15.29.852,orientation adjustment 2,2021.2.3,Win32,60.33546519,,,,,,,
,,,,,,,,,,,,,,,,,,,,,,44.44444444,-74,20,75,-71.55555556,2.444444444,0.977777778,-163.0222222,0.356481519,-0.306481506,1,0,0,0.1003,submitButton,-0.014814732,-0.39629638,0,0,0,0,21,21,58,1,74,69571,2,180,2022-02-11_12h15.29.852,orientation adjustment 2,2021.2.3,Win32,60.33546519,,,,,,,
,,,,,,,,,,,,,,,,,,,,,,-24.44444444,61,20,75,71.55555556,10.55555556,4.222222222,-24.77777778,0.185185217,-0.273148171,1,0,0,0.362,submitButton,0.087037066,-0.348148173,0,0,0,0,22,22,45,1,61,69571,2,180,2022-02-11_12h15.29.852,orientation adjustment 2,2021.2.3,Win32,60.33546519,,,,,,,
,,,,,,,,,,,,,,,,,,,,,,-27.22222222,-40,20,75,-40.22222222,0.222222222,0.088888889,-130.0888889,0.171296328,-0.267592615,1,0,0,0.033,submitButton,-0.194444424,-0.403703731,0,0,0,0,23,23,24,1,40,69571,2,180,2022-02-11_12h15.29.852,orientation adjustment 2,2021.2.3,Win32,60.33546519,,,,,,,
,,,,,,,,,,,,,,,,,,,,,,67.22222222,70,20,75,247.2222222,2.777777778,1.111111111,-18.88888889,0.196296329,-0.284259283,1,0,0,1.8629,submitButton,0.205555588,-0.345370396,0,0,0,0,24,24,54,1,70,69571,2,180,2022-02-11_12h15.29.852,orientation adjustment 2,2021.2.3,Win32,60.33546519,,,,,,,
,,,,,,,,,,,,,,,,,,,,,,-71.11111111,-47,20,75,-238.1111111,11.11111111,4.444444444,-141.4444444,0.409259298,-0.300000024,1,0,0,1.713,submitButton,-0.062962938,-0.425925954,0,0,0,0,25,25,31,1,47,69571,2,180,2022-02-11_12h15.29.852,orientation adjustment 2,2021.2.3,Win32,60.33546519,,,,,,,
,,,,,,,,,,,,,,,,,,,,,,-56.11111111,39,20,75,33.88888889,5.111111111,2.044444444,-53.04444444,0.186111143,-0.289814838,1,0,0,0.6342,submitButton,0.024074158,-0.359259285,0,0,0,0,26,26,23,1,39,69571,2,180,2022-02-11_12h15.29.852,orientation adjustment 2,2021.2.3,Win32,60.33546519,,,,,,,
,,,,,,,,,,,,,,,,,,,,,,-37.22222222,34,20,75,27.77777778,6.222222222,2.488888889,-58.48888889,0.157407439,-0.313888913,1,0,0,0.4138,submitButton,-0.227777758,-0.425925954,0,0,0,0,27,27,18,1,34,69571,2,180,2022-02-11_12h15.29.852,orientation adjustment 2,2021.2.3,Win32,60.33546519,,,,,,,
,,,,,,,,,,,,,,,,,,,,,,61.66666667,-66,20,75,-31.33333333,34.66666667,27.73333333,-128.2666667,-0.149074052,-0.390740824,1,0,0,1.1124,submitButton,0.28518522,-0.287963043,0,0,0,0,28,28,50,1,66,69571,2,180,2022-02-11_12h15.29.852,orientation adjustment 2,2021.2.3,Win32,60.33546519,,,,,,,
,,,,,,,,,,,,,,,,,,,,,,-73.88888889,-49,20,75,-234.8888889,5.888888889,2.355555556,-141.3555556,0.405555594,-0.276851932,1,0,0,2.0495,submitButton,0.460185225,-0.394444471,1,0,0,0,29,29,33,1,49,69571,2,180,2022-02-11_12h15.29.852,orientation adjustment 2,2021.2.3,Win32,60.33546519,pause_continueButton,,,,,,
,,,,,,,,,,,,,,,,,,,,,,24.44444444,43,20,75,41.44444444,1.555555556,0.622222222,-47.62222222,0.444444484,-0.300000024,1,0,0,0.2168,submitButton,-0.01759251,-0.37870373,0,0,0,0,30,30,27,1,43,69571,2,180,2022-02-11_12h15.29.852,orientation adjustment 2,2021.2.3,Win32,60.33546519,,,,,,,
,,,,,,,,,,,,,,,,,,,,,,28.88888889,-30,20,75,-30.11111111,0.111111111,0.044444444,-120.0444444,0.384259297,-0.285185265,1,0,0,0.1463,submitButton,-0.027777752,-0.401851935,0,0,0,0,31,31,14,1,30,69571,2,180,2022-02-11_12h15.29.852,orientation adjustment 2,2021.2.3,Win32,60.33546519,,,,,,,
,,,,,,,,,,,,,,,,,,,,,,62.22222222,-29,20,75,-33.77777778,4.777777778,1.911111111,-120.9111111,0.375925964,-0.286111135,1,0,0,0.1633,submitButton,0.092592622,-0.341666692,0,0,0,0,32,32,13,1,29,69571,2,180,2022-02-11_12h15.29.852,orientation adjustment 2,2021.2.3,Win32,60.33546519,,,,,,,
,,,,,,,,,,,,,,,,,,,,,,60.55555556,27,20,75,37.55555556,10.55555556,4.222222222,-58.77777778,0.40185189,-0.295370394,1,0,0,0.5204,submitButton,0.0953704,-0.403703731,0,0,0,0,33,33,11,1,27,69571,2,180,2022-02-11_12h15.29.852,orientation adjustment 2,2021.2.3,Win32,60.33546519,,,,,,,
,,,,,,,,,,,,,,,,,,,,,,-39.44444444,32,20,75,33.55555556,1.555555556,0.622222222,-57.37777778,0.204629662,-0.325000025,1,0,0,1.1798,submitButton,0.077777807,-0.400925953,0,0,0,0,34,34,16,1,32,69571,2,180,2022-02-11_12h15.29.852,orientation adjustment 2,2021.2.3,Win32,60.33546519,,,,,,,
,,,,,,,,,,,,,,,,,,,,,,-54.44444444,28,20,75,33.55555556,5.555555556,2.222222222,-59.77777778,0.179629661,-0.30462971,1,0,0,0.7174,submitButton,0.12962966,-0.414814842,0,0,0,0,35,35,12,1,28,69571,2,180,2022-02-11_12h15.29.852,orientation adjustment 2,2021.2.3,Win32,60.33546519,,,,,,,
,,,,,,,,,,,,,,,,,,,,,,-59.44444444,-31,20,75,-215.4444444,4.444444444,1.777777778,-122.7777778,0.40648152,-0.282407487,1,0,0,2.4673,submitButton,-0.22962961,-0.394444471,0,0,0,0,36,36,15,1,31,69571,2,180,2022-02-11_12h15.29.852,orientation adjustment 2,2021.2.3,Win32,60.33546519,,,,,,,
,,,,,,,,,,,,,,,,,,,,,,-62.77777778,62,20,75,59.22222222,2.777777778,1.111111111,-29.11111111,0.235185219,-0.288888912,1,0,0,1.3844,submitButton,-0.284259241,-0.380555582,0,0,0,0,37,37,46,1,62,69571,2,180,2022-02-11_12h15.29.852,orientation adjustment 2,2021.2.3,Win32,60.33546519,,,,,,,
,,,,,,,,,,,,,,,,,,,,,,43.33333333,36,20,75,60.33333333,24.33333333,15.81666667,-38.18333333,0.371296334,-0.298148172,1,0,0,0.0458,submitButton,-0.03518516,-0.415740825,0,0,0,0,38,38,20,1,36,69571,2,180,2022-02-11_12h15.29.852,orientation adjustment 2,2021.2.3,Win32,60.33546519,,,,,,,
,,,,,,,,,,,,,,,,,,,,,,54.44444444,-42,20,75,-41.55555556,0.444444444,0.177777778,-131.8222222,0.36759263,-0.289814838,1,0,0,0.7795,submitButton,0.029629714,-0.392592619,0,0,0,0,39,39,26,1,42,69571,2,180,2022-02-11_12h15.29.852,orientation adjustment 2,2021.2.3,Win32,60.33546519,,,,,,,
,,,,,,,,,,,,,,,,,,,,,,-58.88888889,24,20,75,19.11111111,4.888888889,1.955555556,-67.95555556,0.210185218,-0.294444468,1,0,0,0.0183,submitButton,-0.145370292,-0.405555583,0,0,0,0,40,40,8,1,24,69571,2,180,2022-02-11_12h15.29.852,orientation adjustment 2,2021.2.3,Win32,60.33546519,,,,,,,
,,,,,,,,,,,,,,,,,,,,,,53.88888889,-17,20,75,-23.11111111,6.111111111,2.444444444,-109.4444444,0.389814853,-0.279629709,1,0,0,1.2006,submitButton,0.165740772,-0.444444473,0,0,0,0,41,41,1,1,17,69571,2,180,2022-02-11_12h15.29.852,orientation adjustment 2,2021.2.3,Win32,60.33546519,,,,,,,
,,,,,,,,,,,,,,,,,,,,,,-70,46,20,75,42,4,1.6,-45.6,0.214814848,-0.285185265,1,0,0,0.8133,submitButton,0.20277781,-0.448148176,0,0,0,0,42,42,30,1,46,69571,2,180,2022-02-11_12h15.29.852,orientation adjustment 2,2021.2.3,Win32,60.33546519,,,,,,,
,,,,,,,,,,,,,,,,,,,,,,26.66666667,-48,20,75,-52.33333333,4.333333333,1.733333333,-139.7333333,-0.140740718,-0.386111138,1,0,0,0.9501,submitButton,0.165740772,-0.345370396,0,0,0,0,43,43,32,1,48,69571,2,180,2022-02-11_12h15.29.852,orientation adjustment 2,2021.2.3,Win32,60.33546519,,,,,,,
,,,,,,,,,,,,,,,,,,,,,,23.33333333,-45,20,75,-56.66666667,11.66666667,4.666666667,-139.6666667,0.363888926,-0.295370394,1,0,0,0.3962,submitButton,0.485185226,-0.395370397,1,0,0,0,44,44,29,1,45,69571,2,180,2022-02-11_12h15.29.852,orientation adjustment 2,2021.2.3,Win32,60.33546519,pause_continueButton,,,,,,
,,,,,,,,,,,,,,,,,,,,,,51.66666667,-41,20,75,-36.33333333,4.666666667,1.866666667,-129.1333333,0.40648152,-0.30462971,1,0,0,0.6629,submitButton,-0.31666665,-0.359259285,0,0,0,0,45,45,25,1,41,69571,2,180,2022-02-11_12h15.29.852,orientation adjustment 2,2021.2.3,Win32,60.33546519,,,,,,,
,,,,,,,,,,,,,,,,,,,,,,-43.33333333,71,20,75,57.66666667,13.33333333,5.333333333,-24.33333333,0.191666699,-0.30092595,1,0,0,0.1511,submitButton,-0.149074052,-0.386111138,0,0,0,0,46,46,55,1,71,69571,2,180,2022-02-11_12h15.29.852,orientation adjustment 2,2021.2.3,Win32,60.33546519,,,,,,,
,,,,,,,,,,,,,,,,,,,,,,73.88888889,55,20,75,229.8888889,5.111111111,2.044444444,-32.95555556,0.198148181,-0.30462971,1,0,0,0.0508,submitButton,-0.13425918,-0.403703731,0,0,0,0,47,47,39,1,55,69571,2,180,2022-02-11_12h15.29.852,orientation adjustment 2,2021.2.3,Win32,60.33546519,,,,,,,
,,,,,,,,,,,,,,,,,,,,,,-21.66666667,19,20,75,22.33333333,3.333333333,1.333333333,-69.66666667,0.201851884,-0.292592616,1,0,0,0.881,submitButton,0.118518549,-0.268518598,0,0,0,0,48,48,3,1,19,69571,2,180,2022-02-11_12h15.29.852,orientation adjustment 2,2021.2.3,Win32,60.33546519,,,,,,,
,,,,,,,,,,,,,,,,,,,,,,-52.77777778,-26,20,75,-39.77777778,13.77777778,5.511111111,-121.5111111,0.217592626,-0.29166669,1,0,0,0.0504,submitButton,0.231481515,-0.449074102,0,0,0,0,49,49,10,1,26,69571,2,180,2022-02-11_12h15.29.852,orientation adjustment 2,2021.2.3,Win32,60.33546519,,,,,,,
,,,,,,,,,,,,,,,,,,,,,,51.66666667,72,20,75,74.66666667,2.666666667,1.066666667,-16.93333333,0.421296335,-0.319444469,1,0,0,0.2664,submitButton,-0.178703683,-0.425000028,0,0,0,0,50,50,56,1,72,69571,2,180,2022-02-11_12h15.29.852,orientation adjustment 2,2021.2.3,Win32,60.33546519,,,,,,,
,,,,,,,,,,,,,,,,,,,,,,20.55555556,65,20,75,69.55555556,4.555555556,1.822222222,-23.17777778,0.375000038,-0.277777801,1,0,0,0.0995,submitButton,0.107407437,-0.37870373,0,0,0,0,51,51,49,1,65,69571,2,180,2022-02-11_12h15.29.852,orientation adjustment 2,2021.2.3,Win32,60.33546519,,,,,,,
,,,,,,,,,,,,,,,,,,,,,,37.22222222,-35,20,75,-31.77777778,3.222222222,1.288888889,-123.7111111,0.391666705,-0.292592616,1,0,0,0.0366,submitButton,-0.014814732,-0.326851933,0,0,0,0,52,52,19,1,35,69571,2,180,2022-02-11_12h15.29.852,orientation adjustment 2,2021.2.3,Win32,60.33546519,,,,,,,
,,,,,,,,,,,,,,,,,,,,,,26.11111111,-53,20,75,-59.88888889,6.888888889,2.755555556,-145.7555556,0.390740779,-0.275925949,1,0,0,1.5048,submitButton,0.179629661,-0.298148172,0,0,0,0,53,53,37,1,53,69571,2,180,2022-02-11_12h15.29.852,orientation adjustment 2,2021.2.3,Win32,60.33546519,,,,,,,
,,,,,,,,,,,,,,,,,,,,,,32.22222222,20,20,75,31.22222222,11.22222222,4.488888889,-65.51111111,0.249074108,-0.298148172,1,0,0,0.9798,submitButton,0.141666697,-0.392592619,0,0,0,0,54,54,4,1,20,69571,2,180,2022-02-11_12h15.29.852,orientation adjustment 2,2021.2.3,Win32,60.33546519,,,,,,,
,,,,,,,,,,,,,,,,,,,,,,21.11111111,-52,20,75,-60.88888889,8.888888889,3.555555556,-145.5555556,0.393518557,-0.299074154,1,0,0,0.6164,submitButton,0.187962995,-0.459259288,0,0,0,0,55,55,36,1,52,69571,2,180,2022-02-11_12h15.29.852,orientation adjustment 2,2021.2.3,Win32,60.33546519,,,,,,,
,,,,,,,,,,,,,,,,,,,,,,72.77777778,-63,20,75,-52.22222222,10.77777778,4.311111111,-148.6888889,0.418518557,-0.288888912,1,0,0,0.6798,submitButton,0.201851884,-0.457407436,0,0,0,0,56,56,47,1,63,69571,2,180,2022-02-11_12h15.29.852,orientation adjustment 2,2021.2.3,Win32,60.33546519,,,,,,,
,,,,,,,,,,,,,,,,,,,,,,42.22222222,67,20,75,62.22222222,4.777777778,1.911111111,-24.91111111,0.356481519,-0.349074156,1,0,0,0.8667,submitButton,0.21203707,-0.403703731,0,0,0,0,57,57,51,1,67,69571,2,180,2022-02-11_12h15.29.852,orientation adjustment 2,2021.2.3,Win32,60.33546519,,,,,,,
,,,,,,,,,,,,,,,,,,,,,,75,38,20,75,41,3,1.2,-50.8,0.369444482,-0.320370395,1,0,0,1.8491,submitButton,0.189814847,-0.340740822,0,0,0,0,58,58,22,1,38,69571,2,180,2022-02-11_12h15.29.852,orientation adjustment 2,2021.2.3,Win32,60.33546519,,,,,,,
,,,,,,,,,,,,,,,,,,,,,,47.77777778,25,20,75,21.77777778,3.222222222,1.288888889,-66.28888889,0.377777816,-0.274074154,1,0,0,0.5169,submitButton,0.212962996,-0.416666694,1,0,0,0,59,59,9,1,25,69571,2,180,2022-02-11_12h15.29.852,orientation adjustment 2,2021.2.3,Win32,60.33546519,pause_continueButton,,,,,,
,,,,,,,,,,,,,,,,,,,,,,-29.44444444,-42,20,75,-47.44444444,5.444444444,2.177777778,-134.1777778,0.237037071,-0.274074154,1,0,0,1.3211,submitButton,0.244444478,-0.121296315,0,0,0,1,0,60,26,1,42,69571,2,180,2022-02-11_12h15.29.852,orientation adjustment 2,2021.2.3,Win32,60.33546519,,,,,,,
,,,,,,,,,,,,,,,,,,,,,,53.88888889,-72,20,75,-63.11111111,8.888888889,3.555555556,-158.4444444,-0.2685185,-0.413888916,1,0,0,1.0508,submitButton,0.198148181,-0.281481505,0,0,0,1,1,61,56,1,72,69571,2,180,2022-02-11_12h15.29.852,orientation adjustment 2,2021.2.3,Win32,60.33546519,,,,,,,
,,,,,,,,,,,,,,,,,,,,,,-69.44444444,68,20,75,41.55555556,26.44444444,17.18888889,-39.18888889,0.200000032,-0.279629709,1,0,0,0.418,submitButton,-0.198148128,-0.397222249,0,0,0,1,2,62,52,1,68,69571,2,180,2022-02-11_12h15.29.852,orientation adjustment 2,2021.2.3,Win32,60.33546519,,,,,,,
,,,,,,,,,,,,,,,,,,,,,,-63.33333333,71,20,75,67.66666667,3.333333333,1.333333333,-20.33333333,0.228703737,-0.275000023,1,0,0,1.9339,submitButton,0.21203707,-0.340740822,0,0,0,1,3,63,55,1,71,69571,2,180,2022-02-11_12h15.29.852,orientation adjustment 2,2021.2.3,Win32,60.33546519,,,,,,,
,,,,,,,,,,,,,,,,,,,,,,27.77777778,-57,20,75,-62.22222222,5.222222222,2.088888889,-149.0888889,0.387963001,-0.284259283,1,0,0,0.5636,submitButton,-0.193518498,-0.410185269,0,0,0,1,4,64,41,1,57,69571,2,180,2022-02-11_12h15.29.852,orientation adjustment 2,2021.2.3,Win32,60.33546519,,,,,,,
,,,,,,,,,,,,,,,,,,,,,,-61.11111111,18,20,75,21.88888889,3.888888889,1.555555556,-70.44444444,0.21203707,-0.286111135,1,0,0,2.0664,submitButton,0.233333367,-0.329629711,0,0,0,1,5,65,2,1,18,69571,2,180,2022-02-11_12h15.29.852,orientation adjustment 2,2021.2.3,Win32,60.33546519,,,,,,,
,,,,,,,,,,,,,,,,,,,,,,-69.44444444,-48,20,75,-224.4444444,3.555555556,1.422222222,-139.4222222,-0.133333311,-0.388888915,1,0,0,2.38,submitButton,0.234259293,-0.243518597,0,0,0,1,6,66,32,1,48,69571,2,180,2022-02-11_12h15.29.852,orientation adjustment 2,2021.2.3,Win32,60.33546519,,,,,,,
,,,,,,,,,,,,,,,,,,,,,,25,56,20,75,57,1,0.4,-33.6,0.321296332,-0.302777802,1,0,0,0.0179,submitButton,0.100000029,-0.463888918,0,0,0,1,7,67,40,1,56,69571,2,180,2022-02-11_12h15.29.852,orientation adjustment 2,2021.2.3,Win32,60.33546519,,,,,,,
,,,,,,,,,,,,,,,,,,,,,,51.66666667,67,20,75,71.66666667,4.666666667,1.866666667,-21.13333333,0.400000038,-0.321296377,1,0,0,0.2348,submitButton,0.2166667,-0.399074157,0,0,0,1,8,68,51,1,67,69571,2,180,2022-02-11_12h15.29.852,orientation adjustment 2,2021.2.3,Win32,60.33546519,,,,,,,
,,,,,,,,,,,,,,,,,,,,,,-64.44444444,-32,20,75,-41.44444444,9.444444444,3.777777778,-125.7777778,0.224074107,-0.307407488,1,0,0,0.2133,submitButton,-0.009259177,-0.387963046,0,0,0,1,9,69,16,1,32,69571,2,180,2022-02-11_12h15.29.852,orientation adjustment 2,2021.2.3,Win32,60.33546519,,,,,,,
,,,,,,,,,,,,,,,,,,,,,,-56.11111111,52,20,75,-132.1111111,4.111111111,1.644444444,-39.64444444,0.387037075,-0.302777802,1,0,0,2.3802,submitButton,0.247222256,-0.392592619,0,0,0,1,10,70,36,1,52,69571,2,180,2022-02-11_12h15.29.852,orientation adjustment 2,2021.2.3,Win32,60.33546519,,,,,,,
,,,,,,,,,,,,,,,,,,,,,,-59.44444444,27,20,75,-159.4444444,6.444444444,2.577777778,-65.57777778,0.447222262,-0.26574082,1,0,0,1.8341,submitButton,-0.211111091,-0.377777804,0,0,0,1,11,71,11,1,27,69571,2,180,2022-02-11_12h15.29.852,orientation adjustment 2,2021.2.3,Win32,60.33546519,,,,,,,
,,,,,,,,,,,,,,,,,,,,,,64.44444444,-44,20,75,-39.55555556,4.444444444,1.777777778,-132.2222222,0.393518557,-0.302777802,1,0,0,3.7373,submitButton,-0.201851831,-0.387963046,0,0,0,1,12,72,28,1,44,69571,2,180,2022-02-11_12h15.29.852,orientation adjustment 2,2021.2.3,Win32,60.33546519,,,,,,,
,,,,,,,,,,,,,,,,,,,,,,-21.66666667,38,20,75,45.33333333,7.333333333,2.933333333,-49.06666667,0.15925929,-0.297222246,1,0,0,2.3668,submitButton,-0.324074057,-0.400000027,0,0,0,1,13,73,22,1,38,69571,2,180,2022-02-11_12h15.29.852,orientation adjustment 2,2021.2.3,Win32,60.33546519,,,,,,,
,,,,,,,,,,,,,,,,,,,,,,-33.33333333,-39,20,75,-37.33333333,1.666666667,0.666666667,-128.3333333,0.191666699,-0.317592617,1,0,0,0.9869,submitButton,0.44537041,-0.386111138,1,0,0,1,14,74,23,1,39,69571,2,180,2022-02-11_12h15.29.852,orientation adjustment 2,2021.2.3,Win32,60.33546519,pause_continueButton,,,,,,
,,,,,,,,,,,,,,,,,,,,,,37.22222222,43,20,75,41.22222222,1.777777778,0.711111111,-47.71111111,0.377777816,-0.296296377,1,0,0,0.53,submitButton,0.28518522,-0.295370394,0,0,0,1,15,75,27,1,43,69571,2,180,2022-02-11_12h15.29.852,orientation adjustment 2,2021.2.3,Win32,60.33546519,,,,,,,
,,,,,,,,,,,,,,,,,,,,,,-66.66666667,-19,20,75,-31.66666667,12.66666667,5.066666667,-114.0666667,-0.154629608,-0.400000027,1,0,0,1.5842,submitButton,0.184259291,-0.22314817,0,0,0,1,16,76,3,1,19,69571,2,180,2022-02-11_12h15.29.852,orientation adjustment 2,2021.2.3,Win32,60.33546519,,,,,,,
,,,,,,,,,,,,,,,,,,,,,,-47.77777778,65,20,75,-106.7777778,8.222222222,3.288888889,-28.28888889,-0.169444423,-0.375925952,1,0,0,2.8843,submitButton,0.250000034,-0.26574082,0,0,0,1,17,77,49,1,65,69571,2,180,2022-02-11_12h15.29.852,orientation adjustment 2,2021.2.3,Win32,60.33546519,,,,,,,
,,,,,,,,,,,,,,,,,,,,,,41.11111111,-70,20,75,-58.88888889,11.11111111,4.444444444,-155.5555556,0.431481521,-0.29166669,1,0,0,0.2803,submitButton,0.296296332,-0.499074104,0,0,0,1,18,78,54,1,70,69571,2,180,2022-02-11_12h15.29.852,orientation adjustment 2,2021.2.3,Win32,60.33546519,,,,,,,
,,,,,,,,,,,,,,,,,,,,,,-62.77777778,-45,20,75,-60.77777778,15.77777778,10.25555556,-145.2555556,0.249074108,-0.272222245,1,0,0,0.5166,submitButton,0.170370402,-0.232407486,0,0,0,1,19,79,29,1,45,69571,2,180,2022-02-11_12h15.29.852,orientation adjustment 2,2021.2.3,Win32,60.33546519,,,,,,,
,,,,,,,,,,,,,,,,,,,,,,-60.55555556,55,20,75,59.44444444,4.444444444,1.777777778,-33.22222222,0.213888922,-0.28703706,1,0,0,0.167,submitButton,0.245370404,-0.329629711,0,0,0,1,20,80,39,1,55,69571,2,180,2022-02-11_12h15.29.852,orientation adjustment 2,2021.2.3,Win32,60.33546519,,,,,,,
,,,,,,,,,,,,,,,,,,,,,,-36.66666667,-58,20,75,-59.66666667,1.666666667,0.666666667,-148.6666667,0.226851885,-0.312037061,1,0,0,0.017,submitButton,0.249074108,-0.387037063,0,0,0,1,21,81,42,1,58,69571,2,180,2022-02-11_12h15.29.852,orientation adjustment 2,2021.2.3,Win32,60.33546519,,,,,,,
,,,,,,,,,,,,,,,,,,,,,,37.22222222,-47,20,75,-36.77777778,10.22222222,4.088888889,-132.9111111,0.397222261,-0.277777801,1,0,0,0.2683,submitButton,0.142592623,-0.403703731,0,0,0,1,22,82,31,1,47,69571,2,180,2022-02-11_12h15.29.852,orientation adjustment 2,2021.2.3,Win32,60.33546519,,,,,,,
,,,,,,,,,,,,,,,,,,,,,,57.22222222,-60,20,75,-57.77777778,2.222222222,0.888888889,-149.1111111,0.379629667,-0.313888913,1,0,0,1.1463,submitButton,0.214814848,-0.430555583,0,0,0,1,23,83,44,1,60,69571,2,180,2022-02-11_12h15.29.852,orientation adjustment 2,2021.2.3,Win32,60.33546519,,,,,,,
,,,,,,,,,,,,,,,,,,,,,,32.22222222,21,20,75,30.22222222,9.222222222,3.688888889,-65.31111111,0.438888928,-0.313888913,1,0,0,0.2196,submitButton,0.225925959,-0.407407491,0,0,0,1,24,84,5,1,21,69571,2,180,2022-02-11_12h15.29.852,orientation adjustment 2,2021.2.3,Win32,60.33546519,,,,,,,
,,,,,,,,,,,,,,,,,,,,,,37.77777778,-28,20,75,-23.22222222,4.777777778,1.911111111,-116.0888889,0.41111115,-0.261111134,0,0,1,0.7488,submitButton,0.176851884,-0.284259283,0,0,0,1,25,85,12,1,28,69571,2,180,2022-02-11_12h15.29.852,orientation adjustment 2,2021.2.3,Win32,60.33546519,,,,,,,
,,,,,,,,,,,,,,,,,,,,,,52.22222222,-36,20,75,-37.77777778,1.777777778,0.711111111,-126.7111111,0.405555594,-0.254629709,0,0,1,1.0632,submitButton,0.16851855,-0.415740825,0,0,0,1,26,86,20,1,36,69571,2,180,2022-02-11_12h15.29.852,orientation adjustment 2,2021.2.3,Win32,60.33546519,,,,,,,
,,,,,,,,,,,,,,,,,,,,,,63.33333333,-69,20,75,-66.66666667,2.333333333,0.933333333,-158.0666667,0.387963001,-0.300000024,1,0,0,1.4509,submitButton,0.206481514,-0.276851932,0,0,0,1,27,87,53,1,69,69571,2,180,2022-02-11_12h15.29.852,orientation adjustment 2,2021.2.3,Win32,60.33546519,,,,,,,
,,,,,,,,,,,,,,,,,,,,,,-38.88888889,40,20,75,53.11111111,13.11111111,5.244444444,-44.75555556,0.212962996,-0.264814838,1,0,0,0.9134,submitButton,0.077777807,-0.362037063,0,0,0,1,28,88,24,1,40,69571,2,180,2022-02-11_12h15.29.852,orientation adjustment 2,2021.2.3,Win32,60.33546519,,,,,,,
,,,,,,,,,,,,,,,,,,,,,,60,46,20,75,220,6,2.4,-41.6,0.392592631,-0.271296376,1,0,0,3.1465,submitButton,0.485185226,-0.410185269,1,0,0,1,29,89,30,1,46,69571,2,180,2022-02-11_12h15.29.852,orientation adjustment 2,2021.2.3,Win32,60.33546519,pause_continueButton,,,,,,
,,,,,,,,,,,,,,,,,,,,,,-49.44444444,-75,20,75,-257.4444444,2.444444444,0.977777778,-165.9777778,0.382407445,-0.280555579,1,0,0,0.4468,submitButton,0.05648151,-0.275925949,0,0,0,1,30,90,59,1,75,69571,2,180,2022-02-11_12h15.29.852,orientation adjustment 2,2021.2.3,Win32,60.33546519,,,,,,,
,,,,,,,,,,,,,,,,,,,,,,64.44444444,-33,20,75,-35.55555556,2.555555556,1.022222222,-124.0222222,0.410185224,-0.297222246,1,0,0,0.0469,submitButton,0.181481513,-0.33981484,0,0,0,1,31,91,17,1,33,69571,2,180,2022-02-11_12h15.29.852,orientation adjustment 2,2021.2.3,Win32,60.33546519,,,,,,,
,,,,,,,,,,,,,,,,,,,,,,-64.44444444,-63,20,75,-239.4444444,3.555555556,1.422222222,-154.4222222,0.419444483,-0.269444467,1,0,0,2.7008,submitButton,0.147222253,-0.287963043,0,0,0,1,32,92,47,1,63,69571,2,180,2022-02-11_12h15.29.852,orientation adjustment 2,2021.2.3,Win32,60.33546519,,,,,,,
,,,,,,,,,,,,,,,,,,,,,,60.55555556,59,20,75,150.5555556,88.44444444,70.75555556,39.75555556,0.215740774,-0.282407487,1,0,0,6.1998,submitButton,0.57129634,-0.108333351,0,0,0,1,33,93,43,1,59,69571,2,180,2022-02-11_12h15.29.852,orientation adjustment 2,2021.2.3,Win32,60.33546519,,,,,,,
,,,,,,,,,,,,,,,,,,,,,,53.88888889,25,20,75,34.88888889,9.888888889,3.955555556,-61.04444444,0.435185225,-0.290740821,1,0,0,0.0675,submitButton,0.334259296,-0.267592615,0,0,0,1,34,94,9,1,25,69571,2,180,2022-02-11_12h15.29.852,orientation adjustment 2,2021.2.3,Win32,60.33546519,,,,,,,
,,,,,,,,,,,,,,,,,,,,,,73.33333333,-17,20,75,-29.66666667,12.66666667,5.066666667,-112.0666667,0.425000039,-0.289814838,1,0,0,1.4507,submitButton,0.112037067,-0.329629711,0,0,0,1,35,95,1,1,17,69571,2,180,2022-02-11_12h15.29.852,orientation adjustment 2,2021.2.3,Win32,60.33546519,,,,,,,
,,,,,,,,,,,,,,,,,,,,,,63.88888889,35,20,75,226.8888889,11.88888889,4.755555556,-50.24444444,0.2166667,-0.295370394,1,0,0,2.1837,submitButton,-0.008333307,-0.312037061,0,0,0,1,36,96,19,1,35,69571,2,180,2022-02-11_12h15.29.852,orientation adjustment 2,2021.2.3,Win32,60.33546519,,,,,,,
,,,,,,,,,,,,,,,,,,,,,,51.66666667,-26,20,75,-28.33333333,2.333333333,0.933333333,-116.9333333,-0.128703625,-0.39629638,1,0,0,1.5799,submitButton,0.12500003,-0.387963046,0,0,0,1,37,97,10,1,26,69571,2,180,2022-02-11_12h15.29.852,orientation adjustment 2,2021.2.3,Win32,60.33546519,,,,,,,
,,,,,,,,,,,,,,,,,,,,,,40.55555556,37,20,75,42.55555556,5.555555556,2.222222222,-50.77777778,0.379629667,-0.310185266,1,0,0,1.947,submitButton,0.100000029,-0.414814842,0,0,0,1,38,98,21,1,37,69571,2,180,2022-02-11_12h15.29.852,orientation adjustment 2,2021.2.3,Win32,60.33546519,,,,,,,
,,,,,,,,,,,,,,,,,,,,,,-53.88888889,-22,20,75,-30.88888889,8.888888889,3.555555556,-115.5555556,0.197222255,-0.324074155,1,0,0,1.0328,submitButton,-0.064814734,-0.312963044,0,0,0,1,39,99,6,1,22,69571,2,180,2022-02-11_12h15.29.852,orientation adjustment 2,2021.2.3,Win32,60.33546519,,,,,,,
,,,,,,,,,,,,,,,,,,,,,,28.33333333,30,20,75,35.33333333,5.333333333,2.133333333,-57.86666667,0.366666704,-0.276851932,1,0,0,0.1671,submitButton,0.150000031,-0.403703731,0,0,0,1,40,100,14,1,30,69571,2,180,2022-02-11_12h15.29.852,orientation adjustment 2,2021.2.3,Win32,60.33546519,,,,,,,
,,,,,,,,,,,,,,,,,,,,,,-53.33333333,54,20,75,49.66666667,4.333333333,1.733333333,-37.73333333,0.214814848,-0.286111135,1,0,0,0.7965,submitButton,0.252777812,-0.261111134,0,0,0,1,41,101,38,1,54,69571,2,180,2022-02-11_12h15.29.852,orientation adjustment 2,2021.2.3,Win32,60.33546519,,,,,,,
,,,,,,,,,,,,,,,,,,,,,,73.88888889,53,20,75,235.8888889,2.888888889,1.155555556,-35.84444444,0.194444477,-0.257407486,1,0,0,1.8633,submitButton,0.213888922,-0.367592618,0,0,0,1,42,102,37,1,53,69571,2,180,2022-02-11_12h15.29.852,orientation adjustment 2,2021.2.3,Win32,60.33546519,,,,,,,
,,,,,,,,,,,,,,,,,,,,,,28.88888889,50,20,75,55.88888889,5.888888889,2.355555556,-37.64444444,0.375000038,-0.297222246,1,0,0,0.1635,submitButton,0.186111143,-0.3435186,0,0,0,1,43,103,34,1,50,69571,2,180,2022-02-11_12h15.29.852,orientation adjustment 2,2021.2.3,Win32,60.33546519,,,,,,,
,,,,,,,,,,,,,,,,,,,,,,37.77777778,-16,20,75,-24.22222222,8.222222222,3.288888889,-109.2888889,0.307407443,-0.294444468,1,0,0,0.3668,submitButton,0.57870386,-0.419444472,1,0,0,1,44,104,0,1,16,69571,2,180,2022-02-11_12h15.29.852,orientation adjustment 2,2021.2.3,Win32,60.33546519,pause_continueButton,,,,,,
,,,,,,,,,,,,,,,,,,,,,,32.77777778,-64,20,75,-65.22222222,1.222222222,0.488888889,-154.4888889,-0.274074056,-0.401851935,1,0,0,1.1964,submitButton,0.41111115,-0.234259281,0,0,0,1,45,105,48,1,64,69571,2,180,2022-02-11_12h15.29.852,orientation adjustment 2,2021.2.3,Win32,60.33546519,,,,,,,
,,,,,,,,,,,,,,,,,,,,,,-32.77777778,73,20,75,74.22222222,1.222222222,0.488888889,-16.51111111,0.195370403,-0.30092595,1,0,0,0.6534,submitButton,0.150000031,-0.353703729,0,0,0,1,46,106,57,1,73,69571,2,180,2022-02-11_12h15.29.852,orientation adjustment 2,2021.2.3,Win32,60.33546519,,,,,,,
,,,,,,,,,,,,,,,,,,,,,,53.88888889,-49,20,75,-45.11111111,3.888888889,1.555555556,-137.4444444,-0.233333314,-0.403703731,1,0,0,1.4673,submitButton,0.178703736,-0.323148173,0,0,0,1,47,107,33,1,49,69571,2,180,2022-02-11_12h15.29.852,orientation adjustment 2,2021.2.3,Win32,60.33546519,,,,,,,
,,,,,,,,,,,,,,,,,,,,,,-37.77777778,74,20,75,79.22222222,5.222222222,2.088888889,-13.91111111,0.184259291,-0.290740821,1,0,0,1.2293,submitButton,0.238888922,-0.331481506,0,0,0,1,48,108,58,1,74,69571,2,180,2022-02-11_12h15.29.852,orientation adjustment 2,2021.2.3,Win32,60.33546519,,,,,,,
,,,,,,,,,,,,,,,,,,,,,,63.88888889,29,20,75,39.88888889,10.88888889,4.355555556,-56.64444444,0.414814854,-0.279629709,1,0,0,0.6635,submitButton,0.069444473,-0.38240749,0,0,0,1,49,109,13,1,29,69571,2,180,2022-02-11_12h15.29.852,orientation adjustment 2,2021.2.3,Win32,60.33546519,,,,,,,
,,,,,,,,,,,,,,,,,,,,,,51.11111111,61,20,75,62.11111111,1.111111111,0.444444444,-28.55555556,-0.177777757,-0.390740824,1,0,0,1.5001,submitButton,0.343518555,-0.241666689,0,0,0,1,50,110,45,1,61,69571,2,180,2022-02-11_12h15.29.852,orientation adjustment 2,2021.2.3,Win32,60.33546519,,,,,,,
,,,,,,,,,,,,,,,,,,,,,,-29.44444444,-66,20,75,-62.44444444,3.555555556,1.422222222,-154.5777778,0.183333365,-0.290740821,1,0,0,0.8334,submitButton,0.282407442,-0.284259283,0,0,0,1,51,111,50,1,66,69571,2,180,2022-02-11_12h15.29.852,orientation adjustment 2,2021.2.3,Win32,60.33546519,,,,,,,
,,,,,,,,,,,,,,,,,,,,,,-21.11111111,-51,20,75,-51.11111111,0.111111111,0.044444444,-141.0444444,0.388888927,-0.306481506,1,0,0,1.0325,submitButton,0.103703733,-0.328703728,0,0,0,1,52,112,35,1,51,69571,2,180,2022-02-11_12h15.29.852,orientation adjustment 2,2021.2.3,Win32,60.33546519,,,,,,,
,,,,,,,,,,,,,,,,,,,,,,55.55555556,31,20,75,39.55555556,8.555555556,3.422222222,-55.57777778,0.363888926,-0.285185265,1,0,0,0.5335,submitButton,0.087037066,-0.407407491,0,0,0,1,53,113,15,1,31,69571,2,180,2022-02-11_12h15.29.852,orientation adjustment 2,2021.2.3,Win32,60.33546519,,,,,,,
,,,,,,,,,,,,,,,,,,,,,,53.88888889,-24,20,75,-22.11111111,1.888888889,0.755555556,-113.2444444,0.387037075,-0.287963043,1,0,0,0.5012,submitButton,0.132407438,-0.251851931,0,0,0,1,54,114,8,1,24,69571,2,180,2022-02-11_12h15.29.852,orientation adjustment 2,2021.2.3,Win32,60.33546519,,,,,,,
,,,,,,,,,,,,,,,,,,,,,,48.88888889,20,20,75,19.88888889,0.111111111,0.044444444,-70.04444444,0.395370409,-0.296296377,1,0,0,0.4967,submitButton,0.13425929,-0.30462971,0,0,0,1,55,115,4,1,20,69571,2,180,2022-02-11_12h15.29.852,orientation adjustment 2,2021.2.3,Win32,60.33546519,,,,,,,
,,,,,,,,,,,,,,,,,,,,,,-60.55555556,23,20,75,15.44444444,7.555555556,3.022222222,-70.02222222,0.16851855,-0.310185266,1,0,0,0.0834,submitButton,0.180555587,-0.22314817,0,0,0,1,56,116,7,1,23,69571,2,180,2022-02-11_12h15.29.852,orientation adjustment 2,2021.2.3,Win32,60.33546519,,,,,,,
,,,,,,,,,,,,,,,,,,,,,,72.22222222,41,20,75,49.22222222,8.222222222,3.288888889,-45.71111111,0.393518557,-0.268518598,1,0,0,0.0351,submitButton,0.251851886,-0.364814841,0,0,0,1,57,117,25,1,41,69571,2,180,2022-02-11_12h15.29.852,orientation adjustment 2,2021.2.3,Win32,60.33546519,,,,,,,
,,,,,,,,,,,,,,,,,,,,,,30.55555556,-62,20,75,-62.44444444,0.444444444,0.177777778,-152.1777778,0.423148187,-0.280555579,1,0,0,0.1962,submitButton,-0.131481402,-0.298148172,0,0,0,1,58,118,46,1,62,69571,2,180,2022-02-11_12h15.29.852,orientation adjustment 2,2021.2.3,Win32,60.33546519,,,,,,,
,,,,,,,,,,,,,,,,,,,,,,61.66666667,34,20,75,47.66666667,13.66666667,5.466666667,-50.53333333,0.392592631,-0.245370393,1,0,0,1.55,submitButton,0.206481514,-0.39629638,1,0,0,1,59,119,18,1,34,69571,2,180,2022-02-11_12h15.29.852,orientation adjustment 2,2021.2.3,Win32,60.33546519,pause_continueButton,,,,,,
,,,,,,,,,,,,,,,,,,,,,,49.44444444,-57,20,75,-71.55555556,14.55555556,5.822222222,-152.8222222,0.394444483,-0.290740821,1,0,0,5.3498,submitButton,0.16851855,-0.300000024,0,0,0,2,0,120,41,1,57,69571,2,180,2022-02-11_12h15.29.852,orientation adjustment 2,2021.2.3,Win32,60.33546519,,,,,,,
,,,,,,,,,,,,,,,,,,,,,,-73.33333333,-64,20,75,-248.3333333,4.333333333,1.733333333,-155.7333333,0.377777816,-0.290740821,1,0,0,0.0174,submitButton,0.277777813,-0.275925949,0,0,0,2,1,121,48,1,64,69571,2,180,2022-02-11_12h15.29.852,orientation adjustment 2,2021.2.3,Win32,60.33546519,,,,,,,
,,,,,,,,,,,,,,,,,,,,,,-62.22222222,-63,20,75,-244.2222222,1.222222222,0.488888889,-153.4888889,0.37685189,-0.276851932,1,0,0,2.0669,submitButton,0.2416667,-0.279629709,0,0,0,2,2,122,47,1,63,69571,2,180,2022-02-11_12h15.29.852,orientation adjustment 2,2021.2.3,Win32,60.33546519,,,,,,,
,,,,,,,,,,,,,,,,,,,,,,-58.33333333,20,20,75,26.66666667,6.666666667,2.666666667,-67.33333333,0.17777781,-0.288888912,1,0,0,1.2802,submitButton,0.325925962,-0.258333356,0,0,0,2,3,123,4,1,20,69571,2,180,2022-02-11_12h15.29.852,orientation adjustment 2,2021.2.3,Win32,60.33546519,,,,,,,
,,,,,,,,,,,,,,,,,,,,,,72.77777778,-71,20,75,-55.22222222,15.77777778,10.25555556,-150.7444444,0.400925964,-0.307407488,1,0,0,1.5842,submitButton,0.178703736,-0.270370393,0,0,0,2,4,124,55,1,71,69571,2,180,2022-02-11_12h15.29.852,orientation adjustment 2,2021.2.3,Win32,60.33546519,,,,,,,
,,,,,,,,,,,,,,,,,,,,,,70,19,20,75,51,32,25.6,-45.4,0.430555595,-0.26574082,1,0,0,0.2344,submitButton,0.133333364,-0.312037061,0,0,0,2,5,125,3,1,19,69571,2,180,2022-02-11_12h15.29.852,orientation adjustment 2,2021.2.3,Win32,60.33546519,,,,,,,
,,,,,,,,,,,,,,,,,,,,,,-31.11111111,-33,20,75,-36.11111111,3.111111111,1.244444444,-124.2444444,0.192592625,-0.28703706,1,0,0,0.7504,submitButton,0.266666701,-0.326851933,0,0,0,2,6,126,17,1,33,69571,2,180,2022-02-11_12h15.29.852,orientation adjustment 2,2021.2.3,Win32,60.33546519,,,,,,,
,,,,,,,,,,,,,,,,,,,,,,-61.66666667,59,20,75,-122.6666667,1.666666667,0.666666667,-31.66666667,0.413888928,-0.299074154,1,0,0,2.7335,submitButton,0.162037068,-0.267592615,0,0,0,2,7,127,43,1,59,69571,2,180,2022-02-11_12h15.29.852,orientation adjustment 2,2021.2.3,Win32,60.33546519,,,,,,,
,,,,,,,,,,,,,,,,,,,,,,-42.77777778,66,20,75,73.22222222,7.222222222,2.888888889,-21.11111111,0.215740774,-0.317592617,1,0,0,0.1003,submitButton,0.187962995,-0.338888914,0,0,0,2,8,128,50,1,66,69571,2,180,2022-02-11_12h15.29.852,orientation adjustment 2,2021.2.3,Win32,60.33546519,,,,,,,
,,,,,,,,,,,,,,,,,,,,,,41.11111111,60,20,75,64.11111111,4.111111111,1.644444444,-28.35555556,0.2166667,-0.28703706,1,0,0,1.1839,submitButton,0.099074104,-0.292592616,0,0,0,2,9,129,44,1,60,69571,2,180,2022-02-11_12h15.29.852,orientation adjustment 2,2021.2.3,Win32,60.33546519,,,,,,,
,,,,,,,,,,,,,,,,,,,,,,-43.88888889,55,20,75,42.11111111,12.88888889,5.155555556,-40.15555556,0.218518552,-0.303703728,1,0,0,0.1506,submitButton,0.220370403,-0.251851931,0,0,0,2,10,130,39,1,55,69571,2,180,2022-02-11_12h15.29.852,orientation adjustment 2,2021.2.3,Win32,60.33546519,,,,,,,
,,,,,,,,,,,,,,,,,,,,,,-54.44444444,72,20,75,69.55555556,2.444444444,0.977777778,-18.97777778,-0.167592515,-0.39629638,1,0,0,1.5636,submitButton,0.053703732,-0.318518599,0,0,0,2,11,131,56,1,72,69571,2,180,2022-02-11_12h15.29.852,orientation adjustment 2,2021.2.3,Win32,60.33546519,,,,,,,
,,,,,,,,,,,,,,,,,,,,,,30.55555556,-68,20,75,-69.44444444,1.444444444,0.577777778,-158.5777778,-0.13425918,-0.377777804,1,0,0,0.9169,submitButton,0.2416667,-0.242592615,0,0,0,2,12,132,52,1,68,69571,2,180,2022-02-11_12h15.29.852,orientation adjustment 2,2021.2.3,Win32,60.33546519,,,,,,,
,,,,,,,,,,,,,,,,,,,,,,67.22222222,38,20,75,217.2222222,0.777777778,0.311111111,-51.68888889,0.195370403,-0.322222247,1,0,0,1.0304,submitButton,0.130555586,-0.359259285,0,0,0,2,13,133,22,1,38,69571,2,180,2022-02-11_12h15.29.852,orientation adjustment 2,2021.2.3,Win32,60.33546519,,,,,,,
,,,,,,,,,,,,,,,,,,,,,,58.33333333,40,20,75,33.33333333,6.666666667,2.666666667,-52.66666667,0.424074113,-0.268518598,1,0,0,1.5467,submitButton,0.44537041,-0.372222248,1,0,0,2,14,134,24,1,40,69571,2,180,2022-02-11_12h15.29.852,orientation adjustment 2,2021.2.3,Win32,60.33546519,pause_continueButton,,,,,,
,,,,,,,,,,,,,,,,,,,,,,62.22222222,39,20,75,228.2222222,9.222222222,3.688888889,-47.31111111,-0.324074057,-0.41759262,1,0,0,2.6665,submitButton,0.398148187,-0.206481503,0,0,0,2,15,135,23,1,39,69571,2,180,2022-02-11_12h15.29.852,orientation adjustment 2,2021.2.3,Win32,60.33546519,,,,,,,
,,,,,,,,,,,,,,,,,,,,,,39.44444444,69,20,75,68.44444444,0.555555556,0.222222222,-21.22222222,0.394444483,-0.306481506,1,0,0,0.1498,submitButton,-0.215740721,-0.336111136,0,0,0,2,16,136,53,1,69,69571,2,180,2022-02-11_12h15.29.852,orientation adjustment 2,2021.2.3,Win32,60.33546519,,,,,,,
,,,,,,,,,,,,,,,,,,,,,,36.66666667,-73,20,75,-66.33333333,6.666666667,2.666666667,-160.3333333,0.431481521,-0.277777801,1,0,0,0.034,submitButton,-0.019444419,-0.326851933,0,0,0,2,17,137,57,1,73,69571,2,180,2022-02-11_12h15.29.852,orientation adjustment 2,2021.2.3,Win32,60.33546519,,,,,,,
,,,,,,,,,,,,,,,,,,,,,,-54.44444444,65,20,75,58.55555556,6.444444444,2.577777778,-27.57777778,0.234259293,-0.303703728,1,0,0,1.0458,submitButton,0.101851881,-0.206481503,0,0,0,2,18,138,49,1,65,69571,2,180,2022-02-11_12h15.29.852,orientation adjustment 2,2021.2.3,Win32,60.33546519,,,,,,,
,,,,,,,,,,,,,,,,,,,,,,-53.33333333,74,20,75,63.66666667,10.33333333,4.133333333,-20.13333333,0.2166667,-0.313888913,1,0,0,0.4671,submitButton,-0.016666641,-0.299074154,0,0,0,2,19,139,58,1,74,69571,2,180,2022-02-11_12h15.29.852,orientation adjustment 2,2021.2.3,Win32,60.33546519,,,,,,,
,,,,,,,,,,,,,,,,,,,,,,-34.44444444,-49,20,75,-49.44444444,0.444444444,0.177777778,-139.1777778,0.117592623,-0.294444468,1,0,0,0.2998,submitButton,0.137037068,-0.24814817,0,0,0,2,20,140,33,1,49,69571,2,180,2022-02-11_12h15.29.852,orientation adjustment 2,2021.2.3,Win32,60.33546519,,,,,,,
,,,,,,,,,,,,,,,,,,,,,,31.11111111,-29,20,75,-20.88888889,8.111111111,3.244444444,-115.7555556,0.409259298,-0.261111134,1,0,0,0.7129,submitButton,0.102777807,-0.164814835,0,0,0,2,21,141,13,1,29,69571,2,180,2022-02-11_12h15.29.852,orientation adjustment 2,2021.2.3,Win32,60.33546519,,,,,,,
,,,,,,,,,,,,,,,,,,,,,,-51.11111111,-43,20,75,-47.11111111,4.111111111,1.644444444,-134.6444444,0.20740744,-0.272222245,1,0,0,0.251,submitButton,0.143518549,-0.26203706,0,0,0,2,22,142,27,1,43,69571,2,180,2022-02-11_12h15.29.852,orientation adjustment 2,2021.2.3,Win32,60.33546519,,,,,,,
,,,,,,,,,,,,,,,,,,,,,,40,53,20,75,56,3,1.2,-35.8,0.412963002,-0.283333357,1,0,0,0.1372,submitButton,-0.011111085,-0.284259283,0,0,0,2,23,143,37,1,53,69571,2,180,2022-02-11_12h15.29.852,orientation adjustment 2,2021.2.3,Win32,60.33546519,,,,,,,
,,,,,,,,,,,,,,,,,,,,,,54.44444444,-75,20,75,-64.55555556,10.44444444,4.177777778,-160.8222222,-0.286111093,-0.390740824,1,0,0,1.1635,submitButton,-0.103703624,-0.354629712,0,0,0,2,24,144,59,1,75,69571,2,180,2022-02-11_12h15.29.852,orientation adjustment 2,2021.2.3,Win32,60.33546519,,,,,,,
,,,,,,,,,,,,,,,,,,,,,,45,-26,20,75,-16,10,4,-112,-0.215740721,-0.371296379,1,0,0,1.4336,submitButton,-0.093518495,-0.244444467,0,0,0,2,25,145,10,1,26,69571,2,180,2022-02-11_12h15.29.852,orientation adjustment 2,2021.2.3,Win32,60.33546519,,,,,,,
,,,,,,,,,,,,,,,,,,,,,,-73.33333333,-35,20,75,-222.3333333,7.333333333,2.933333333,-127.9333333,0.325000036,-0.258333356,1,0,0,0.5002,submitButton,-0.023148066,-0.17037039,0,0,0,2,26,146,19,1,35,69571,2,180,2022-02-11_12h15.29.852,orientation adjustment 2,2021.2.3,Win32,60.33546519,,,,,,,
,,,,,,,,,,,,,,,,,,,,,,-75,-25,20,75,-215,10,4,-119,0.391666705,-0.292592616,1,0,0,0.4829,submitButton,0.060185213,-0.326851933,0,0,0,2,27,147,9,1,25,69571,2,180,2022-02-11_12h15.29.852,orientation adjustment 2,2021.2.3,Win32,60.33546519,,,,,,,
,,,,,,,,,,,,,,,,,,,,,,25,-28,20,75,-24,4,1.6,-116.4,0.413888928,-0.30092595,1,0,0,0.1635,submitButton,-0.040740715,-0.312037061,0,0,0,2,28,148,12,1,28,69571,2,180,2022-02-11_12h15.29.852,orientation adjustment 2,2021.2.3,Win32,60.33546519,,,,,,,
,,,,,,,,,,,,,,,,,,,,,,-45,31,20,75,41,10,4,-55,-0.265740722,-0.406481508,1,0,0,1.0499,submitButton,0.32870374,-0.405555583,1,0,0,2,29,149,15,1,31,69571,2,180,2022-02-11_12h15.29.852,orientation adjustment 2,2021.2.3,Win32,60.33546519,pause_continueButton,,,,,,
,,,,,,,,,,,,,,,,,,,,,,-55,30,20,75,33,3,1.2,-58.8,-0.2685185,-0.404629713,1,0,0,1.1168,submitButton,0.190740773,-0.287963043,0,0,0,2,30,150,14,1,30,69571,2,180,2022-02-11_12h15.29.852,orientation adjustment 2,2021.2.3,Win32,60.33546519,,,,,,,
,,,,,,,,,,,,,,,,,,,,,,-28.88888889,46,20,75,45.11111111,0.888888889,0.355555556,-44.35555556,0.197222255,-0.278703727,1,0,0,0.2804,submitButton,0.190740773,-0.242592615,0,0,0,2,31,151,30,1,46,69571,2,180,2022-02-11_12h15.29.852,orientation adjustment 2,2021.2.3,Win32,60.33546519,,,,,,,
,,,,,,,,,,,,,,,,,,,,,,-71.66666667,37,20,75,35.33333333,1.666666667,0.666666667,-53.66666667,0.176851884,-0.299074154,1,0,0,0.0507,submitButton,-0.007407381,-0.231481503,0,0,0,2,32,152,21,1,37,69571,2,180,2022-02-11_12h15.29.852,orientation adjustment 2,2021.2.3,Win32,60.33546519,,,,,,,
,,,,,,,,,,,,,,,,,,,,,,58.88888889,-67,20,75,-61.11111111,5.888888889,2.355555556,-154.6444444,-0.205555535,-0.425000028,1,0,0,1.2338,submitButton,0.190740773,-0.228703725,0,0,0,2,33,153,51,1,67,69571,2,180,2022-02-11_12h15.29.852,orientation adjustment 2,2021.2.3,Win32,60.33546519,,,,,,,
,,,,,,,,,,,,,,,,,,,,,,47.22222222,70,20,75,245.2222222,4.777777778,1.911111111,-18.08888889,-0.174999979,-0.406481508,1,0,0,2.5839,submitButton,-0.02129627,-0.278703727,0,0,0,2,34,154,54,1,70,69571,2,180,2022-02-11_12h15.29.852,orientation adjustment 2,2021.2.3,Win32,60.33546519,,,,,,,
,,,,,,,,,,,,,,,,,,,,,,31.11111111,-50,20,75,-57.88888889,7.888888889,3.155555556,-143.1555556,0.419444483,-0.273148171,1,0,0,0.9339,submitButton,-0.01759251,-0.225925948,0,0,0,2,35,155,34,1,50,69571,2,180,2022-02-11_12h15.29.852,orientation adjustment 2,2021.2.3,Win32,60.33546519,,,,,,,
,,,,,,,,,,,,,,,,,,,,,,-70.55555556,47,20,75,44.44444444,2.555555556,1.022222222,-44.02222222,0.17777781,-0.301851932,1,0,0,0.1518,submitButton,0.071296325,-0.334259284,0,0,0,2,36,156,31,1,47,69571,2,180,2022-02-11_12h15.29.852,orientation adjustment 2,2021.2.3,Win32,60.33546519,,,,,,,
,,,,,,,,,,,,,,,,,,,,,,36.11111111,-44,20,75,-35.88888889,8.111111111,3.244444444,-130.7555556,0.375000038,-0.293518599,1,0,0,0.6168,submitButton,0.087037066,-0.335185267,0,0,0,2,37,157,28,1,44,69571,2,180,2022-02-11_12h15.29.852,orientation adjustment 2,2021.2.3,Win32,60.33546519,,,,,,,
,,,,,,,,,,,,,,,,,,,,,,-52.77777778,-48,20,75,-232.7777778,4.777777778,1.911111111,-139.9111111,0.40185189,-0.269444467,1,0,0,0.4208,submitButton,-0.256481463,-0.387037063,0,0,0,2,38,158,32,1,48,69571,2,180,2022-02-11_12h15.29.852,orientation adjustment 2,2021.2.3,Win32,60.33546519,,,,,,,
,,,,,,,,,,,,,,,,,,,,,,-64.44444444,62,20,75,-116.4444444,1.555555556,0.622222222,-28.62222222,0.374074112,-0.296296377,1,0,0,1.8971,submitButton,-0.348148132,-0.402777805,0,0,0,2,39,159,46,1,62,69571,2,180,2022-02-11_12h15.29.852,orientation adjustment 2,2021.2.3,Win32,60.33546519,,,,,,,
,,,,,,,,,,,,,,,,,,,,,,28.33333333,45,20,75,45.33333333,0.333333333,0.133333333,-44.86666667,-0.170370292,-0.377777804,1,0,0,1.0016,submitButton,0.096296326,-0.229629708,0,0,0,2,40,160,29,1,45,69571,2,180,2022-02-11_12h15.29.852,orientation adjustment 2,2021.2.3,Win32,60.33546519,,,,,,,
,,,,,,,,,,,,,,,,,,,,,,-30,42,20,75,28,14,5.6,-53.6,0.214814848,-0.310185266,1,0,0,0.2801,submitButton,0.15925929,-0.228703725,0,0,0,2,41,161,26,1,42,69571,2,180,2022-02-11_12h15.29.852,orientation adjustment 2,2021.2.3,Win32,60.33546519,,,,,,,
,,,,,,,,,,,,,,,,,,,,,,-22.77777778,21,20,75,18.22222222,2.777777778,1.111111111,-70.11111111,0.222222255,-0.28703706,1,0,0,0.088,submitButton,-0.034259177,-0.232407486,0,0,0,2,42,162,5,1,21,69571,2,180,2022-02-11_12h15.29.852,orientation adjustment 2,2021.2.3,Win32,60.33546519,,,,,,,
,,,,,,,,,,,,,,,,,,,,,,-41.66666667,-36,20,75,-50.66666667,14.66666667,5.866666667,-131.8666667,0.236111145,-0.259259282,1,0,0,0.0836,submitButton,-0.256481463,-0.385185268,0,0,0,2,43,163,20,1,36,69571,2,180,2022-02-11_12h15.29.852,orientation adjustment 2,2021.2.3,Win32,60.33546519,,,,,,,
,,,,,,,,,,,,,,,,,,,,,,51.66666667,-41,20,75,-38.33333333,2.666666667,1.066666667,-129.9333333,0.421296335,-0.285185265,1,0,0,0.5963,submitButton,0.287037072,-0.411111138,1,0,0,2,44,164,25,1,41,69571,2,180,2022-02-11_12h15.29.852,orientation adjustment 2,2021.2.3,Win32,60.33546519,pause_continueButton,,,,,,
,,,,,,,,,,,,,,,,,,,,,,-47.77777778,56,20,75,45.22222222,10.77777778,4.311111111,-38.31111111,-0.204629609,-0.412037064,1,0,0,0.984,submitButton,0.161111142,-0.274074154,0,0,0,2,45,165,40,1,56,69571,2,180,2022-02-11_12h15.29.852,orientation adjustment 2,2021.2.3,Win32,60.33546519,,,,,,,
,,,,,,,,,,,,,,,,,,,,,,51.11111111,-52,20,75,-40.88888889,11.11111111,4.444444444,-137.5555556,0.382407445,-0.293518599,1,0,0,0.0664,submitButton,-0.168518497,-0.416666694,0,0,0,2,46,166,36,1,52,69571,2,180,2022-02-11_12h15.29.852,orientation adjustment 2,2021.2.3,Win32,60.33546519,,,,,,,
,,,,,,,,,,,,,,,,,,,,,,53.88888889,16,20,75,24.88888889,8.888888889,3.555555556,-70.44444444,-0.204629609,-0.400000027,1,0,0,1.834,submitButton,-0.204629609,-0.402777805,0,0,0,2,47,167,0,1,16,69571,2,180,2022-02-11_12h15.29.852,orientation adjustment 2,2021.2.3,Win32,60.33546519,,,,,,,
,,,,,,,,,,,,,,,,,,,,,,-29.44444444,-54,20,75,-53.44444444,0.555555556,0.222222222,-143.7777778,0.205555588,-0.312037061,1,0,0,0.8998,submitButton,-0.167592515,-0.386111138,0,0,0,2,48,168,38,1,54,69571,2,180,2022-02-11_12h15.29.852,orientation adjustment 2,2021.2.3,Win32,60.33546519,,,,,,,
,,,,,,,,,,,,,,,,,,,,,,33.33333333,22,20,75,20.33333333,1.666666667,0.666666667,-68.66666667,0.349074111,-0.301851932,1,0,0,0.6133,submitButton,-0.192592572,-0.413888916,0,0,0,2,49,169,6,1,22,69571,2,180,2022-02-11_12h15.29.852,orientation adjustment 2,2021.2.3,Win32,60.33546519,,,,,,,
,,,,,,,,,,,,,,,,,,,,,,37.22222222,34,20,75,31.22222222,2.777777778,1.111111111,-57.11111111,-0.15185183,-0.375925952,1,0,0,1.0332,submitButton,0.034259287,-0.292592616,0,0,0,2,50,170,18,1,34,69571,2,180,2022-02-11_12h15.29.852,orientation adjustment 2,2021.2.3,Win32,60.33546519,,,,,,,
,,,,,,,,,,,,,,,,,,,,,,46.66666667,-32,20,75,-34.33333333,2.333333333,0.933333333,-122.9333333,-0.203703683,-0.393518602,1,0,0,1.6337,submitButton,0.179629661,-0.323148173,0,0,0,2,51,171,16,1,32,69571,2,180,2022-02-11_12h15.29.852,orientation adjustment 2,2021.2.3,Win32,60.33546519,,,,,,,
,,,,,,,,,,,,,,,,,,,,,,36.11111111,24,20,75,24.11111111,0.111111111,0.044444444,-65.95555556,0.383333371,-0.284259283,1,0,0,0.7134,submitButton,-0.177777757,-0.401851935,0,0,0,2,52,172,8,1,24,69571,2,180,2022-02-11_12h15.29.852,orientation adjustment 2,2021.2.3,Win32,60.33546519,,,,,,,
,,,,,,,,,,,,,,,,,,,,,,47.77777778,18,20,75,23.77777778,5.777777778,2.311111111,-69.68888889,0.447222262,-0.273148171,1,0,0,0.5802,submitButton,0.28055559,-0.432407492,0,0,0,2,53,173,2,1,18,69571,2,180,2022-02-11_12h15.29.852,orientation adjustment 2,2021.2.3,Win32,60.33546519,,,,,,,
,,,,,,,,,,,,,,,,,,,,,,43.88888889,-58,20,75,-57.11111111,0.888888889,0.355555556,-147.6444444,0.412963002,-0.328703728,1,0,0,0.0466,submitButton,0.026851936,-0.395370397,0,0,0,2,54,174,42,1,58,69571,2,180,2022-02-11_12h15.29.852,orientation adjustment 2,2021.2.3,Win32,60.33546519,,,,,,,
,,,,,,,,,,,,,,,,,,,,,,-70.55555556,51,20,75,50.44444444,0.555555556,0.222222222,-39.22222222,-0.239814795,-0.434259287,1,0,0,1.7669,submitButton,-0.306481464,-0.430555583,0,0,0,2,55,175,35,1,51,69571,2,180,2022-02-11_12h15.29.852,orientation adjustment 2,2021.2.3,Win32,60.33546519,,,,,,,
,,,,,,,,,,,,,,,,,,,,,,-58.33333333,17,20,75,40.66666667,23.66666667,15.38333333,-57.61666667,0.20277781,-0.275000023,1,0,0,0.6829,submitButton,0.126851882,-0.310185266,0,0,0,2,56,176,1,1,17,69571,2,180,2022-02-11_12h15.29.852,orientation adjustment 2,2021.2.3,Win32,60.33546519,,,,,,,
,,,,,,,,,,,,,,,,,,,,,,-70,-27,20,75,-217,10,4,-121,0.412963002,-0.287963043,1,0,0,2.25,submitButton,0.062962991,-0.267592615,0,0,0,2,57,177,11,1,27,69571,2,180,2022-02-11_12h15.29.852,orientation adjustment 2,2021.2.3,Win32,60.33546519,,,,,,,
,,,,,,,,,,,,,,,,,,,,,,-74.44444444,-61,20,75,-238.4444444,2.555555556,1.022222222,-152.0222222,0.365740778,-0.270370393,1,0,0,1.9007,submitButton,-0.201851831,-0.423148176,0,0,0,2,58,178,45,1,61,69571,2,180,2022-02-11_12h15.29.852,orientation adjustment 2,2021.2.3,Win32,60.33546519,,,,,,,
,,,,,,,,,,,,,,,,,,,,,,-39.44444444,23,20,75,28.55555556,5.555555556,2.222222222,-64.77777778,0.224074107,-0.307407488,1,0,0,0.9799,submitButton,0.169444476,-0.142592612,0,0,0,2,59,179,7,1,23,69571,2,180,2022-02-11_12h15.29.852,orientation adjustment 2,2021.2.3,Win32,60.33546519,,,,,,,
,,,,,,,,,,,,,,,,,,,,,,,,,,,,,,,,,,,,,,,,,,,,,,,,69571,2,180,2022-02-11_12h15.29.852,orientation adjustment 2,2021.2.3,Win32,60.33546519,,0.366666704,-0.416666694,1,0,0,EndButtonTxt
