consentMouse1.x,consentMouse1.y,consentMouse1.leftButton,consentMouse1.midButton,consentMouse1.rightButton,consentMouse1.clicked_name,consent_Mouse.x,consent_Mouse.y,consent_Mouse.leftButton,consent_Mouse.midButton,consent_Mouse.rightButton,consent_Mouse.clicked_name,startMouse.x,startMouse.y,startMouse.leftButton,startMouse.midButton,startMouse.rightButton,startMouse_2.x,startMouse_2.y,startMouse_2.leftButton,startMouse_2.midButton,startMouse_2.rightButton,start_distance,fixedOri,minimalDistance,maxOri,this_ori,accuracy,presented_accuracy,presented_this_ori,submitMouse.x,submitMouse.y,submitMouse.leftButton,submitMouse.midButton,submitMouse.rightButton,submitMouse.time,submitMouse.clicked_name,pauseMouse.x,pauseMouse.y,pauseMouse.leftButton,pauseMouse.midButton,pauseMouse.rightButton,trials.thisRepN,trials.thisTrialN,trials.thisN,trials.thisIndex,trials.ran,startOri,participant,condition,nTrials,date,expName,psychopyVersion,OS,frameRate,pauseMouse.clicked_name,EndButtonMouse.x,EndButtonMouse.y,EndButtonMouse.leftButton,EndButtonMouse.midButton,EndButtonMouse.rightButton,EndButtonMouse.clicked_name
0.338559028,-0.397460938,1,0,0,consent_button1,0.374014757,-0.400434028,1,0,0,consent_button,0.224053819,-0.259431424,1,0,0,0.179162326,-0.35796875,1,0,0,-42.77777778,-68,20,75,-227.7777778,20.22222222,13.14444444,-171.1444444,0.391358507,-0.291697049,1,0,0,2.9496,submitButton,-0.044934896,-0.23766059,0,0,0,0,0,0,52,1,68,69661,2,180,2022-02-14_02h18.20.953,orientation adjustment 2,2021.2.3,MacIntel,59.99880002,,,,,,,
,,,,,,,,,,,,,,,,,,,,,,63.88888889,-34,20,75,-32.11111111,1.888888889,0.755555556,-123.2444444,-0.123871528,-0.389713542,1,0,0,1.6341,submitButton,0.406028646,-0.232152778,0,0,0,0,1,1,18,1,34,69661,2,180,2022-02-14_02h18.20.953,orientation adjustment 2,2021.2.3,MacIntel,59.99880002,,,,,,,
,,,,,,,,,,,,,,,,,,,,,,-33.33333333,-37,20,75,-214.3333333,2.666666667,1.066666667,-128.0666667,-0.134722222,-0.40312066,1,0,0,2.3161,submitButton,0.424674479,-0.264283854,0,0,0,0,2,2,21,1,37,69661,2,180,2022-02-14_02h18.20.953,orientation adjustment 2,2021.2.3,MacIntel,59.99880002,,,,,,,
,,,,,,,,,,,,,,,,,,,,,,37.22222222,-50,20,75,-25.77777778,24.22222222,15.74444444,-124.2555556,0.206671007,-0.306380208,1,0,0,0.7171,submitButton,0.384236111,-0.278493924,0,0,0,0,3,3,34,1,50,69661,2,180,2022-02-14_02h18.20.953,orientation adjustment 2,2021.2.3,MacIntel,59.99880002,,,,,,,
,,,,,,,,,,,,,,,,,,,,,,33.88888889,-45,20,75,-35.11111111,9.888888889,3.955555556,-131.0444444,-0.259852431,-0.402934028,1,0,0,1.0004,submitButton,0.352226563,-0.338407118,0,0,0,0,4,4,29,1,45,69661,2,180,2022-02-14_02h18.20.953,orientation adjustment 2,2021.2.3,MacIntel,59.99880002,,,,,,,
,,,,,,,,,,,,,,,,,,,,,,71.66666667,40,20,75,206.6666667,13.33333333,5.333333333,-44.66666667,-0.177851563,-0.408936632,1,0,0,1.917,submitButton,0.231072049,-0.268051215,0,0,0,0,5,5,24,1,40,69661,2,180,2022-02-14_02h18.20.953,orientation adjustment 2,2021.2.3,MacIntel,59.99880002,,,,,,,
,,,,,,,,,,,,,,,,,,,,,,43.88888889,-59,20,75,-49.11111111,9.888888889,3.955555556,-145.0444444,-0.195998264,-0.396163194,1,0,0,0.7323,submitButton,0.211150174,-0.271419271,0,0,0,0,6,6,43,1,59,69661,2,180,2022-02-14_02h18.20.953,orientation adjustment 2,2021.2.3,MacIntel,59.99880002,,,,,,,
,,,,,,,,,,,,,,,,,,,,,,-28.88888889,21,20,75,21.11111111,0.111111111,0.044444444,-68.95555556,-0.156215278,-0.409900174,1,0,0,0.884,submitButton,0.154665799,-0.242296007,0,0,0,0,7,7,5,1,21,69661,2,180,2022-02-14_02h18.20.953,orientation adjustment 2,2021.2.3,MacIntel,59.99880002,,,,,,,
,,,,,,,,,,,,,,,,,,,,,,-26.11111111,39,20,75,36.88888889,2.111111111,0.844444444,-51.84444444,-0.12968316,-0.399539931,1,0,0,0.6342,submitButton,0.146032986,-0.291666667,0,0,0,0,8,8,23,1,39,69661,2,180,2022-02-14_02h18.20.953,orientation adjustment 2,2021.2.3,MacIntel,59.99880002,,,,,,,
,,,,,,,,,,,,,,,,,,,,,,20.55555556,26,20,75,37.55555556,11.55555556,4.622222222,-59.37777778,0.392052951,-0.304578993,1,0,0,0.2688,submitButton,0.166736111,-0.297404514,0,0,0,0,9,9,10,1,26,69661,2,180,2022-02-14_02h18.20.953,orientation adjustment 2,2021.2.3,MacIntel,59.99880002,,,,,,,
,,,,,,,,,,,,,,,,,,,,,,-52.22222222,-53,20,75,-232.2222222,0.777777778,0.311111111,-143.3111111,0.410768229,-0.317625868,1,0,0,2.6174,submitButton,0.115720486,-0.296467014,0,0,0,0,10,10,37,1,53,69661,2,180,2022-02-14_02h18.20.953,orientation adjustment 2,2021.2.3,MacIntel,59.99880002,,,,,,,
,,,,,,,,,,,,,,,,,,,,,,41.11111111,51,20,75,237.1111111,6.111111111,2.444444444,-36.55555556,0.197517361,-0.287070312,1,0,0,2.5002,submitButton,0.198498264,-0.253111979,0,0,0,0,11,11,35,1,51,69661,2,180,2022-02-14_02h18.20.953,orientation adjustment 2,2021.2.3,MacIntel,59.99880002,,,,,,,
,,,,,,,,,,,,,,,,,,,,,,43.33333333,19,20,75,34.33333333,15.33333333,9.966666667,-61.03333333,-0.118372396,-0.403198785,1,0,0,1.5323,submitButton,0.163980035,-0.287144097,0,0,0,0,12,12,3,1,19,69661,2,180,2022-02-14_02h18.20.953,orientation adjustment 2,2021.2.3,MacIntel,59.99880002,,,,,,,
,,,,,,,,,,,,,,,,,,,,,,73.33333333,-36,20,75,-38.66666667,2.666666667,1.066666667,-127.0666667,0.395985243,-0.29140191,1,0,0,1.0999,submitButton,0.307773438,-0.23125,0,0,0,0,13,13,20,1,36,69661,2,180,2022-02-14_02h18.20.953,orientation adjustment 2,2021.2.3,MacIntel,59.99880002,,,,,,,
,,,,,,,,,,,,,,,,,,,,,,60.55555556,23,20,75,21.55555556,1.444444444,0.577777778,-67.57777778,0.424353299,-0.287686632,1,0,0,0.4489,submitButton,0.225924479,-0.40062934,1,0,0,0,14,14,7,1,23,69661,2,180,2022-02-14_02h18.20.953,orientation adjustment 2,2021.2.3,MacIntel,59.99880002,pause_continueButton,,,,,,
,,,,,,,,,,,,,,,,,,,,,,33.33333333,-42,20,75,-33.66666667,8.333333333,3.333333333,-128.6666667,0.22343316,-0.311197917,1,0,0,1.3324,submitButton,0.06421875,-0.29187934,0,0,0,0,15,15,26,1,42,69661,2,180,2022-02-14_02h18.20.953,orientation adjustment 2,2021.2.3,MacIntel,59.99880002,,,,,,,
,,,,,,,,,,,,,,,,,,,,,,-25.55555556,17,20,75,24.44444444,7.444444444,2.977777778,-70.02222222,0.217799479,-0.284878472,1,0,0,0.3506,submitButton,0.245798611,-0.27797309,0,0,0,0,16,16,1,1,17,69661,2,180,2022-02-14_02h18.20.953,orientation adjustment 2,2021.2.3,MacIntel,59.99880002,,,,,,,
,,,,,,,,,,,,,,,,,,,,,,39.44444444,-67,20,75,-56.55555556,10.44444444,4.177777778,-152.8222222,-0.196497396,-0.406927083,1,0,0,1.1332,submitButton,0.21530816,-0.261102431,0,0,0,0,17,17,51,1,67,69661,2,180,2022-02-14_02h18.20.953,orientation adjustment 2,2021.2.3,MacIntel,59.99880002,,,,,,,
,,,,,,,,,,,,,,,,,,,,,,-75,44,20,75,36,8,3.2,-49.2,0.207921007,-0.289192708,1,0,0,0.9172,submitButton,0.145195313,-0.256931424,0,0,0,0,18,18,28,1,44,69661,2,180,2022-02-14_02h18.20.953,orientation adjustment 2,2021.2.3,MacIntel,59.99880002,,,,,,,
,,,,,,,,,,,,,,,,,,,,,,-42.77777778,-29,20,75,-30.77777778,1.777777778,0.711111111,-119.7111111,0.240685764,-0.295117187,1,0,0,0.4507,submitButton,0.220030382,-0.288402778,0,0,0,0,19,19,13,1,29,69661,2,180,2022-02-14_02h18.20.953,orientation adjustment 2,2021.2.3,MacIntel,59.99880002,,,,,,,
,,,,,,,,,,,,,,,,,,,,,,25,33,20,75,31,2,0.8,-57.8,0.389865451,-0.307018229,1,0,0,0.0326,submitButton,0.079448785,-0.235199653,0,0,0,0,20,20,17,1,33,69661,2,180,2022-02-14_02h18.20.953,orientation adjustment 2,2021.2.3,MacIntel,59.99880002,,,,,,,
,,,,,,,,,,,,,,,,,,,,,,60.55555556,56,20,75,54.55555556,1.444444444,0.577777778,-34.57777778,0.385885417,-0.314344618,1,0,0,0.05,submitButton,0.113216146,-0.318763021,0,0,0,0,21,21,40,1,56,69661,2,180,2022-02-14_02h18.20.953,orientation adjustment 2,2021.2.3,MacIntel,59.99880002,,,,,,,
,,,,,,,,,,,,,,,,,,,,,,-30,70,20,75,71,1,0.4,-19.6,-0.141597222,-0.330881076,1,0,0,1.2679,submitButton,-0.007569444,-0.291280382,0,0,0,0,22,22,54,1,70,69661,2,180,2022-02-14_02h18.20.953,orientation adjustment 2,2021.2.3,MacIntel,59.99880002,,,,,,,
,,,,,,,,,,,,,,,,,,,,,,-20.55555556,75,20,75,77.44444444,2.444444444,0.977777778,-14.02222222,0.240850694,-0.280021701,1,0,0,0.0673,submitButton,0.044960937,-0.248489583,0,0,0,0,23,23,59,1,75,69661,2,180,2022-02-14_02h18.20.953,orientation adjustment 2,2021.2.3,MacIntel,59.99880002,,,,,,,
,,,,,,,,,,,,,,,,,,,,,,-28.33333333,-31,20,75,-32.33333333,1.333333333,0.533333333,-121.5333333,0.229127604,-0.294557292,1,0,0,0.1003,submitButton,0.021223958,-0.308242187,0,0,0,0,24,24,15,1,31,69661,2,180,2022-02-14_02h18.20.953,orientation adjustment 2,2021.2.3,MacIntel,59.99880002,,,,,,,
,,,,,,,,,,,,,,,,,,,,,,70.55555556,-64,20,75,-42.44444444,21.55555556,14.01111111,-139.9888889,-0.199427083,-0.395846354,1,0,0,1.4166,submitButton,0.005251736,-0.330043403,0,0,0,0,25,25,48,1,64,69661,2,180,2022-02-14_02h18.20.953,orientation adjustment 2,2021.2.3,MacIntel,59.99880002,,,,,,,
,,,,,,,,,,,,,,,,,,,,,,44.44444444,71,20,75,253.4444444,2.444444444,0.977777778,-18.02222222,0.213489583,-0.282226563,1,0,0,2.2166,submitButton,0.162252604,-0.239262153,0,0,0,0,26,26,55,1,71,69661,2,180,2022-02-14_02h18.20.953,orientation adjustment 2,2021.2.3,MacIntel,59.99880002,,,,,,,
,,,,,,,,,,,,,,,,,,,,,,-46.11111111,66,20,75,59.88888889,6.111111111,2.444444444,-26.44444444,-0.141549479,-0.402052951,1,0,0,1.3508,submitButton,0.011475694,-0.324331597,0,0,0,0,27,27,50,1,66,69661,2,180,2022-02-14_02h18.20.953,orientation adjustment 2,2021.2.3,MacIntel,59.99880002,,,,,,,
,,,,,,,,,,,,,,,,,,,,,,36.11111111,-48,20,75,-43.88888889,4.111111111,1.644444444,-136.3555556,-0.16358941,-0.421223958,1,0,0,0.9488,submitButton,-0.00312934,-0.282009549,0,0,0,0,28,28,32,1,48,69661,2,180,2022-02-14_02h18.20.953,orientation adjustment 2,2021.2.3,MacIntel,59.99880002,,,,,,,
,,,,,,,,,,,,,,,,,,,,,,-25,25,20,75,30,5,2,-63,-0.138832465,-0.413376736,1,0,0,0.8998,submitButton,0.2153125,-0.401380208,1,0,0,0,29,29,9,1,25,69661,2,180,2022-02-14_02h18.20.953,orientation adjustment 2,2021.2.3,MacIntel,59.99880002,pause_continueButton,,,,,,
,,,,,,,,,,,,,,,,,,,,,,58.33333333,62,20,75,224.3333333,17.66666667,11.48333333,-16.51666667,0.232634549,-0.288797743,1,0,0,1.4668,submitButton,0.190368924,-0.287057292,0,0,0,0,30,30,46,1,62,69661,2,180,2022-02-14_02h18.20.953,orientation adjustment 2,2021.2.3,MacIntel,59.99880002,,,,,,,
,,,,,,,,,,,,,,,,,,,,,,-20,-57,20,75,-43,14,5.6,-141.4,-0.154787326,-0.424500868,1,0,0,0.9339,submitButton,0.069552951,-0.326050347,0,0,0,0,31,31,41,1,57,69661,2,180,2022-02-14_02h18.20.953,orientation adjustment 2,2021.2.3,MacIntel,59.99880002,,,,,,,
,,,,,,,,,,,,,,,,,,,,,,60,73,20,75,226,27,17.55,0.55,-0.125724826,-0.405559896,1,0,0,1.8184,submitButton,-0.034205729,0.5,0,0,0,0,32,32,57,1,73,69661,2,180,2022-02-14_02h18.20.953,orientation adjustment 2,2021.2.3,MacIntel,59.99880002,,,,,,,
,,,,,,,,,,,,,,,,,,,,,,-45.55555556,47,20,75,37.44444444,9.555555556,3.822222222,-46.82222222,-0.2040625,-0.423355035,1,0,0,0.9833,submitButton,-0.027491319,-0.284986979,0,0,0,0,33,33,31,1,47,69661,2,180,2022-02-14_02h18.20.953,orientation adjustment 2,2021.2.3,MacIntel,59.99880002,,,,,,,
,,,,,,,,,,,,,,,,,,,,,,28.88888889,16,20,75,22.88888889,6.888888889,2.755555556,-71.24444444,-0.151484375,-0.400694444,1,0,0,0.7665,submitButton,0.122100694,-0.256046007,0,0,0,0,34,34,0,1,16,69661,2,180,2022-02-14_02h18.20.953,orientation adjustment 2,2021.2.3,MacIntel,59.99880002,,,,,,,
,,,,,,,,,,,,,,,,,,,,,,-40,20,20,75,17,3,1.2,-71.2,0.434700521,-0.293111979,1,0,0,1.7,submitButton,0.215811632,-0.252825521,0,0,0,0,35,35,4,1,20,69661,2,180,2022-02-14_02h18.20.953,orientation adjustment 2,2021.2.3,MacIntel,59.99880002,,,,,,,
,,,,,,,,,,,,,,,,,,,,,,-50.55555556,-43,20,75,-209.5555556,13.44444444,5.377777778,-138.3777778,-0.166085069,-0.425368924,1,0,0,2.6012,submitButton,0.121458333,-0.285616319,0,0,0,0,36,36,27,1,43,69661,2,180,2022-02-14_02h18.20.953,orientation adjustment 2,2021.2.3,MacIntel,59.99880002,,,,,,,
,,,,,,,,,,,,,,,,,,,,,,65,-55,20,75,-61,6,2.4,-147.4,-0.141176215,-0.388563368,1,0,0,1.4008,submitButton,0.084748264,-0.260230035,0,0,0,0,37,37,39,1,55,69661,2,180,2022-02-14_02h18.20.953,orientation adjustment 2,2021.2.3,MacIntel,59.99880002,,,,,,,
,,,,,,,,,,,,,,,,,,,,,,64.44444444,-27,20,75,-33.55555556,6.555555556,2.622222222,-119.6222222,-0.151953125,-0.410828993,1,0,0,1.5492,submitButton,0.116436632,-0.228732639,0,0,0,0,38,38,11,1,27,69661,2,180,2022-02-14_02h18.20.953,orientation adjustment 2,2021.2.3,MacIntel,59.99880002,,,,,,,
,,,,,,,,,,,,,,,,,,,,,,40,58,20,75,225,13,5.2,-26.8,0.202105035,-0.277352431,1,0,0,1.8341,submitButton,-0.034153646,-0.359644097,0,0,0,0,39,39,42,1,58,69661,2,180,2022-02-14_02h18.20.953,orientation adjustment 2,2021.2.3,MacIntel,59.99880002,,,,,,,
,,,,,,,,,,,,,,,,,,,,,,52.77777778,63,20,75,227.7777778,15.22222222,9.894444444,-17.10555556,0.182999132,-0.31905816,1,0,0,1.8668,submitButton,0.171436632,-0.278220486,0,0,0,0,40,40,47,1,63,69661,2,180,2022-02-14_02h18.20.953,orientation adjustment 2,2021.2.3,MacIntel,59.99880002,,,,,,,
,,,,,,,,,,,,,,,,,,,,,,39.44444444,22,20,75,29.44444444,7.444444444,2.977777778,-65.02222222,-0.187291667,-0.382855903,1,0,0,0.7183,submitButton,0.169809028,-0.213697917,0,0,0,0,41,41,6,1,22,69661,2,180,2022-02-14_02h18.20.953,orientation adjustment 2,2021.2.3,MacIntel,59.99880002,,,,,,,
,,,,,,,,,,,,,,,,,,,,,,-40,61,20,75,55,6,2.4,-31.4,-0.125373264,-0.396631944,1,0,0,0.6158,submitButton,0.210954861,-0.278407118,0,0,0,0,42,42,45,1,61,69661,2,180,2022-02-14_02h18.20.953,orientation adjustment 2,2021.2.3,MacIntel,59.99880002,,,,,,,
,,,,,,,,,,,,,,,,,,,,,,71.11111111,52,20,75,236.1111111,4.111111111,1.644444444,-36.35555556,-0.133085938,-0.37766059,1,0,0,1.7673,submitButton,0.197395833,-0.280850694,0,0,0,0,43,43,36,1,52,69661,2,180,2022-02-14_02h18.20.953,orientation adjustment 2,2021.2.3,MacIntel,59.99880002,,,,,,,
,,,,,,,,,,,,,,,,,,,,,,41.11111111,-74,20,75,-58.88888889,15.11111111,9.822222222,-154.1777778,0.230750868,-0.2921875,1,0,0,0.9174,submitButton,0.264123264,-0.419830729,1,0,0,0,44,44,58,1,74,69661,2,180,2022-02-14_02h18.20.953,orientation adjustment 2,2021.2.3,MacIntel,59.99880002,pause_continueButton,,,,,,
,,,,,,,,,,,,,,,,,,,,,,-70.55555556,-18,20,75,-32.55555556,14.55555556,5.822222222,-113.8222222,0.264730903,-0.31109375,1,0,0,1.0318,submitButton,0.272296007,-0.259596354,0,0,0,0,45,45,2,1,18,69661,2,180,2022-02-14_02h18.20.953,orientation adjustment 2,2021.2.3,MacIntel,59.99880002,,,,,,,
,,,,,,,,,,,,,,,,,,,,,,-43.33333333,54,20,75,46.66666667,7.333333333,2.933333333,-38.93333333,0.255520833,-0.295881076,1,0,0,0.1668,submitButton,0.154518229,-0.223203125,0,0,0,0,46,46,38,1,54,69661,2,180,2022-02-14_02h18.20.953,orientation adjustment 2,2021.2.3,MacIntel,59.99880002,,,,,,,
,,,,,,,,,,,,,,,,,,,,,,36.66666667,-38,20,75,-31.33333333,6.666666667,2.666666667,-125.3333333,-0.163793403,-0.435668403,1,0,0,0.8675,submitButton,0.213671875,-0.269040799,0,0,0,0,47,47,22,1,38,69661,2,180,2022-02-14_02h18.20.953,orientation adjustment 2,2021.2.3,MacIntel,59.99880002,,,,,,,
,,,,,,,,,,,,,,,,,,,,,,-30,24,20,75,28,4,1.6,-64.4,0.228420139,-0.306011285,1,0,0,0.1002,submitButton,-0.133302951,-0.418085938,0,0,0,0,48,48,8,1,24,69661,2,180,2022-02-14_02h18.20.953,orientation adjustment 2,2021.2.3,MacIntel,59.99880002,,,,,,,
,,,,,,,,,,,,,,,,,,,,,,36.66666667,49,20,75,222.6666667,6.333333333,2.533333333,-38.46666667,0.219084201,-0.292868924,1,0,0,1.7339,submitButton,-0.145664062,-0.408532986,0,0,0,0,49,49,33,1,49,69661,2,180,2022-02-14_02h18.20.953,orientation adjustment 2,2021.2.3,MacIntel,59.99880002,,,,,,,
,,,,,,,,,,,,,,,,,,,,,,-62.77777778,-30,20,75,-208.7777778,1.222222222,0.488888889,-120.4888889,-0.272217882,-0.38562934,1,0,0,2.4671,submitButton,-0.078997396,-0.286072049,0,0,0,0,50,50,14,1,30,69661,2,180,2022-02-14_02h18.20.953,orientation adjustment 2,2021.2.3,MacIntel,59.99880002,,,,,,,
,,,,,,,,,,,,,,,,,,,,,,67.22222222,-65,20,75,-51.77777778,13.22222222,5.288888889,-149.7111111,-0.175277778,-0.412152778,1,0,0,1.2493,submitButton,0.321679687,-0.426627604,0,0,0,0,51,51,49,1,65,69661,2,180,2022-02-14_02h18.20.953,orientation adjustment 2,2021.2.3,MacIntel,59.99880002,,,,,,,
,,,,,,,,,,,,,,,,,,,,,,-40,-41,20,75,-220,1,0.4,-131.4,0.435321181,-0.283042535,1,0,0,2.7835,submitButton,-0.183320312,-0.360512153,0,0,0,0,52,52,25,1,41,69661,2,180,2022-02-14_02h18.20.953,orientation adjustment 2,2021.2.3,MacIntel,59.99880002,,,,,,,
,,,,,,,,,,,,,,,,,,,,,,-57.77777778,28,20,75,36.22222222,8.222222222,3.288888889,-58.71111111,0.198480903,-0.301553819,1,0,0,0.6835,submitButton,0.238702257,-0.234861111,0,0,0,0,53,53,12,1,28,69661,2,180,2022-02-14_02h18.20.953,orientation adjustment 2,2021.2.3,MacIntel,59.99880002,,,,,,,
,,,,,,,,,,,,,,,,,,,,,,-56.11111111,-72,20,75,-236.1111111,15.88888889,10.32777778,-172.3277778,0.419353299,-0.292178819,1,0,0,1.7333,submitButton,0.210533854,-0.221397569,0,0,0,0,54,54,56,1,72,69661,2,180,2022-02-14_02h18.20.953,orientation adjustment 2,2021.2.3,MacIntel,59.99880002,,,,,,,
,,,,,,,,,,,,,,,,,,,,,,-52.22222222,69,20,75,70.77777778,1.777777778,0.711111111,-20.28888889,-0.165763889,-0.38984375,1,0,0,0.9332,submitButton,0.075967882,-0.29484375,0,0,0,0,55,55,53,1,69,69661,2,180,2022-02-14_02h18.20.953,orientation adjustment 2,2021.2.3,MacIntel,59.99880002,,,,,,,
,,,,,,,,,,,,,,,,,,,,,,51.66666667,-46,20,75,129.6666667,4.333333333,1.733333333,-134.2666667,0.204644097,-0.306263021,1,0,0,1.9811,submitButton,0.088042535,-0.273576389,0,0,0,0,56,56,30,1,46,69661,2,180,2022-02-14_02h18.20.953,orientation adjustment 2,2021.2.3,MacIntel,59.99880002,,,,,,,
,,,,,,,,,,,,,,,,,,,,,,43.33333333,60,20,75,61.33333333,1.333333333,0.533333333,-29.46666667,-0.194292535,-0.378064236,1,0,0,1.0488,submitButton,0.029665799,-0.237317708,0,0,0,0,57,57,44,1,60,69661,2,180,2022-02-14_02h18.20.953,orientation adjustment 2,2021.2.3,MacIntel,59.99880002,,,,,,,
,,,,,,,,,,,,,,,,,,,,,,23.33333333,32,20,75,26.33333333,5.666666667,2.266666667,-60.26666667,-0.159422743,-0.386671007,1,0,0,0.9158,submitButton,0.049813368,-0.239648438,0,0,0,0,58,58,16,1,32,69661,2,180,2022-02-14_02h18.20.953,orientation adjustment 2,2021.2.3,MacIntel,59.99880002,,,,,,,
,,,,,,,,,,,,,,,,,,,,,,-27.77777778,35,20,75,32.22222222,2.777777778,1.111111111,-56.11111111,0.173836806,-0.280611979,1,0,0,0.3318,submitButton,0.266788458,-0.409809688,1,0,0,0,59,59,19,1,35,69661,2,180,2022-02-14_02h18.20.953,orientation adjustment 2,2021.2.3,MacIntel,59.99880002,pause_continueButton,,,,,,
,,,,,,,,,,,,,,,,,,,,,,54.44444444,50,20,75,232.4444444,2.444444444,0.977777778,-39.02222222,0.239127852,-0.306915399,1,0,0,1.3164,submitButton,0.158294716,-0.263421855,0,0,0,1,0,60,34,1,50,69661,2,180,2022-02-14_02h18.20.953,orientation adjustment 2,2021.2.3,MacIntel,59.99880002,,,,,,,
,,,,,,,,,,,,,,,,,,,,,,-27.22222222,25,20,75,36.77777778,11.77777778,4.711111111,-60.28888889,-0.215660646,-0.469913458,1,0,0,1.1164,submitButton,0.214274398,-0.313237682,0,0,0,1,1,61,9,1,25,69661,2,180,2022-02-14_02h18.20.953,orientation adjustment 2,2021.2.3,MacIntel,59.99880002,,,,,,,
,,,,,,,,,,,,,,,,,,,,,,-58.33333333,-43,20,75,-233.3333333,10.33333333,4.133333333,-137.1333333,0.376648645,-0.288923875,1,0,0,1.367,submitButton,0.264382327,-0.239994257,0,0,0,1,2,62,27,1,43,69661,2,180,2022-02-14_02h18.20.953,orientation adjustment 2,2021.2.3,MacIntel,59.99880002,,,,,,,
,,,,,,,,,,,,,,,,,,,,,,-35.55555556,-46,20,75,-56.55555556,10.55555556,4.222222222,-140.2222222,0.217205323,-0.306454967,1,0,0,0.6832,submitButton,0.247415637,-0.304236969,0,0,0,1,3,63,30,1,46,69661,2,180,2022-02-14_02h18.20.953,orientation adjustment 2,2021.2.3,MacIntel,59.99880002,,,,,,,
,,,,,,,,,,,,,,,,,,,,,,70.55555556,-53,20,75,-46.44444444,6.555555556,2.622222222,-140.3777778,-0.342809331,-0.415770556,1,0,0,1.3997,submitButton,0.367489504,-0.227037785,0,0,0,1,4,64,37,1,53,69661,2,180,2022-02-14_02h18.20.953,orientation adjustment 2,2021.2.3,MacIntel,59.99880002,,,,,,,
,,,,,,,,,,,,,,,,,,,,,,-26.66666667,-56,20,75,-56.66666667,0.666666667,0.266666667,-146.2666667,0.211457343,-0.277442768,1,0,0,0.0346,submitButton,0.362469304,-0.264912072,0,0,0,1,5,65,40,1,56,69661,2,180,2022-02-14_02h18.20.953,orientation adjustment 2,2021.2.3,MacIntel,59.99880002,,,,,,,
,,,,,,,,,,,,,,,,,,,,,,-27.77777778,30,20,75,27.22222222,2.777777778,1.111111111,-61.11111111,0.422652289,-0.290953739,1,0,0,1.0162,submitButton,0.243885654,-0.322139377,0,0,0,1,6,66,14,1,30,69661,2,180,2022-02-14_02h18.20.953,orientation adjustment 2,2021.2.3,MacIntel,59.99880002,,,,,,,
,,,,,,,,,,,,,,,,,,,,,,-43.33333333,-52,20,75,-62.33333333,10.33333333,4.133333333,-146.1333333,0.201610029,-0.290037825,1,0,0,0.4004,submitButton,0.239667498,-0.251455561,0,0,0,1,7,67,36,1,52,69661,2,180,2022-02-14_02h18.20.953,orientation adjustment 2,2021.2.3,MacIntel,59.99880002,,,,,,,
,,,,,,,,,,,,,,,,,,,,,,-71.11111111,-71,20,75,-60.11111111,10.88888889,4.355555556,-156.6444444,0.190307153,-0.299142506,1,0,0,1.1667,submitButton,0.20239722,-0.311455363,0,0,0,1,8,68,55,1,71,69661,2,180,2022-02-14_02h18.20.953,orientation adjustment 2,2021.2.3,MacIntel,59.99880002,,,,,,,
,,,,,,,,,,,,,,,,,,,,,,53.33333333,34,20,75,34.33333333,0.333333333,0.133333333,-55.86666667,0.381233167,-0.284012595,1,0,0,0.4669,submitButton,0.219061906,-0.242885575,0,0,0,1,9,69,18,1,34,69661,2,180,2022-02-14_02h18.20.953,orientation adjustment 2,2021.2.3,MacIntel,59.99880002,,,,,,,
,,,,,,,,,,,,,,,,,,,,,,53.88888889,-58,20,75,-44.11111111,13.88888889,5.555555556,-142.4444444,0.387802994,-0.295904626,1,0,0,0.3332,submitButton,0.251717958,-0.294647101,0,0,0,1,10,70,42,1,58,69661,2,180,2022-02-14_02h18.20.953,orientation adjustment 2,2021.2.3,MacIntel,59.99880002,,,,,,,
,,,,,,,,,,,,,,,,,,,,,,-65.55555556,-72,20,75,-245.5555556,6.444444444,2.577777778,-164.5777778,0.372529507,-0.295899675,1,0,0,1.2166,submitButton,0.130876703,-0.245489742,0,0,0,1,11,71,56,1,72,69661,2,180,2022-02-14_02h18.20.953,orientation adjustment 2,2021.2.3,MacIntel,59.99880002,,,,,,,
,,,,,,,,,,,,,,,,,,,,,,-52.22222222,-42,20,75,-62.22222222,20.22222222,13.14444444,-145.1444444,0.152977464,-0.28448788,1,0,0,4.6837,submitButton,0.204639971,-0.263713958,0,0,0,1,12,72,26,1,42,69661,2,180,2022-02-14_02h18.20.953,orientation adjustment 2,2021.2.3,MacIntel,59.99880002,,,,,,,
,,,,,,,,,,,,,,,,,,,,,,-54.44444444,67,20,75,40.55555556,26.44444444,17.18888889,-40.18888889,0.355939084,-0.300261407,1,0,0,1.2166,submitButton,0.20602622,-0.29759783,0,0,0,1,13,73,51,1,67,69661,2,180,2022-02-14_02h18.20.953,orientation adjustment 2,2021.2.3,MacIntel,59.99880002,,,,,,,
,,,,,,,,,,,,,,,,,,,,,,-71.66666667,-54,20,75,-231.6666667,2.333333333,0.933333333,-144.9333333,0.403244811,-0.306781725,1,0,0,1.7839,submitButton,0.4818649,-0.417107296,1,0,0,1,14,74,38,1,54,69661,2,180,2022-02-14_02h18.20.953,orientation adjustment 2,2021.2.3,MacIntel,59.99880002,pause_continueButton,,,,,,
,,,,,,,,,,,,,,,,,,,,,,31.11111111,-48,20,75,-41.88888889,6.111111111,2.444444444,-135.5555556,0.394357969,-0.295419439,1,0,0,0.0668,submitButton,0.263609989,-0.225290122,0,0,0,1,15,75,32,1,48,69661,2,180,2022-02-14_02h18.20.953,orientation adjustment 2,2021.2.3,MacIntel,59.99880002,,,,,,,
,,,,,,,,,,,,,,,,,,,,,,58.33333333,55,20,75,231.3333333,3.666666667,1.466666667,-33.53333333,0.204526101,-0.308910607,1,0,0,1.8663,submitButton,0.28225503,-0.229701362,0,0,0,1,16,76,39,1,55,69661,2,180,2022-02-14_02h18.20.953,orientation adjustment 2,2021.2.3,MacIntel,59.99880002,,,,,,,
,,,,,,,,,,,,,,,,,,,,,,75,47,20,75,226,1,0.4,-42.6,0.19966433,-0.310143378,1,0,0,1.484,submitButton,0.111078105,-0.220363989,0,0,0,1,17,77,31,1,47,69661,2,180,2022-02-14_02h18.20.953,orientation adjustment 2,2021.2.3,MacIntel,59.99880002,,,,,,,
,,,,,,,,,,,,,,,,,,,,,,25,-28,20,75,-18,10,4,-114,0.207496633,-0.309841374,1,0,0,0.366,submitButton,0.279640962,-0.229651854,0,0,0,1,18,78,12,1,28,69661,2,180,2022-02-14_02h18.20.953,orientation adjustment 2,2021.2.3,MacIntel,59.99880002,,,,,,,
,,,,,,,,,,,,,,,,,,,,,,-50.55555556,-16,20,75,-18.55555556,2.555555556,1.022222222,-107.0222222,0.194406488,-0.30954432,1,0,0,0.9157,submitButton,0.198119653,-0.271902725,0,0,0,1,19,79,0,1,16,69661,2,180,2022-02-14_02h18.20.953,orientation adjustment 2,2021.2.3,MacIntel,59.99880002,,,,,,,
,,,,,,,,,,,,,,,,,,,,,,-64.44444444,33,20,75,31.55555556,1.444444444,0.577777778,-57.57777778,0.209808698,-0.300107929,1,0,0,0.5999,submitButton,0.141045825,-0.242529111,0,0,0,1,20,80,17,1,33,69661,2,180,2022-02-14_02h18.20.953,orientation adjustment 2,2021.2.3,MacIntel,59.99880002,,,,,,,
,,,,,,,,,,,,,,,,,,,,,,-34.44444444,-26,20,75,-33.44444444,7.444444444,2.977777778,-118.9777778,0.171667063,-0.325342601,1,0,0,0.1332,submitButton,0.21412092,-0.285057232,0,0,0,1,21,81,10,1,26,69661,2,180,2022-02-14_02h18.20.953,orientation adjustment 2,2021.2.3,MacIntel,59.99880002,,,,,,,
,,,,,,,,,,,,,,,,,,,,,,23.33333333,22,20,75,27.33333333,5.333333333,2.133333333,-65.86666667,-0.182360979,-0.403378485,1,0,0,0.7002,submitButton,0.180657874,-0.204511248,0,0,0,1,22,82,6,1,22,69661,2,180,2022-02-14_02h18.20.953,orientation adjustment 2,2021.2.3,MacIntel,59.99880002,,,,,,,
,,,,,,,,,,,,,,,,,,,,,,-22.77777778,-24,20,75,-23.77777778,0.222222222,0.088888889,-113.9111111,-0.163369376,-0.410473107,1,0,0,0.9333,submitButton,0.028289369,-0.29313708,0,0,0,1,23,83,8,1,24,69661,2,180,2022-02-14_02h18.20.953,orientation adjustment 2,2021.2.3,MacIntel,59.99880002,,,,,,,
,,,,,,,,,,,,,,,,,,,,,,42.22222222,-29,20,75,-25.77777778,3.222222222,1.288888889,-117.7111111,0.375118821,-0.309539369,1,0,0,0.0159,submitButton,0.039404111,-0.295330323,0,0,0,1,24,84,13,1,29,69661,2,180,2022-02-14_02h18.20.953,orientation adjustment 2,2021.2.3,MacIntel,59.99880002,,,,,,,
,,,,,,,,,,,,,,,,,,,,,,-45.55555556,-38,20,75,-39.55555556,1.555555556,0.622222222,-128.6222222,0.190252693,-0.291914211,1,0,0,1.1501,submitButton,0.267595453,-0.195505585,0,0,0,1,25,85,22,1,38,69661,2,180,2022-02-14_02h18.20.953,orientation adjustment 2,2021.2.3,MacIntel,59.99880002,,,,,,,
,,,,,,,,,,,,,,,,,,,,,,57.77777778,-66,20,75,-61.22222222,4.777777778,1.911111111,-154.0888889,0.378713165,-0.284032399,1,0,0,0.1666,submitButton,-0.072401774,-0.301538736,0,0,0,1,26,86,50,1,66,69661,2,180,2022-02-14_02h18.20.953,orientation adjustment 2,2021.2.3,MacIntel,59.99880002,,,,,,,
,,,,,,,,,,,,,,,,,,,,,,-60,-62,20,75,-242,0,0,-152,0.3984375,-0.309529468,1,0,0,1.6,submitButton,-0.099260337,-0.316980553,0,0,0,1,27,87,46,1,62,69661,2,180,2022-02-14_02h18.20.953,orientation adjustment 2,2021.2.3,MacIntel,59.99880002,,,,,,,
,,,,,,,,,,,,,,,,,,,,,,-56.66666667,40,20,75,44.33333333,4.333333333,1.733333333,-48.26666667,0.194059926,-0.290795311,1,0,0,0.7667,submitButton,0.034260139,-0.319431242,0,0,0,1,28,88,24,1,40,69661,2,180,2022-02-14_02h18.20.953,orientation adjustment 2,2021.2.3,MacIntel,59.99880002,,,,,,,
,,,,,,,,,,,,,,,,,,,,,,-43.88888889,-17,20,75,-31.88888889,14.88888889,5.955555556,-112.9555556,0.222245326,-0.297563173,1,0,0,0.0826,submitButton,0.440807193,-0.403759704,1,0,0,1,29,89,1,1,17,69661,2,180,2022-02-14_02h18.20.953,orientation adjustment 2,2021.2.3,MacIntel,59.99880002,pause_continueButton,,,,,,
,,,,,,,,,,,,,,,,,,,,,,29.44444444,18,20,75,23.44444444,5.444444444,2.177777778,-69.82222222,0.39185282,-0.312767348,1,0,0,0.0839,submitButton,0.312435638,-0.220864029,0,0,0,1,30,90,2,1,18,69661,2,180,2022-02-14_02h18.20.953,orientation adjustment 2,2021.2.3,MacIntel,59.99880002,,,,,,,
,,,,,,,,,,,,,,,,,,,,,,-41.66666667,68,20,75,69.33333333,1.333333333,0.533333333,-21.46666667,-0.109147259,-0.409834442,1,0,0,0.7503,submitButton,0.132267902,-0.293686629,0,0,0,1,31,91,52,1,68,69661,2,180,2022-02-14_02h18.20.953,orientation adjustment 2,2021.2.3,MacIntel,59.99880002,,,,,,,
,,,,,,,,,,,,,,,,,,,,,,62.77777778,70,20,75,245.7777778,4.222222222,1.688888889,-18.31111111,0.21004634,-0.293320263,1,0,0,0.5668,submitButton,-0.018328184,-0.325832739,0,0,0,1,32,92,54,1,70,69661,2,180,2022-02-14_02h18.20.953,orientation adjustment 2,2021.2.3,MacIntel,59.99880002,,,,,,,
,,,,,,,,,,,,,,,,,,,,,,67.77777778,-75,20,75,-62.22222222,12.77777778,5.111111111,-159.8888889,0.387654468,-0.283240257,1,0,0,0.8165,submitButton,0.064386288,-0.242128089,0,0,0,1,33,93,59,1,75,69661,2,180,2022-02-14_02h18.20.953,orientation adjustment 2,2021.2.3,MacIntel,59.99880002,,,,,,,
,,,,,,,,,,,,,,,,,,,,,,-53.33333333,-51,20,75,-48.33333333,2.666666667,1.066666667,-139.9333333,0.225458452,-0.302627931,1,0,0,0.5333,submitButton,0.171365059,-0.300325768,0,0,0,1,34,94,35,1,51,69661,2,180,2022-02-14_02h18.20.953,orientation adjustment 2,2021.2.3,MacIntel,59.99880002,,,,,,,
,,,,,,,,,,,,,,,,,,,,,,25,64,20,75,62,2,0.8,-26.8,-0.150140605,-0.431846087,1,0,0,0.4997,submitButton,-0.043463839,-0.322891912,0,0,0,1,35,95,48,1,64,69661,2,180,2022-02-14_02h18.20.953,orientation adjustment 2,2021.2.3,MacIntel,59.99880002,,,,,,,
,,,,,,,,,,,,,,,,,,,,,,-68.33333333,45,20,75,22.66666667,22.33333333,14.51666667,-59.51666667,-0.207803588,-0.431747069,1,0,0,1.2999,submitButton,0.001212967,-0.211843512,0,0,0,1,36,96,29,1,45,69661,2,180,2022-02-14_02h18.20.953,orientation adjustment 2,2021.2.3,MacIntel,59.99880002,,,,,,,
,,,,,,,,,,,,,,,,,,,,,,67.77777778,-57,20,75,-48.22222222,8.777777778,3.511111111,-143.4888889,0.410735504,-0.323783072,1,0,0,1.4495,submitButton,-0.004104285,-0.241533983,0,0,0,1,37,97,41,1,57,69661,2,180,2022-02-14_02h18.20.953,orientation adjustment 2,2021.2.3,MacIntel,59.99880002,,,,,,,
,,,,,,,,,,,,,,,,,,,,,,-47.77777778,-65,20,75,-242.7777778,2.222222222,0.888888889,-155.8888889,0.374792063,-0.301632803,1,0,0,1.6675,submitButton,0.111870247,-0.285052281,0,0,0,1,38,98,49,1,65,69661,2,180,2022-02-14_02h18.20.953,orientation adjustment 2,2021.2.3,MacIntel,59.99880002,,,,,,,
,,,,,,,,,,,,,,,,,,,,,,-33.88888889,-36,20,75,-38.88888889,2.888888889,1.155555556,-127.1555556,0.178652765,-0.289161518,1,0,0,0.0826,submitButton,0.209749287,-0.247069075,0,0,0,1,39,99,20,1,36,69661,2,180,2022-02-14_02h18.20.953,orientation adjustment 2,2021.2.3,MacIntel,59.99880002,,,,,,,
,,,,,,,,,,,,,,,,,,,,,,63.33333333,-39,20,75,-24.66666667,14.33333333,5.733333333,-123.2666667,0.197594859,-0.295468948,1,0,0,1.6172,submitButton,0.21964116,-0.272848344,0,0,0,1,40,100,23,1,39,69661,2,180,2022-02-14_02h18.20.953,orientation adjustment 2,2021.2.3,MacIntel,59.99880002,,,,,,,
,,,,,,,,,,,,,,,,,,,,,,32.77777778,-31,20,75,-30.22222222,0.777777778,0.311111111,-120.6888889,-0.111320699,-0.411111771,1,0,0,0.9652,submitButton,0.014535805,-0.349631654,0,0,0,1,41,101,15,1,31,69661,2,180,2022-02-14_02h18.20.953,orientation adjustment 2,2021.2.3,MacIntel,59.99880002,,,,,,,
,,,,,,,,,,,,,,,,,,,,,,-59.44444444,37,20,75,32.55555556,4.444444444,1.777777778,-54.77777778,-0.154190431,-0.413349572,1,0,0,0.9997,submitButton,-0.044186668,-0.344146071,0,0,0,1,42,102,21,1,37,69661,2,180,2022-02-14_02h18.20.953,orientation adjustment 2,2021.2.3,MacIntel,59.99880002,,,,,,,
,,,,,,,,,,,,,,,,,,,,,,32.22222222,-20,20,75,-17.77777778,2.222222222,0.888888889,-109.1111111,0.183489781,-0.304826125,1,0,1,1.2841,submitButton,0.104221126,-0.234310638,0,0,1,1,43,103,4,1,20,69661,2,180,2022-02-14_02h18.20.953,orientation adjustment 2,2021.2.3,MacIntel,59.99880002,,,,,,,
,,,,,,,,,,,,,,,,,,,,,,-66.11111111,-27,20,75,26.88888889,53.88888889,43.11111111,-73.88888889,-0.309371039,-0.440673519,1,0,1,1.2503,submitButton,0.273593083,-0.403749555,1,0,1,1,44,104,11,1,27,69661,2,180,2022-02-14_02h18.20.953,orientation adjustment 2,2021.2.3,MacIntel,59.99880002,pause_continueButton,,,,,,
,,,,,,,,,,,,,,,,,,,,,,-61.66666667,-74,20,75,-224.6666667,29.33333333,19.06666667,-183.0666667,-0.198385268,-0.450091127,1,0,1,3.2011,submitButton,0.110177044,-0.313158468,0,0,1,1,45,105,58,1,74,69661,2,180,2022-02-14_02h18.20.953,orientation adjustment 2,2021.2.3,MacIntel,59.99880002,,,,,,,
,,,,,,,,,,,,,,,,,,,,,,63.33333333,-41,20,75,145.3333333,6.333333333,2.533333333,-128.4666667,-0.222032438,-0.403101236,1,0,1,1.6676,submitButton,0.148907834,-0.381451006,0,0,1,1,46,106,25,1,41,69661,2,180,2022-02-14_02h18.20.953,orientation adjustment 2,2021.2.3,MacIntel,59.99880002,,,,,,,
,,,,,,,,,,,,,,,,,,,,,,59.44444444,-63,20,75,-62.55555556,0.444444444,0.177777778,-152.8222222,-0.251911042,-0.394214393,1,0,1,2.3661,submitButton,0.128688411,-0.403393338,0,0,1,1,47,107,47,1,63,69661,2,180,2022-02-14_02h18.20.953,orientation adjustment 2,2021.2.3,MacIntel,59.99880002,,,,,,,
,,,,,,,,,,,,,,,,,,,,,,-63.33333333,23,20,75,24.66666667,1.666666667,0.666666667,-66.33333333,-0.20775408,-0.424271229,1,0,1,3.8512,submitButton,0.185460234,-0.325897101,0,0,1,1,48,108,7,1,23,69661,2,180,2022-02-14_02h18.20.953,orientation adjustment 2,2021.2.3,MacIntel,59.99880002,,,,,,,
,,,,,,,,,,,,,,,,,,,,,,52.22222222,49,20,75,231.2222222,2.222222222,0.888888889,-40.11111111,-0.223017665,-0.39135278,1,0,1,0.8326,submitButton,0.052033824,-0.438237682,0,0,1,1,49,109,33,1,49,69661,2,180,2022-02-14_02h18.20.953,orientation adjustment 2,2021.2.3,MacIntel,59.99880002,,,,,,,
,,,,,,,,,,,,,,,,,,,,,,64.44444444,-35,20,75,-21.55555556,13.44444444,5.377777778,-119.6222222,-0.173815748,-0.406913419,1,0,1,1.0833,submitButton,-0.170216453,-0.406913419,0,0,1,1,50,110,19,1,35,69661,2,180,2022-02-14_02h18.20.953,orientation adjustment 2,2021.2.3,MacIntel,59.99880002,,,,,,,
,,,,,,,,,,,,,,,,,,,,,,39.44444444,-59,20,75,-40.55555556,18.44444444,11.98888889,-137.0111111,-0.123039449,-0.396387833,1,0,1,1.6336,submitButton,0.011486058,0.495722433,0,0,1,1,51,111,43,1,59,69661,2,180,2022-02-14_02h18.20.953,orientation adjustment 2,2021.2.3,MacIntel,59.99880002,,,,,,,
,,,,,,,,,,,,,,,,,,,,,,40,69,20,75,145,76,60.8,39.8,-0.262367316,-0.376604087,1,0,1,3.7508,submitButton,-0.262367316,-0.376604087,0,0,1,1,52,112,53,1,69,69661,2,180,2022-02-14_02h18.20.953,orientation adjustment 2,2021.2.3,MacIntel,59.99880002,,,,,,,
,,,,,,,,,,,,,,,,,,,,,,-30.55555556,-21,20,75,-27.55555556,6.555555556,2.622222222,-113.6222222,-0.18214314,-0.411428628,1,0,1,0.6507,submitButton,0.169538181,-0.379168647,0,0,1,1,53,113,5,1,21,69661,2,180,2022-02-14_02h18.20.953,orientation adjustment 2,2021.2.3,MacIntel,59.99880002,,,,,,,
,,,,,,,,,,,,,,,,,,,,,,28.33333333,73,20,75,73.33333333,0.333333333,0.133333333,-16.86666667,-0.158933381,-0.427474453,1,0,1,3.1838,submitButton,0.108721483,-0.499975246,0,0,1,1,54,114,57,1,73,69661,2,180,2022-02-14_02h18.20.953,orientation adjustment 2,2021.2.3,MacIntel,59.99880002,,,,,,,
,,,,,,,,,,,,,,,,,,,,,,-27.22222222,-60,20,75,-49.22222222,10.77777778,4.311111111,-145.6888889,-0.207937262,-0.411374168,1,0,1,4.3329,submitButton,-0.207937262,-0.411374168,0,0,1,1,55,115,44,1,60,69661,2,180,2022-02-14_02h18.20.953,orientation adjustment 2,2021.2.3,MacIntel,59.99880002,,,,,,,
,,,,,,,,,,,,,,,,,,,,,,-58.33333333,-19,20,75,-11.33333333,7.666666667,3.066666667,-105.9333333,-0.228295311,-0.430563807,1,0,1,1.6162,submitButton,-0.226210987,-0.414414013,0,0,1,1,56,116,3,1,19,69661,2,180,2022-02-14_02h18.20.953,orientation adjustment 2,2021.2.3,MacIntel,59.99880002,,,,,,,
,,,,,,,,,,,,,,,,,,,,,,-27.77777778,44,20,75,39.22222222,4.777777778,1.911111111,-47.91111111,-0.144110425,-0.401556559,1,0,1,1.0833,submitButton,-0.144110425,-0.401556559,0,0,1,1,57,117,28,1,44,69661,2,180,2022-02-14_02h18.20.953,orientation adjustment 2,2021.2.3,MacIntel,59.99880002,,,,,,,
,,,,,,,,,,,,,,,,,,,,,,-69.44444444,-61,20,75,-65.44444444,4.444444444,1.777777778,-152.7777778,-0.380554895,-0.442609316,1,0,1,1.2659,submitButton,-0.330813332,-0.416468631,0,0,1,1,58,118,45,1,61,69661,2,180,2022-02-14_02h18.20.953,orientation adjustment 2,2021.2.3,MacIntel,59.99880002,,,,,,,
,,,,,,,,,,,,,,,,,,,,,,70.55555556,32,20,75,205.5555556,6.444444444,2.577777778,-55.42222222,-0.282126307,-0.401516952,1,0,1,1.9831,submitButton,0.210501822,-0.411671221,1,0,1,1,59,119,16,1,32,69661,2,180,2022-02-14_02h18.20.953,orientation adjustment 2,2021.2.3,MacIntel,59.99880002,pause_continueButton,,,,,,
,,,,,,,,,,,,,,,,,,,,,,51.11111111,-20,20,75,-16.88888889,3.111111111,1.244444444,-108.7555556,-0.207204531,-0.387208888,1,0,1,2.3324,submitButton,0.08164013,-0.303712175,0,0,1,2,0,120,4,1,20,69661,2,180,2022-02-14_02h18.20.953,orientation adjustment 2,2021.2.3,MacIntel,59.99880002,,,,,,,
,,,,,,,,,,,,,,,,,,,,,,55.55555556,74,20,75,230.5555556,23.44444444,15.23888889,-0.761111111,-0.154546895,-0.378079452,1,0,1,2.1833,submitButton,-0.163973384,-0.412151458,0,0,1,2,1,121,58,1,74,69661,2,180,2022-02-14_02h18.20.953,orientation adjustment 2,2021.2.3,MacIntel,59.99880002,,,,,,,
,,,,,,,,,,,,,,,,,,,,,,61.11111111,29,20,75,34.11111111,5.111111111,2.044444444,-58.95555556,-0.294384704,-0.400977305,1,0,1,2.3674,submitButton,-0.252718037,-0.274566302,0,0,1,2,2,122,13,1,29,69661,2,180,2022-02-14_02h18.20.953,orientation adjustment 2,2021.2.3,MacIntel,59.99880002,,,,,,,
,,,,,,,,,,,,,,,,,,,,,,-60.55555556,-42,20,75,-55.55555556,13.55555556,5.422222222,-137.4222222,-0.200565391,-0.414295192,1,0,1,1.6154,submitButton,-0.200565391,-0.414295192,0,0,1,2,3,123,26,1,42,69661,2,180,2022-02-14_02h18.20.953,orientation adjustment 2,2021.2.3,MacIntel,59.99880002,,,,,,,
,,,,,,,,,,,,,,,,,,,,,,55,-46,20,75,-26,20,13,-123,-0.300395081,-0.41529032,1,0,1,2.7668,submitButton,-0.300395081,-0.41529032,0,0,1,2,4,124,30,1,46,69661,2,180,2022-02-14_02h18.20.953,orientation adjustment 2,2021.2.3,MacIntel,59.99880002,,,,,,,
,,,,,,,,,,,,,,,,,,,,,,41.11111111,21,20,75,27.11111111,6.111111111,2.444444444,-66.55555556,-0.573273131,-0.427251663,1,0,1,4.033,submitButton,0.072391873,-0.144783745,0,0,1,2,5,125,5,1,21,69661,2,180,2022-02-14_02h18.20.953,orientation adjustment 2,2021.2.3,MacIntel,59.99880002,,,,,,,
,,,,,,,,,,,,,,,,,,,,,,-50.55555556,-16,20,75,-36.55555556,20.55555556,13.36111111,-119.3611111,-0.176405062,-0.437633674,1,0,1,1.1326,submitButton,-0.175404983,-0.405740059,0,0,1,2,6,126,0,1,16,69661,2,180,2022-02-14_02h18.20.953,orientation adjustment 2,2021.2.3,MacIntel,59.99880002,,,,,,,
,,,,,,,,,,,,,,,,,,,,,,-48.88888889,-69,20,75,-241.8888889,7.111111111,2.844444444,-161.8444444,-0.387213839,-0.402621,1,0,1,3.0829,submitButton,-0.387213839,-0.402621,0,0,1,2,7,127,53,1,69,69661,2,180,2022-02-14_02h18.20.953,orientation adjustment 2,2021.2.3,MacIntel,59.99880002,,,,,,,
,,,,,,,,,,,,,,,,,,,,,,-30,-44,20,75,-33,11,4.4,-129.6,-0.161017704,-0.390313094,1,0,1,0.9172,submitButton,-0.161017704,-0.390313094,0,0,1,2,8,128,28,1,44,69661,2,180,2022-02-14_02h18.20.953,orientation adjustment 2,2021.2.3,MacIntel,59.99880002,,,,,,,
,,,,,,,,,,,,,,,,,,,,,,24.44444444,-38,20,75,-44.55555556,6.555555556,2.622222222,-130.6222222,-0.225047529,-0.40189817,1,0,1,0.8334,submitButton,-0.225047529,-0.40189817,0,0,1,2,9,129,22,1,38,69661,2,180,2022-02-14_02h18.20.953,orientation adjustment 2,2021.2.3,MacIntel,59.99880002,,,,,,,
,,,,,,,,,,,,,,,,,,,,,,-52.22222222,22,20,75,18.77777778,3.222222222,1.288888889,-69.28888889,-0.144897616,-0.394833254,1,0,1,1.3335,submitButton,-0.144897616,-0.394833254,0,0,1,2,10,130,6,1,22,69661,2,180,2022-02-14_02h18.20.953,orientation adjustment 2,2021.2.3,MacIntel,59.99880002,,,,,,,
,,,,,,,,,,,,,,,,,,,,,,33.33333333,58,20,75,231.3333333,6.666666667,2.666666667,-29.33333333,-0.230241009,-0.418825253,1,0,1,3.0663,submitButton,-0.230241009,-0.418825253,0,0,1,2,11,131,42,1,58,69661,2,180,2022-02-14_02h18.20.953,orientation adjustment 2,2021.2.3,MacIntel,59.99880002,,,,,,,
,,,,,,,,,,,,,,,,,,,,,,48.33333333,62,20,75,60.33333333,1.666666667,0.666666667,-28.66666667,-0.364360543,-0.353557708,1,0,1,1.7155,submitButton,-0.37070263,-0.404893457,0,0,1,2,12,132,46,1,62,69661,2,180,2022-02-14_02h18.20.953,orientation adjustment 2,2021.2.3,MacIntel,59.99880002,,,,,,,
,,,,,,,,,,,,,,,,,,,,,,75,-18,20,75,-26,8,3.2,-111.2,-0.176370406,-0.390629951,1,0,1,1.9828,submitButton,-0.176370406,-0.390629951,0,0,1,2,13,133,2,1,18,69661,2,180,2022-02-14_02h18.20.953,orientation adjustment 2,2021.2.3,MacIntel,59.99880002,,,,,,,
,,,,,,,,,,,,,,,,,,,,,,-36.11111111,-66,20,75,-75.11111111,9.111111111,3.644444444,-159.6444444,-0.12304935,-0.3836492,1,0,1,1.1832,submitButton,0.288681282,-0.389367475,1,0,1,2,14,134,50,1,66,69661,2,180,2022-02-14_02h18.20.953,orientation adjustment 2,2021.2.3,MacIntel,59.99880002,pause_continueButton,,,,,,
,,,,,,,,,,,,,,,,,,,,,,36.66666667,28,20,75,36.66666667,8.666666667,3.466666667,-58.53333333,-0.172424548,-0.429969701,1,0,1,1.1657,submitButton,-0.009253208,-0.382426331,0,0,1,2,15,135,12,1,28,69661,2,180,2022-02-14_02h18.20.953,orientation adjustment 2,2021.2.3,MacIntel,59.99880002,,,,,,,
,,,,,,,,,,,,,,,,,,,,,,-62.77777778,-26,20,75,-38.77777778,12.77777778,5.111111111,-121.1111111,-0.215002178,-0.422206709,1,0,1,3.3008,submitButton,-0.215002178,-0.422206709,0,0,1,2,16,136,10,1,26,69661,2,180,2022-02-14_02h18.20.953,orientation adjustment 2,2021.2.3,MacIntel,59.99880002,,,,,,,
,,,,,,,,,,,,,,,,,,,,,,71.11111111,-72,20,75,-44.88888889,27.11111111,17.62222222,-144.3777778,-0.183247188,-0.405373693,1,0,1,3.8497,submitButton,-0.183247188,-0.405373693,0,0,1,2,17,137,56,1,72,69661,2,180,2022-02-14_02h18.20.953,orientation adjustment 2,2021.2.3,MacIntel,59.99880002,,,,,,,
,,,,,,,,,,,,,,,,,,,,,,43.33333333,-70,20,75,-80.66666667,10.66666667,4.266666667,-164.2666667,-0.202070461,-0.394229246,1,0,1,5.0826,submitButton,-0.202070461,-0.394229246,0,0,1,2,18,138,54,1,70,69661,2,180,2022-02-14_02h18.20.953,orientation adjustment 2,2021.2.3,MacIntel,59.99880002,,,,,,,
,,,,,,,,,,,,,,,,,,,,,,-32.77777778,24,20,75,21.22222222,2.777777778,1.111111111,-67.11111111,-0.179618188,-0.405997505,1,0,1,3.3498,submitButton,-0.179618188,-0.405997505,0,0,1,2,19,139,8,1,24,69661,2,180,2022-02-14_02h18.20.953,orientation adjustment 2,2021.2.3,MacIntel,59.99880002,,,,,,,
,,,,,,,,,,,,,,,,,,,,,,32.22222222,-61,20,75,-49.77777778,11.22222222,4.488888889,-146.5111111,-0.227364544,-0.38889714,1,0,1,1.3663,submitButton,-0.227364544,-0.38889714,0,0,1,2,20,140,45,1,61,69661,2,180,2022-02-14_02h18.20.953,orientation adjustment 2,2021.2.3,MacIntel,59.99880002,,,,,,,
,,,,,,,,,,,,,,,,,,,,,,-51.11111111,31,20,75,31.88888889,0.888888889,0.355555556,-58.64444444,-0.204382525,-0.385084957,1,0,1,1.0829,submitButton,-0.204382525,-0.385084957,0,0,1,2,21,141,15,1,31,69661,2,180,2022-02-14_02h18.20.953,orientation adjustment 2,2021.2.3,MacIntel,59.99880002,,,,,,,
,,,,,,,,,,,,,,,,,,,,,,46.11111111,-64,20,75,-57.88888889,6.111111111,2.444444444,-151.5555556,-0.241954808,-0.417805371,1,0,1,1.0672,submitButton,-0.241954808,-0.417805371,0,0,1,2,22,142,48,1,64,69661,2,180,2022-02-14_02h18.20.953,orientation adjustment 2,2021.2.3,MacIntel,59.99880002,,,,,,,
,,,,,,,,,,,,,,,,,,,,,,53.88888889,-34,20,75,-32.11111111,1.888888889,0.755555556,-123.2444444,-0.182648131,-0.410408745,1,0,1,1.2169,submitButton,-0.182648131,-0.410408745,0,0,1,2,23,143,18,1,34,69661,2,180,2022-02-14_02h18.20.953,orientation adjustment 2,2021.2.3,MacIntel,59.99880002,,,,,,,
,,,,,,,,,,,,,,,,,,,,,,40,-68,20,75,-66,2,0.8,-157.2,-0.198822679,-0.383188767,1,0,1,1.0017,submitButton,-0.198822679,-0.383188767,0,0,1,2,24,144,52,1,68,69661,2,180,2022-02-14_02h18.20.953,orientation adjustment 2,2021.2.3,MacIntel,59.99880002,,,,,,,
,,,,,,,,,,,,,,,,,,,,,,26.66666667,-36,20,75,-34.33333333,1.666666667,0.666666667,-125.3333333,-0.172855276,-0.379133991,1,0,1,0.7839,submitButton,-0.172855276,-0.379133991,0,0,1,2,25,145,20,1,36,69661,2,180,2022-02-14_02h18.20.953,orientation adjustment 2,2021.2.3,MacIntel,59.99880002,,,,,,,
,,,,,,,,,,,,,,,,,,,,,,-25,-35,20,75,-35,0,0,-125,-0.171746277,-0.395140209,1,0,1,0.6509,submitButton,-0.171746277,-0.395140209,0,0,1,2,26,146,19,1,35,69661,2,180,2022-02-14_02h18.20.953,orientation adjustment 2,2021.2.3,MacIntel,59.99880002,,,,,,,
,,,,,,,,,,,,,,,,,,,,,,45,-55,20,75,-46,9,3.6,-141.4,-0.175598067,-0.41807767,1,0,1,2.8664,submitButton,-0.175598067,-0.41807767,0,0,1,2,27,147,39,1,55,69661,2,180,2022-02-14_02h18.20.953,orientation adjustment 2,2021.2.3,MacIntel,59.99880002,,,,,,,
,,,,,,,,,,,,,,,,,,,,,,52.22222222,41,20,75,213.2222222,7.777777778,3.111111111,-45.88888889,-0.261728652,-0.403561668,1,0,1,2.1496,submitButton,-0.261728652,-0.403561668,0,0,1,2,28,148,25,1,41,69661,2,180,2022-02-14_02h18.20.953,orientation adjustment 2,2021.2.3,MacIntel,59.99880002,,,,,,,
,,,,,,,,,,,,,,,,,,,,,,-36.11111111,-17,20,75,-41.11111111,24.11111111,15.67222222,-122.6722222,-0.152472473,-0.39625911,1,0,1,1.0844,submitButton,0.176197125,-0.393145002,1,0,1,2,29,149,1,1,17,69661,2,180,2022-02-14_02h18.20.953,orientation adjustment 2,2021.2.3,MacIntel,59.99880002,pause_continueButton,,,,,,
,,,,,,,,,,,,,,,,,,,,,,36.11111111,30,20,75,35.11111111,5.111111111,2.044444444,-57.95555556,-0.274813847,-0.400690154,1,0,1,1.117,submitButton,-0.274813847,-0.400690154,0,0,1,2,30,150,14,1,30,69661,2,180,2022-02-14_02h18.20.953,orientation adjustment 2,2021.2.3,MacIntel,59.99880002,,,,,,,
,,,,,,,,,,,,,,,,,,,,,,-64.44444444,51,20,75,41.55555556,9.444444444,3.777777778,-42.77777778,-0.167844978,-0.397590898,1,0,1,1.2499,submitButton,0.047587928,-0.34692847,0,0,1,2,31,151,35,1,51,69661,2,180,2022-02-14_02h18.20.953,orientation adjustment 2,2021.2.3,MacIntel,59.99880002,,,,,,,
,,,,,,,,,,,,,,,,,,,,,,-35,-19,20,75,-21,2,0.8,-109.8,-0.1503931,-0.377366524,1,0,1,2.2166,submitButton,-0.1503931,-0.377366524,0,0,1,2,32,152,3,1,19,69661,2,180,2022-02-14_02h18.20.953,orientation adjustment 2,2021.2.3,MacIntel,59.99880002,,,,,,,
,,,,,,,,,,,,,,,,,,,,,,50,23,20,75,-47,70,56,-123,-0.22874089,-0.39057054,1,0,1,5.0341,submitButton,-0.22874089,-0.39057054,0,0,1,2,33,153,7,1,23,69661,2,180,2022-02-14_02h18.20.953,orientation adjustment 2,2021.2.3,MacIntel,59.99880002,,,,,,,
,,,,,,,,,,,,,,,,,,,,,,-69.44444444,71,20,75,55.55555556,15.44444444,10.03888889,-29.03888889,-0.228567609,-0.405339037,1,0,1,1.6167,submitButton,0.133243227,-0.363796142,0,0,1,2,34,154,55,1,71,69661,2,180,2022-02-14_02h18.20.953,orientation adjustment 2,2021.2.3,MacIntel,59.99880002,,,,,,,
,,,,,,,,,,,,,,,,,,,,,,56.11111111,43,20,75,46.11111111,3.111111111,1.244444444,-45.75555556,-0.138278279,-0.402294241,1,0,1,2.6492,submitButton,-0.138278279,-0.402294241,0,0,1,2,35,155,27,1,43,69661,2,180,2022-02-14_02h18.20.953,orientation adjustment 2,2021.2.3,MacIntel,59.99880002,,,,,,,
,,,,,,,,,,,,,,,,,,,,,,-67.22222222,47,20,75,52.77777778,5.777777778,2.311111111,-40.68888889,-0.158274913,-0.375,1,0,1,2.0991,submitButton,-0.158274913,-0.375,0,0,1,2,36,156,31,1,47,69661,2,180,2022-02-14_02h18.20.953,orientation adjustment 2,2021.2.3,MacIntel,59.99880002,,,,,,,
,,,,,,,,,,,,,,,,,,,,,,-48.88888889,-33,20,75,-227.8888889,14.88888889,5.955555556,-128.9555556,-0.131312381,-0.381955997,1,0,1,2.9498,submitButton,-0.131312381,-0.381955997,0,0,1,2,37,157,17,1,33,69661,2,180,2022-02-14_02h18.20.953,orientation adjustment 2,2021.2.3,MacIntel,59.99880002,,,,,,,
,,,,,,,,,,,,,,,,,,,,,,34.44444444,-50,20,75,-45.55555556,4.444444444,1.777777778,-138.2222222,-0.18900507,-0.398076085,1,0,1,5.8666,submitButton,-0.18900507,-0.398076085,0,0,1,2,38,158,34,1,50,69661,2,180,2022-02-14_02h18.20.953,orientation adjustment 2,2021.2.3,MacIntel,59.99880002,,,,,,,
,,,,,,,,,,,,,,,,,,,,,,61.11111111,40,20,75,43.11111111,3.111111111,1.244444444,-48.75555556,-0.132985781,-0.393224216,1,0,1,1.7335,submitButton,-0.132985781,-0.393224216,0,0,1,2,39,159,24,1,40,69661,2,180,2022-02-14_02h18.20.953,orientation adjustment 2,2021.2.3,MacIntel,59.99880002,,,,,,,
,,,,,,,,,,,,,,,,,,,,,,66.66666667,-27,20,75,-32.33333333,5.333333333,2.133333333,-119.1333333,-0.154343908,-0.388476315,1,0,1,2.1671,submitButton,-0.154343908,-0.388476315,0,0,1,2,40,160,11,1,27,69661,2,180,2022-02-14_02h18.20.953,orientation adjustment 2,2021.2.3,MacIntel,59.99880002,,,,,,,
,,,,,,,,,,,,,,,,,,,,,,43.33333333,-73,20,75,-75.66666667,2.666666667,1.066666667,-164.0666667,-0.140228929,-0.425989187,1,0,1,3.0314,submitButton,-0.140228929,-0.425989187,0,0,1,2,41,161,57,1,73,69661,2,180,2022-02-14_02h18.20.953,orientation adjustment 2,2021.2.3,MacIntel,59.99880002,,,,,,,
,,,,,,,,,,,,,,,,,,,,,,75,54,20,75,52,2,0.8,-36.8,-0.149071214,-0.395660052,1,0,1,2.7321,submitButton,-0.149071214,-0.395660052,0,0,1,2,42,162,38,1,54,69661,2,180,2022-02-14_02h18.20.953,orientation adjustment 2,2021.2.3,MacIntel,59.99880002,,,,,,,
,,,,,,,,,,,,,,,,,,,,,,-66.66666667,-63,20,75,-66.66666667,3.666666667,1.466666667,-154.4666667,-0.183965067,-0.403447798,1,0,1,2.1496,submitButton,-0.183965067,-0.403447798,0,0,1,2,43,163,47,1,63,69661,2,180,2022-02-14_02h18.20.953,orientation adjustment 2,2021.2.3,MacIntel,59.99880002,,,,,,,
,,,,,,,,,,,,,,,,,,,,,,-30.55555556,-53,20,75,-45.55555556,7.444444444,2.977777778,-140.0222222,-0.215838878,-0.400120802,1,0,1,1.3168,submitButton,0.303553747,-0.397942411,1,0,1,2,44,164,37,1,53,69661,2,180,2022-02-14_02h18.20.953,orientation adjustment 2,2021.2.3,MacIntel,59.99880002,pause_continueButton,,,,,,
,,,,,,,,,,,,,,,,,,,,,,-62.22222222,60,20,75,49.77777778,10.22222222,4.088888889,-34.08888889,-0.229305292,-0.404650863,1,0,1,1.6514,submitButton,-0.229305292,-0.404650863,0,0,1,2,45,165,44,1,60,69661,2,180,2022-02-14_02h18.20.953,orientation adjustment 2,2021.2.3,MacIntel,59.99880002,,,,,,,
,,,,,,,,,,,,,,,,,,,,,,27.77777778,39,20,75,48.77777778,9.777777778,3.911111111,-47.08888889,-0.264426885,-0.397110662,1,0,1,1.583,submitButton,-0.264426885,-0.397110662,0,0,1,2,46,166,23,1,39,69661,2,180,2022-02-14_02h18.20.953,orientation adjustment 2,2021.2.3,MacIntel,59.99880002,,,,,,,
,,,,,,,,,,,,,,,,,,,,,,62.22222222,-45,20,75,-28.77777778,16.22222222,10.54444444,-124.4555556,-0.187361375,-0.394937223,1,0,1,1.6494,submitButton,-0.187361375,-0.394937223,0,0,1,2,47,167,29,1,45,69661,2,180,2022-02-14_02h18.20.953,orientation adjustment 2,2021.2.3,MacIntel,59.99880002,,,,,,,
,,,,,,,,,,,,,,,,,,,,,,26.11111111,-75,20,75,-71.88888889,3.111111111,1.244444444,-163.7555556,-0.218957937,-0.382149081,1,0,1,1.7165,submitButton,-0.218957937,-0.382149081,0,0,1,2,48,168,59,1,75,69661,2,180,2022-02-14_02h18.20.953,orientation adjustment 2,2021.2.3,MacIntel,59.99880002,,,,,,,
,,,,,,,,,,,,,,,,,,,,,,-28.88888889,-32,20,75,-34.88888889,2.888888889,1.155555556,-123.1555556,-0.153269566,-0.409359157,1,0,1,0.8667,submitButton,-0.153269566,-0.409359157,0,0,1,2,49,169,16,1,32,69661,2,180,2022-02-14_02h18.20.953,orientation adjustment 2,2021.2.3,MacIntel,59.99880002,,,,,,,
,,,,,,,,,,,,,,,,,,,,,,-37.22222222,-59,20,75,-58.22222222,0.777777778,0.311111111,-148.6888889,-0.140615098,-0.39587294,1,0,1,2.2667,submitButton,-0.140615098,-0.39587294,0,0,1,2,50,170,43,1,59,69661,2,180,2022-02-14_02h18.20.953,orientation adjustment 2,2021.2.3,MacIntel,59.99880002,,,,,,,
,,,,,,,,,,,,,,,,,,,,,,-61.66666667,37,20,75,32.33333333,4.666666667,1.866666667,-54.86666667,-0.215888387,-0.411908864,1,0,1,1.516,submitButton,-0.215888387,-0.411908864,0,0,1,2,51,171,21,1,37,69661,2,180,2022-02-14_02h18.20.953,orientation adjustment 2,2021.2.3,MacIntel,59.99880002,,,,,,,
,,,,,,,,,,,,,,,,,,,,,,-60.55555556,49,20,75,34.44444444,14.55555556,5.822222222,-46.82222222,-0.261624683,-0.428271546,1,0,1,1.4668,submitButton,-0.179261724,-0.333293726,0,0,1,2,52,172,33,1,49,69661,2,180,2022-02-14_02h18.20.953,orientation adjustment 2,2021.2.3,MacIntel,59.99880002,,,,,,,
,,,,,,,,,,,,,,,,,,,,,,38.33333333,67,20,75,74.33333333,7.333333333,2.933333333,-20.06666667,-0.150690154,-0.384881971,1,0,1,2.1665,submitButton,-0.150690154,-0.384881971,0,0,1,2,53,173,51,1,67,69661,2,180,2022-02-14_02h18.20.953,orientation adjustment 2,2021.2.3,MacIntel,59.99880002,,,,,,,
,,,,,,,,,,,,,,,,,,,,,,39.44444444,-57,20,75,-45.55555556,11.44444444,4.577777778,-142.4222222,-0.266912231,-0.408670984,1,0,1,1.232,submitButton,-0.266912231,-0.408670984,0,0,1,2,54,174,41,1,57,69661,2,180,2022-02-14_02h18.20.953,orientation adjustment 2,2021.2.3,MacIntel,59.99880002,,,,,,,
,,,,,,,,,,,,,,,,,,,,,,-56.11111111,65,20,75,34.88888889,30.11111111,24.08888889,-49.08888889,-0.136337532,-0.389803153,1,0,1,1.9337,submitButton,-0.136337532,-0.389803153,0,0,1,2,55,175,49,1,65,69661,2,180,2022-02-14_02h18.20.953,orientation adjustment 2,2021.2.3,MacIntel,59.99880002,,,,,,,
,,,,,,,,,,,,,,,,,,,,,,44.44444444,-56,20,75,-49.55555556,6.444444444,2.577777778,-143.4222222,-0.162408904,-0.424201917,1,0,1,1.5495,submitButton,-0.162408904,-0.424201917,0,0,1,2,56,176,40,1,56,69661,2,180,2022-02-14_02h18.20.953,orientation adjustment 2,2021.2.3,MacIntel,59.99880002,,,,,,,
,,,,,,,,,,,,,,,,,,,,,,-66.11111111,48,20,75,38.88888889,9.111111111,3.644444444,-45.64444444,-0.345413498,-0.386060282,1,0,1,1.7507,submitButton,-0.345413498,-0.386060282,0,0,1,2,57,177,32,1,48,69661,2,180,2022-02-14_02h18.20.953,orientation adjustment 2,2021.2.3,MacIntel,59.99880002,,,,,,,
,,,,,,,,,,,,,,,,,,,,,,-34.44444444,52,20,75,43.55555556,8.444444444,3.377777778,-41.37777778,-0.178073511,-0.401858563,1,0,1,0.5003,submitButton,-0.178073511,-0.401858563,0,0,1,2,58,178,36,1,52,69661,2,180,2022-02-14_02h18.20.953,orientation adjustment 2,2021.2.3,MacIntel,59.99880002,,,,,,,
,,,,,,,,,,,,,,,,,,,,,,21.66666667,25,20,75,21.66666667,3.333333333,1.333333333,-66.33333333,-0.16227523,-0.395516477,1,0,1,1.5676,submitButton,-0.16227523,-0.395516477,0,0,1,2,59,179,9,1,25,69661,2,180,2022-02-14_02h18.20.953,orientation adjustment 2,2021.2.3,MacIntel,59.99880002,,,,,,,
,,,,,,,,,,,,,,,,,,,,,,,,,,,,,,,,,,,,,,,,,,,,,,,,69661,2,180,2022-02-14_02h18.20.953,orientation adjustment 2,2021.2.3,MacIntel,59.99880002,,0.244336185,-0.390471522,1,0,1,EndButtonTxt
