consentMouse1.x,consentMouse1.y,consentMouse1.leftButton,consentMouse1.midButton,consentMouse1.rightButton,consentMouse1.clicked_name,consent_Mouse.x,consent_Mouse.y,consent_Mouse.leftButton,consent_Mouse.midButton,consent_Mouse.rightButton,consent_Mouse.clicked_name,startMouse.x,startMouse.y,startMouse.leftButton,startMouse.midButton,startMouse.rightButton,startMouse_2.x,startMouse_2.y,startMouse_2.leftButton,startMouse_2.midButton,startMouse_2.rightButton,start_distance,fixedOri,minimalDistance,maxOri,this_ori,accuracy,presented_accuracy,presented_this_ori,submitMouse.x,submitMouse.y,submitMouse.leftButton,submitMouse.midButton,submitMouse.rightButton,submitMouse.time,submitMouse.clicked_name,pauseMouse.x,pauseMouse.y,pauseMouse.leftButton,pauseMouse.midButton,pauseMouse.rightButton,trials.thisRepN,trials.thisTrialN,trials.thisN,trials.thisIndex,trials.ran,startOri,participant,condition,nTrials,date,expName,psychopyVersion,OS,frameRate,pauseMouse.clicked_name,EndButtonMouse.x,EndButtonMouse.y,EndButtonMouse.leftButton,EndButtonMouse.midButton,EndButtonMouse.rightButton,EndButtonMouse.clicked_name
0.34,-0.388888889,1,0,0,consent_button1,0.368888889,-0.397777778,1,0,0,consent_button,0.333333333,-0.285555556,1,0,0,0.301111111,-0.263333333,1,0,0,46.11111111,58,20,75,104.1111111,46.11111111,36.88888889,4.888888889,-0.551111111,-0.406666667,1,0,0,4.714,submitButton,-0.548888889,-0.406666667,0,0,0,0,0,0,42,1,58,69712,2,180,2022-02-10_09h23.17.854,orientation adjustment 2,2021.2.3,MacIntel,62.5,,,,,,,
,,,,,,,,,,,,,,,,,,,,,,-53.33333333,-45,20,75,-76.33333333,31.33333333,25.06666667,-160.0666667,0.397777778,-0.298888889,1,0,0,0.285,submitButton,-0.412222222,-0.392222222,0,0,0,0,1,1,29,1,45,69712,2,180,2022-02-10_09h23.17.854,orientation adjustment 2,2021.2.3,MacIntel,62.5,,,,,,,
,,,,,,,,,,,,,,,,,,,,,,38.33333333,16,20,75,26.33333333,10.33333333,4.133333333,-69.86666667,0.404444444,-0.287777778,1,0,0,0.483,submitButton,-0.263333333,-0.335555556,0,0,0,0,2,2,0,1,16,69712,2,180,2022-02-10_09h23.17.854,orientation adjustment 2,2021.2.3,MacIntel,62.5,,,,,,,
,,,,,,,,,,,,,,,,,,,,,,68.88888889,71,20,75,79.88888889,8.888888889,3.555555556,-15.44444444,0.35,-0.286666667,1,0,0,0.466,submitButton,0.203333333,-0.201111111,0,0,0,0,3,3,55,1,71,69712,2,180,2022-02-10_09h23.17.854,orientation adjustment 2,2021.2.3,MacIntel,62.5,,,,,,,
,,,,,,,,,,,,,,,,,,,,,,51.66666667,-46,20,75,125.6666667,8.333333333,3.333333333,-132.6666667,0.22,-0.285555556,1,0,0,0.016,submitButton,-0.054444444,-0.307777778,0,0,0,0,4,4,30,1,46,69712,2,180,2022-02-10_09h23.17.854,orientation adjustment 2,2021.2.3,MacIntel,62.5,,,,,,,
,,,,,,,,,,,,,,,,,,,,,,-51.66666667,-47,20,75,-64.66666667,17.66666667,11.48333333,-148.4833333,0.392222222,-0.297777778,1,0,0,0.2,submitButton,-0.22,-0.354444444,0,0,0,0,5,5,31,1,47,69712,2,180,2022-02-10_09h23.17.854,orientation adjustment 2,2021.2.3,MacIntel,62.5,,,,,,,
,,,,,,,,,,,,,,,,,,,,,,-64.44444444,62,20,75,64.55555556,2.555555556,1.022222222,-26.97777778,0.182222222,-0.31,1,0,0,1.467,submitButton,0.051111111,-0.21,0,0,0,0,6,6,46,1,62,69712,2,180,2022-02-10_09h23.17.854,orientation adjustment 2,2021.2.3,MacIntel,62.5,,,,,,,
,,,,,,,,,,,,,,,,,,,,,,28.88888889,63,20,75,70.88888889,7.888888889,3.155555556,-23.84444444,0.401111111,-0.29,1,0,0,0.15,submitButton,-0.258888889,-0.374444444,0,0,0,0,7,7,47,1,63,69712,2,180,2022-02-10_09h23.17.854,orientation adjustment 2,2021.2.3,MacIntel,62.5,,,,,,,
,,,,,,,,,,,,,,,,,,,,,,38.88888889,-66,20,75,-71.11111111,5.111111111,2.044444444,-158.0444444,0.397777778,-0.303333333,1,0,0,0.633,submitButton,-0.422222222,-0.397777778,0,0,0,0,8,8,50,1,66,69712,2,180,2022-02-10_09h23.17.854,orientation adjustment 2,2021.2.3,MacIntel,62.5,,,,,,,
,,,,,,,,,,,,,,,,,,,,,,61.66666667,22,20,75,34.66666667,12.66666667,5.066666667,-62.93333333,0.421111111,-0.288888889,1,0,0,0.384,submitButton,0.157777778,-0.258888889,0,0,0,0,9,9,6,1,22,69712,2,180,2022-02-10_09h23.17.854,orientation adjustment 2,2021.2.3,MacIntel,62.5,,,,,,,
,,,,,,,,,,,,,,,,,,,,,,28.33333333,48,20,75,42.33333333,5.666666667,2.266666667,-44.26666667,0.411111111,-0.32,1,0,0,0.767,submitButton,-0.233333333,-0.366666667,0,0,0,0,10,10,32,1,48,69712,2,180,2022-02-10_09h23.17.854,orientation adjustment 2,2021.2.3,MacIntel,62.5,,,,,,,
,,,,,,,,,,,,,,,,,,,,,,-23.33333333,57,20,75,61.66666667,4.666666667,1.866666667,-31.13333333,-0.196666667,-0.392222222,1,0,0,1.167,submitButton,0.04,-0.288888889,0,0,0,0,11,11,41,1,57,69712,2,180,2022-02-10_09h23.17.854,orientation adjustment 2,2021.2.3,MacIntel,62.5,,,,,,,
,,,,,,,,,,,,,,,,,,,,,,50.55555556,-28,20,75,142.5555556,9.444444444,3.777777778,-114.2222222,0.225555556,-0.296666667,1,0,0,0.183,submitButton,-0.01,-0.284444444,0,0,0,0,12,12,12,1,28,69712,2,180,2022-02-10_09h23.17.854,orientation adjustment 2,2021.2.3,MacIntel,62.5,,,,,,,
,,,,,,,,,,,,,,,,,,,,,,-68.88888889,75,20,75,-97.88888889,7.111111111,2.844444444,-17.84444444,0.385555556,-0.298888889,1,0,0,1.751,submitButton,-0.243333333,-0.383333333,0,0,0,0,13,13,59,1,75,69712,2,180,2022-02-10_09h23.17.854,orientation adjustment 2,2021.2.3,MacIntel,62.5,,,,,,,
,,,,,,,,,,,,,,,,,,,,,,-44.44444444,27,20,75,30.55555556,3.555555556,1.422222222,-61.57777778,0.213333333,-0.315555556,1,0,0,0.366,submitButton,0.271111111,-0.402222222,1,0,0,0,14,14,11,1,27,69712,2,180,2022-02-10_09h23.17.854,orientation adjustment 2,2021.2.3,MacIntel,62.5,pause_continueButton,,,,,,
,,,,,,,,,,,,,,,,,,,,,,-72.22222222,64,20,75,-109.2222222,6.777777778,2.711111111,-28.71111111,0.262222222,-0.28,1,0,0,0.133,submitButton,-0.138888889,-0.4,0,0,0,0,15,15,48,1,64,69712,2,180,2022-02-10_09h23.17.854,orientation adjustment 2,2021.2.3,MacIntel,62.5,,,,,,,
,,,,,,,,,,,,,,,,,,,,,,-65,-61,20,75,-79,18,11.7,-162.7,0.202222222,-0.318888889,1,0,0,0.617,submitButton,-0.355555556,-0.413333333,0,0,0,0,16,16,45,1,61,69712,2,180,2022-02-10_09h23.17.854,orientation adjustment 2,2021.2.3,MacIntel,62.5,,,,,,,
,,,,,,,,,,,,,,,,,,,,,,37.22222222,51,20,75,69.22222222,18.22222222,11.84444444,-27.15555556,0.418888889,-0.308888889,1,0,0,0.018,submitButton,0.018888889,-0.27,0,0,0,0,17,17,35,1,51,69712,2,180,2022-02-10_09h23.17.854,orientation adjustment 2,2021.2.3,MacIntel,62.5,,,,,,,
,,,,,,,,,,,,,,,,,,,,,,-61.66666667,69,20,75,54.33333333,14.66666667,5.866666667,-26.86666667,0.2,-0.303333333,1,0,0,0.616,submitButton,-0.225555556,-0.413333333,0,0,0,0,18,18,53,1,69,69712,2,180,2022-02-10_09h23.17.854,orientation adjustment 2,2021.2.3,MacIntel,62.5,,,,,,,
,,,,,,,,,,,,,,,,,,,,,,-48.33333333,-55,20,75,-79.33333333,24.33333333,15.81666667,-160.8166667,0.223333333,-0.304444444,1,0,0,0.3,submitButton,-0.087777778,-0.326666667,0,0,0,0,19,19,39,1,55,69712,2,180,2022-02-10_09h23.17.854,orientation adjustment 2,2021.2.3,MacIntel,62.5,,,,,,,
,,,,,,,,,,,,,,,,,,,,,,-34.44444444,-24,20,75,-34.44444444,10.44444444,4.177777778,-118.1777778,-0.248888889,-0.375555556,1,0,0,1.066,submitButton,-0.248888889,-0.376666667,0,0,0,0,20,20,8,1,24,69712,2,180,2022-02-10_09h23.17.854,orientation adjustment 2,2021.2.3,MacIntel,62.5,,,,,,,
,,,,,,,,,,,,,,,,,,,,,,31.11111111,-35,20,75,-35.88888889,0.888888889,0.355555556,-125.3555556,-0.313333333,-0.402222222,1,0,0,1.084,submitButton,-0.313333333,-0.401111111,0,0,0,0,21,21,19,1,35,69712,2,180,2022-02-10_09h23.17.854,orientation adjustment 2,2021.2.3,MacIntel,62.5,,,,,,,
,,,,,,,,,,,,,,,,,,,,,,-67.22222222,-18,20,75,-43.22222222,25.22222222,16.39444444,-124.3944444,0.198888889,-0.31,1,0,0,0.218,submitButton,-0.011111111,-0.3,0,0,0,0,22,22,2,1,18,69712,2,180,2022-02-10_09h23.17.854,orientation adjustment 2,2021.2.3,MacIntel,62.5,,,,,,,
,,,,,,,,,,,,,,,,,,,,,,-31.11111111,72,20,75,64.88888889,7.111111111,2.844444444,-20.84444444,0.157777778,-0.292222222,1,0,0,0.266,submitButton,-0.254444444,-0.395555556,0,0,0,0,23,23,56,1,72,69712,2,180,2022-02-10_09h23.17.854,orientation adjustment 2,2021.2.3,MacIntel,62.5,,,,,,,
,,,,,,,,,,,,,,,,,,,,,,-47.77777778,-20,20,75,-19.77777778,0.222222222,0.088888889,-109.9111111,0.212222222,-0.302222222,1,0,0,0.65,submitButton,-0.094444444,-0.421111111,0,0,0,0,24,24,4,1,20,69712,2,180,2022-02-10_09h23.17.854,orientation adjustment 2,2021.2.3,MacIntel,62.5,,,,,,,
,,,,,,,,,,,,,,,,,,,,,,-52.22222222,-49,20,75,-50.22222222,1.222222222,0.488888889,-139.4888889,-0.34,-0.414444444,1,0,0,1.016,submitButton,-0.005555556,-0.312222222,0,0,0,0,25,25,33,1,49,69712,2,180,2022-02-10_09h23.17.854,orientation adjustment 2,2021.2.3,MacIntel,62.5,,,,,,,
,,,,,,,,,,,,,,,,,,,,,,-65.55555556,-56,20,75,-60.55555556,4.555555556,1.822222222,-147.8222222,0.223333333,-0.302222222,1,0,0,1.15,submitButton,0.251111111,-0.285555556,0,0,0,0,26,26,40,1,56,69712,2,180,2022-02-10_09h23.17.854,orientation adjustment 2,2021.2.3,MacIntel,62.5,,,,,,,
,,,,,,,,,,,,,,,,,,,,,,51.66666667,26,20,75,39.66666667,13.66666667,5.466666667,-58.53333333,0.43,-0.297777778,1,0,0,0.4,submitButton,0.218888889,-0.31,0,0,0,0,27,27,10,1,26,69712,2,180,2022-02-10_09h23.17.854,orientation adjustment 2,2021.2.3,MacIntel,62.5,,,,,,,
,,,,,,,,,,,,,,,,,,,,,,-72.77777778,29,20,75,-151.7777778,0.777777778,0.311111111,-61.31111111,0.401111111,-0.294444444,1,0,0,1.4,submitButton,-0.264444444,-0.395555556,0,0,0,0,28,28,13,1,29,69712,2,180,2022-02-10_09h23.17.854,orientation adjustment 2,2021.2.3,MacIntel,62.5,,,,,,,
,,,,,,,,,,,,,,,,,,,,,,53.88888889,-31,20,75,147.8888889,1.111111111,0.444444444,-120.5555556,0.202222222,-0.296666667,1,0,0,1.65,submitButton,0.343333333,-0.41,1,0,0,0,29,29,15,1,31,69712,2,180,2022-02-10_09h23.17.854,orientation adjustment 2,2021.2.3,MacIntel,62.5,pause_continueButton,,,,,,
,,,,,,,,,,,,,,,,,,,,,,54.44444444,60,20,75,67.44444444,7.444444444,2.977777778,-27.02222222,-0.39,-0.414444444,1,0,0,1.466,submitButton,0.17,-0.335555556,0,0,0,0,30,30,44,1,60,69712,2,180,2022-02-10_09h23.17.854,orientation adjustment 2,2021.2.3,MacIntel,62.5,,,,,,,
,,,,,,,,,,,,,,,,,,,,,,70.55555556,68,20,75,69.55555556,1.555555556,0.622222222,-21.37777778,-0.255555556,-0.388888889,1,0,0,1.433,submitButton,0.255555556,-0.304444444,0,0,0,0,31,31,52,1,68,69712,2,180,2022-02-10_09h23.17.854,orientation adjustment 2,2021.2.3,MacIntel,62.5,,,,,,,
,,,,,,,,,,,,,,,,,,,,,,33.33333333,-32,20,75,152.3333333,4.333333333,1.733333333,-120.2666667,0.204444444,-0.297777778,1,0,0,1.9,submitButton,0.193333333,-0.312222222,0,0,0,0,32,32,16,1,32,69712,2,180,2022-02-10_09h23.17.854,orientation adjustment 2,2021.2.3,MacIntel,62.5,,,,,,,
,,,,,,,,,,,,,,,,,,,,,,37.22222222,40,20,75,47.22222222,7.222222222,2.888888889,-47.11111111,0.404444444,-0.295555556,1,0,0,0.35,submitButton,0.16,-0.312222222,0,0,0,0,33,33,24,1,40,69712,2,180,2022-02-10_09h23.17.854,orientation adjustment 2,2021.2.3,MacIntel,62.5,,,,,,,
,,,,,,,,,,,,,,,,,,,,,,20.55555556,-54,20,75,-50.44444444,3.555555556,1.422222222,-142.5777778,0.342222222,-0.294444444,1,0,0,0.184,submitButton,0.036666667,-0.283333333,0,0,0,0,34,34,38,1,54,69712,2,180,2022-02-10_09h23.17.854,orientation adjustment 2,2021.2.3,MacIntel,62.5,,,,,,,
,,,,,,,,,,,,,,,,,,,,,,72.77777778,-21,20,75,135.7777778,23.22222222,15.09444444,-95.90555556,0.224444444,-0.298888889,1,0,0,0.101,submitButton,-0.028888889,-0.307777778,0,0,0,0,35,35,5,1,21,69712,2,180,2022-02-10_09h23.17.854,orientation adjustment 2,2021.2.3,MacIntel,62.5,,,,,,,
,,,,,,,,,,,,,,,,,,,,,,-41.66666667,17,20,75,-138.6666667,24.33333333,15.81666667,-88.81666667,0.391111111,-0.3,1,0,0,1.8,submitButton,-0.244444444,-0.386666667,0,0,0,0,36,36,1,1,17,69712,2,180,2022-02-10_09h23.17.854,orientation adjustment 2,2021.2.3,MacIntel,62.5,,,,,,,
,,,,,,,,,,,,,,,,,,,,,,-36.11111111,-44,20,75,-124.1111111,80.11111111,64.08888889,-198.0888889,0.388888889,-0.312222222,1,0,0,0.283,submitButton,-0.206666667,-0.405555556,0,0,0,0,37,37,28,1,44,69712,2,180,2022-02-10_09h23.17.854,orientation adjustment 2,2021.2.3,MacIntel,62.5,,,,,,,
,,,,,,,,,,,,,,,,,,,,,,21.66666667,39,20,75,45.66666667,6.666666667,2.666666667,-48.33333333,-0.157777778,-0.407777778,1,0,0,1.1,submitButton,0.306666667,-0.314444444,0,0,0,0,38,38,23,1,39,69712,2,180,2022-02-10_09h23.17.854,orientation adjustment 2,2021.2.3,MacIntel,62.5,,,,,,,
,,,,,,,,,,,,,,,,,,,,,,-33.33333333,-36,20,75,-37.33333333,1.333333333,0.533333333,-126.5333333,-0.202222222,-0.394444444,1,0,0,0.966,submitButton,0.141111111,-0.316666667,0,0,0,0,39,39,20,1,36,69712,2,180,2022-02-10_09h23.17.854,orientation adjustment 2,2021.2.3,MacIntel,62.5,,,,,,,
,,,,,,,,,,,,,,,,,,,,,,70.55555556,-43,20,75,-44.44444444,1.444444444,0.577777778,-133.5777778,0.398888889,-0.295555556,1,0,0,0.034,submitButton,-0.185555556,-0.386666667,0,0,0,0,40,40,27,1,43,69712,2,180,2022-02-10_09h23.17.854,orientation adjustment 2,2021.2.3,MacIntel,62.5,,,,,,,
,,,,,,,,,,,,,,,,,,,,,,-30,37,20,75,41,4,1.6,-51.4,0.203333333,-0.292222222,1,0,0,0.066,submitButton,-0.244444444,-0.364444444,0,0,0,0,41,41,21,1,37,69712,2,180,2022-02-10_09h23.17.854,orientation adjustment 2,2021.2.3,MacIntel,62.5,,,,,,,
,,,,,,,,,,,,,,,,,,,,,,60,-34,20,75,-26,8,3.2,-120.8,-0.204444444,-0.42,1,0,0,1.766,submitButton,-0.204444444,-0.42,0,0,0,0,42,42,18,1,34,69712,2,180,2022-02-10_09h23.17.854,orientation adjustment 2,2021.2.3,MacIntel,62.5,,,,,,,
,,,,,,,,,,,,,,,,,,,,,,-30,-74,20,75,-71,3,1.2,-162.8,0.244444444,-0.304444444,1,0,0,0.183,submitButton,-0.012222222,-0.358888889,0,0,0,0,43,43,58,1,74,69712,2,180,2022-02-10_09h23.17.854,orientation adjustment 2,2021.2.3,MacIntel,62.5,,,,,,,
,,,,,,,,,,,,,,,,,,,,,,-51.66666667,-70,20,75,-64.66666667,5.333333333,2.133333333,-157.8666667,-0.221111111,-0.405555556,1,0,0,1.483,submitButton,0.187777778,-0.4,1,0,0,0,44,44,54,1,70,69712,2,180,2022-02-10_09h23.17.854,orientation adjustment 2,2021.2.3,MacIntel,62.5,pause_continueButton,,,,,,
,,,,,,,,,,,,,,,,,,,,,,61.11111111,52,20,75,58.11111111,6.111111111,2.444444444,-35.55555556,0.45,-0.312222222,1,0,0,1.316,submitButton,0.293333333,-0.28,0,0,0,0,45,45,36,1,52,69712,2,180,2022-02-10_09h23.17.854,orientation adjustment 2,2021.2.3,MacIntel,62.5,,,,,,,
,,,,,,,,,,,,,,,,,,,,,,-41.66666667,-50,20,75,-63.66666667,13.66666667,5.466666667,-145.4666667,-0.215555556,-0.382222222,1,0,0,0.633,submitButton,0.228888889,-0.372222222,0,0,0,0,46,46,34,1,50,69712,2,180,2022-02-10_09h23.17.854,orientation adjustment 2,2021.2.3,MacIntel,62.5,,,,,,,
,,,,,,,,,,,,,,,,,,,,,,-23.88888889,67,20,75,63.11111111,3.888888889,1.555555556,-24.55555556,0.222222222,-0.293333333,1,0,0,0.15,submitButton,0.281111111,-0.287777778,0,0,0,0,47,47,51,1,67,69712,2,180,2022-02-10_09h23.17.854,orientation adjustment 2,2021.2.3,MacIntel,62.5,,,,,,,
,,,,,,,,,,,,,,,,,,,,,,-56.66666667,59,20,75,55.33333333,3.666666667,1.466666667,-32.46666667,0.198888889,-0.306666667,1,0,0,0.466,submitButton,0.097777778,-0.318888889,0,0,0,0,48,48,43,1,59,69712,2,180,2022-02-10_09h23.17.854,orientation adjustment 2,2021.2.3,MacIntel,62.5,,,,,,,
,,,,,,,,,,,,,,,,,,,,,,-43.88888889,33,20,75,33.11111111,0.111111111,0.044444444,-56.95555556,0.352222222,-0.285555556,1,0,0,0.516,submitButton,-0.325555556,-0.411111111,0,0,0,0,49,49,17,1,33,69712,2,180,2022-02-10_09h23.17.854,orientation adjustment 2,2021.2.3,MacIntel,62.5,,,,,,,
,,,,,,,,,,,,,,,,,,,,,,-25,73,20,75,64,9,3.6,-20.6,0.218888889,-0.285555556,1,0,0,0.267,submitButton,-0.244444444,-0.385555556,0,0,0,0,50,50,57,1,73,69712,2,180,2022-02-10_09h23.17.854,orientation adjustment 2,2021.2.3,MacIntel,62.5,,,,,,,
,,,,,,,,,,,,,,,,,,,,,,66.66666667,-53,20,75,117.6666667,9.333333333,3.733333333,-139.2666667,0.192222222,-0.306666667,1,0,0,1.349,submitButton,0.182222222,-0.325555556,0,0,0,0,51,51,37,1,53,69712,2,180,2022-02-10_09h23.17.854,orientation adjustment 2,2021.2.3,MacIntel,62.5,,,,,,,
,,,,,,,,,,,,,,,,,,,,,,-43.88888889,30,20,75,-139.8888889,10.11111111,4.044444444,-64.04444444,-0.204444444,-0.381111111,1,0,0,2.366,submitButton,0.013333333,-0.346666667,0,0,0,0,52,52,14,1,30,69712,2,180,2022-02-10_09h23.17.854,orientation adjustment 2,2021.2.3,MacIntel,62.5,,,,,,,
,,,,,,,,,,,,,,,,,,,,,,65.55555556,42,20,75,42.55555556,0.555555556,0.222222222,-47.77777778,-0.177777778,-0.396666667,1,0,0,1.766,submitButton,-0.005555556,-0.377777778,0,0,0,0,53,53,26,1,42,69712,2,180,2022-02-10_09h23.17.854,orientation adjustment 2,2021.2.3,MacIntel,62.5,,,,,,,
,,,,,,,,,,,,,,,,,,,,,,22.77777778,19,20,75,27.77777778,8.777777778,3.511111111,-67.48888889,-0.132222222,-0.385555556,1,0,0,1.017,submitButton,0.102222222,-0.317777778,0,0,0,0,54,54,3,1,19,69712,2,180,2022-02-10_09h23.17.854,orientation adjustment 2,2021.2.3,MacIntel,62.5,,,,,,,
,,,,,,,,,,,,,,,,,,,,,,65,41,20,75,48,7,2.8,-46.2,-0.26,-0.371111111,1,0,0,1.366,submitButton,0.302222222,-0.348888889,0,0,0,0,55,55,25,1,41,69712,2,180,2022-02-10_09h23.17.854,orientation adjustment 2,2021.2.3,MacIntel,62.5,,,,,,,
,,,,,,,,,,,,,,,,,,,,,,70.55555556,65,20,75,61.55555556,3.444444444,1.377777778,-26.37777778,-0.233333333,-0.414444444,1,0,0,1.733,submitButton,0.373333333,-0.291111111,0,0,0,0,56,56,49,1,65,69712,2,180,2022-02-10_09h23.17.854,orientation adjustment 2,2021.2.3,MacIntel,62.5,,,,,,,
,,,,,,,,,,,,,,,,,,,,,,37.22222222,-25,20,75,-39.77777778,14.77777778,5.911111111,-120.9111111,0.43,-0.284444444,1,0,0,0.833,submitButton,0.062222222,-0.357777778,0,0,0,0,57,57,9,1,25,69712,2,180,2022-02-10_09h23.17.854,orientation adjustment 2,2021.2.3,MacIntel,62.5,,,,,,,
,,,,,,,,,,,,,,,,,,,,,,64.44444444,-23,20,75,-25.55555556,2.555555556,1.022222222,-114.0222222,-0.394444444,-0.406666667,1,0,0,1.683,submitButton,-0.393333333,-0.404444444,0,0,0,0,58,58,7,1,23,69712,2,180,2022-02-10_09h23.17.854,orientation adjustment 2,2021.2.3,MacIntel,62.5,,,,,,,
,,,,,,,,,,,,,,,,,,,,,,-21.66666667,38,20,75,35.33333333,2.666666667,1.066666667,-53.06666667,0.194444444,-0.29,1,0,0,0.083,submitButton,0.373333333,-0.395555556,1,0,0,0,59,59,22,1,38,69712,2,180,2022-02-10_09h23.17.854,orientation adjustment 2,2021.2.3,MacIntel,62.5,pause_continueButton,,,,,,
,,,,,,,,,,,,,,,,,,,,,,52.22222222,36,20,75,41.22222222,5.222222222,2.088888889,-51.91111111,0.405555556,-0.29,1,0,0,0.8,submitButton,-0.177777778,-0.392222222,0,0,0,1,0,60,20,1,36,69712,2,180,2022-02-10_09h23.17.854,orientation adjustment 2,2021.2.3,MacIntel,62.5,,,,,,,
,,,,,,,,,,,,,,,,,,,,,,24.44444444,-22,20,75,-26.55555556,4.555555556,1.822222222,-113.8222222,0.425555556,-0.285555556,1,0,0,0.282,submitButton,-0.128888889,-0.404444444,0,0,0,1,1,61,6,1,22,69712,2,180,2022-02-10_09h23.17.854,orientation adjustment 2,2021.2.3,MacIntel,62.5,,,,,,,
,,,,,,,,,,,,,,,,,,,,,,30,-69,20,75,-62,7,2.8,-156.2,0.453333333,-0.312222222,1,0,0,0.467,submitButton,-0.204444444,-0.407777778,0,0,0,1,2,62,53,1,69,69712,2,180,2022-02-10_09h23.17.854,orientation adjustment 2,2021.2.3,MacIntel,62.5,,,,,,,
,,,,,,,,,,,,,,,,,,,,,,-58.33333333,47,20,75,43.66666667,3.333333333,1.333333333,-44.33333333,0.194444444,-0.295555556,1,0,0,0.117,submitButton,-0.21,-0.413333333,0,0,0,1,3,63,31,1,47,69712,2,180,2022-02-10_09h23.17.854,orientation adjustment 2,2021.2.3,MacIntel,62.5,,,,,,,
,,,,,,,,,,,,,,,,,,,,,,68.33333333,61,20,75,227.3333333,13.66666667,5.466666667,-23.53333333,-0.247777778,-0.392222222,1,0,0,1.949,submitButton,-0.247777778,-0.393333333,0,0,0,1,4,64,45,1,61,69712,2,180,2022-02-10_09h23.17.854,orientation adjustment 2,2021.2.3,MacIntel,62.5,,,,,,,
,,,,,,,,,,,,,,,,,,,,,,-66.66666667,-16,20,75,-28.66666667,12.66666667,5.066666667,-111.0666667,0.235555556,-0.271111111,1,0,0,0.317,submitButton,0.117777778,-0.272222222,0,0,0,1,5,65,0,1,16,69712,2,180,2022-02-10_09h23.17.854,orientation adjustment 2,2021.2.3,MacIntel,62.5,,,,,,,
,,,,,,,,,,,,,,,,,,,,,,-42.77777778,-17,20,75,-20.77777778,3.777777778,1.511111111,-108.5111111,-0.191111111,-0.411111111,1,0,0,1.115,submitButton,0.174444444,-0.276666667,0,0,0,1,6,66,1,1,17,69712,2,180,2022-02-10_09h23.17.854,orientation adjustment 2,2021.2.3,MacIntel,62.5,,,,,,,
,,,,,,,,,,,,,,,,,,,,,,-26.66666667,-64,20,75,-55.66666667,8.333333333,3.333333333,-150.6666667,-0.131111111,-0.383333333,1,0,0,1.333,submitButton,0.193333333,-0.287777778,0,0,0,1,7,67,48,1,64,69712,2,180,2022-02-10_09h23.17.854,orientation adjustment 2,2021.2.3,MacIntel,62.5,,,,,,,
,,,,,,,,,,,,,,,,,,,,,,23.33333333,-60,20,75,-59.66666667,0.333333333,0.133333333,-149.8666667,0.17,-0.317777778,1,0,0,1.201,submitButton,-0.283333333,-0.408888889,0,0,0,1,8,68,44,1,60,69712,2,180,2022-02-10_09h23.17.854,orientation adjustment 2,2021.2.3,MacIntel,62.5,,,,,,,
,,,,,,,,,,,,,,,,,,,,,,35,53,20,75,64,11,4.4,-32.6,0.396666667,-0.317777778,1,0,0,0.5,submitButton,0.217777778,-0.224444444,0,0,0,1,9,69,37,1,53,69712,2,180,2022-02-10_09h23.17.854,orientation adjustment 2,2021.2.3,MacIntel,62.5,,,,,,,
,,,,,,,,,,,,,,,,,,,,,,-62.22222222,-43,20,75,-57.22222222,14.22222222,5.688888889,-138.6888889,-0.131111111,-0.386666667,1,0,0,1.017,submitButton,-0.131111111,-0.385555556,0,0,0,1,10,70,27,1,43,69712,2,180,2022-02-10_09h23.17.854,orientation adjustment 2,2021.2.3,MacIntel,62.5,,,,,,,
,,,,,,,,,,,,,,,,,,,,,,73.88888889,-18,20,75,132.8888889,29.11111111,18.92222222,-89.07777778,0.243333333,-0.305555556,1,0,0,1.1,submitButton,-0.134444444,-0.405555556,0,0,0,1,11,71,2,1,18,69712,2,180,2022-02-10_09h23.17.854,orientation adjustment 2,2021.2.3,MacIntel,62.5,,,,,,,
,,,,,,,,,,,,,,,,,,,,,,50,40,20,75,52,12,4.8,-45.2,-0.202222222,-0.38,1,0,0,0.932,submitButton,-0.106666667,-0.338888889,0,0,0,1,12,72,24,1,40,69712,2,180,2022-02-10_09h23.17.854,orientation adjustment 2,2021.2.3,MacIntel,62.5,,,,,,,
,,,,,,,,,,,,,,,,,,,,,,21.66666667,-68,20,75,-68.33333333,0.333333333,0.133333333,-158.1333333,0.39,-0.291111111,1,0,0,0.749,submitButton,-0.222222222,-0.423333333,0,0,0,1,13,73,52,1,68,69712,2,180,2022-02-10_09h23.17.854,orientation adjustment 2,2021.2.3,MacIntel,62.5,,,,,,,
,,,,,,,,,,,,,,,,,,,,,,23.33333333,-45,20,75,-42.66666667,2.333333333,0.933333333,-134.0666667,0.177777778,-0.326666667,1,0,0,0.05,submitButton,0.388888889,-0.382222222,1,0,0,1,14,74,29,1,45,69712,2,180,2022-02-10_09h23.17.854,orientation adjustment 2,2021.2.3,MacIntel,62.5,pause_continueButton,,,,,,
,,,,,,,,,,,,,,,,,,,,,,-36.11111111,-73,20,75,-68.11111111,4.888888889,1.955555556,-161.0444444,0.2,-0.275555556,1,0,0,0.667,submitButton,-0.136666667,-0.393333333,0,0,0,1,15,75,57,1,73,69712,2,180,2022-02-10_09h23.17.854,orientation adjustment 2,2021.2.3,MacIntel,62.5,,,,,,,
,,,,,,,,,,,,,,,,,,,,,,-23.88888889,46,20,75,38.11111111,7.888888889,3.155555556,-47.15555556,0.21,-0.292222222,1,0,0,0.2,submitButton,0.132222222,-0.306666667,0,0,0,1,16,76,30,1,46,69712,2,180,2022-02-10_09h23.17.854,orientation adjustment 2,2021.2.3,MacIntel,62.5,,,,,,,
,,,,,,,,,,,,,,,,,,,,,,38.33333333,-62,20,75,-59.66666667,2.333333333,0.933333333,-151.0666667,0.384444444,-0.326666667,1,0,0,2.033,submitButton,0.306666667,-0.287777778,0,0,0,1,17,77,46,1,62,69712,2,180,2022-02-10_09h23.17.854,orientation adjustment 2,2021.2.3,MacIntel,62.5,,,,,,,
,,,,,,,,,,,,,,,,,,,,,,-35,23,20,75,32,9,3.6,-63.4,0.2,-0.274444444,1,0,0,0.95,submitButton,0.132222222,-0.304444444,0,0,0,1,18,78,7,1,23,69712,2,180,2022-02-10_09h23.17.854,orientation adjustment 2,2021.2.3,MacIntel,62.5,,,,,,,
,,,,,,,,,,,,,,,,,,,,,,23.88888889,56,20,75,50.88888889,5.111111111,2.044444444,-36.04444444,0.384444444,-0.333333333,1,0,0,0.3,submitButton,-0.022222222,-0.321111111,0,0,0,1,19,79,40,1,56,69712,2,180,2022-02-10_09h23.17.854,orientation adjustment 2,2021.2.3,MacIntel,62.5,,,,,,,
,,,,,,,,,,,,,,,,,,,,,,21.11111111,25,20,75,30.11111111,5.111111111,2.044444444,-62.95555556,-0.201111111,-0.391111111,1,0,0,0.749,submitButton,0.263333333,-0.272222222,0,0,0,1,20,80,9,1,25,69712,2,180,2022-02-10_09h23.17.854,orientation adjustment 2,2021.2.3,MacIntel,62.5,,,,,,,
,,,,,,,,,,,,,,,,,,,,,,42.22222222,-58,20,75,-40.77777778,17.22222222,11.19444444,-136.8055556,0.24,-0.31,1,0,0,1.333,submitButton,0.202222222,-0.322222222,0,0,0,1,21,81,42,1,58,69712,2,180,2022-02-10_09h23.17.854,orientation adjustment 2,2021.2.3,MacIntel,62.5,,,,,,,
,,,,,,,,,,,,,,,,,,,,,,-53.33333333,52,20,75,-110.3333333,17.66666667,11.48333333,-49.48333333,-0.337777778,-0.397777778,1,0,0,2.466,submitButton,0.046666667,-0.262222222,0,0,0,1,22,82,36,1,52,69712,2,180,2022-02-10_09h23.17.854,orientation adjustment 2,2021.2.3,MacIntel,62.5,,,,,,,
,,,,,,,,,,,,,,,,,,,,,,-62.77777778,-51,20,75,-246.7777778,15.77777778,10.25555556,-151.2555556,0.396666667,-0.293333333,1,0,0,0.383,submitButton,0.038888889,-0.305555556,0,0,0,1,23,83,35,1,51,69712,2,180,2022-02-10_09h23.17.854,orientation adjustment 2,2021.2.3,MacIntel,62.5,,,,,,,
,,,,,,,,,,,,,,,,,,,,,,-21.11111111,49,20,75,51.88888889,2.888888889,1.155555556,-39.84444444,0.198888889,-0.295555556,1,0,0,0.05,submitButton,0.121111111,-0.305555556,0,0,0,1,24,84,33,1,49,69712,2,180,2022-02-10_09h23.17.854,orientation adjustment 2,2021.2.3,MacIntel,62.5,,,,,,,
,,,,,,,,,,,,,,,,,,,,,,-20.55555556,57,20,75,48.44444444,8.555555556,3.422222222,-36.42222222,-0.175555556,-0.402222222,1,0,0,0.816,submitButton,0.116666667,-0.284444444,0,0,0,1,25,85,41,1,57,69712,2,180,2022-02-10_09h23.17.854,orientation adjustment 2,2021.2.3,MacIntel,62.5,,,,,,,
,,,,,,,,,,,,,,,,,,,,,,-72.77777778,-33,20,75,-209.7777778,3.222222222,1.288888889,-124.2888889,0.4,-0.302222222,1,0,0,1.999,submitButton,0.155555556,-0.341111111,0,0,0,1,26,86,17,1,33,69712,2,180,2022-02-10_09h23.17.854,orientation adjustment 2,2021.2.3,MacIntel,62.5,,,,,,,
,,,,,,,,,,,,,,,,,,,,,,-36.11111111,66,20,75,61.88888889,4.111111111,1.644444444,-25.64444444,0.202222222,-0.291111111,1,0,0,0.184,submitButton,-0.21,-0.412222222,0,0,0,1,27,87,50,1,66,69712,2,180,2022-02-10_09h23.17.854,orientation adjustment 2,2021.2.3,MacIntel,62.5,,,,,,,
,,,,,,,,,,,,,,,,,,,,,,45,54,20,75,68,14,5.6,-30.4,0.372222222,-0.313333333,1,0,0,0.083,submitButton,0.132222222,-0.306666667,0,0,0,1,28,88,38,1,54,69712,2,180,2022-02-10_09h23.17.854,orientation adjustment 2,2021.2.3,MacIntel,62.5,,,,,,,
,,,,,,,,,,,,,,,,,,,,,,73.33333333,38,20,75,49.33333333,11.33333333,4.533333333,-47.46666667,-0.12,-0.386666667,1,0,0,1.65,submitButton,0.224444444,-0.404444444,1,0,0,1,29,89,22,1,38,69712,2,180,2022-02-10_09h23.17.854,orientation adjustment 2,2021.2.3,MacIntel,62.5,pause_continueButton,,,,,,
,,,,,,,,,,,,,,,,,,,,,,-49.44444444,-37,20,75,-44.44444444,7.444444444,2.977777778,-129.9777778,0.198888889,-0.294444444,1,0,0,1.35,submitButton,0.148888889,-0.274444444,0,0,0,1,30,90,21,1,37,69712,2,180,2022-02-10_09h23.17.854,orientation adjustment 2,2021.2.3,MacIntel,62.5,,,,,,,
,,,,,,,,,,,,,,,,,,,,,,-69.44444444,34,20,75,-149.4444444,3.444444444,1.377777778,-57.37777778,-0.274444444,-0.407777778,1,0,0,2.516,submitButton,0.265555556,-0.305555556,0,0,0,1,31,91,18,1,34,69712,2,180,2022-02-10_09h23.17.854,orientation adjustment 2,2021.2.3,MacIntel,62.5,,,,,,,
,,,,,,,,,,,,,,,,,,,,,,67.77777778,-55,20,75,-53.22222222,1.777777778,0.711111111,-144.2888889,0.413333333,-0.297777778,1,0,0,1.166,submitButton,0.081111111,-0.341111111,0,0,0,1,32,92,39,1,55,69712,2,180,2022-02-10_09h23.17.854,orientation adjustment 2,2021.2.3,MacIntel,62.5,,,,,,,
,,,,,,,,,,,,,,,,,,,,,,-41.11111111,74,20,75,59.88888889,14.11111111,5.644444444,-21.64444444,0.194444444,-0.312222222,1,0,0,0.267,submitButton,-0.038888889,-0.32,0,0,0,1,33,93,58,1,74,69712,2,180,2022-02-10_09h23.17.854,orientation adjustment 2,2021.2.3,MacIntel,62.5,,,,,,,
,,,,,,,,,,,,,,,,,,,,,,67.22222222,-65,20,75,-63.77777778,1.222222222,0.488888889,-154.5111111,0.192222222,-0.303333333,1,0,0,0.15,submitButton,-0.17,-0.384444444,0,0,0,1,34,94,49,1,65,69712,2,180,2022-02-10_09h23.17.854,orientation adjustment 2,2021.2.3,MacIntel,62.5,,,,,,,
,,,,,,,,,,,,,,,,,,,,,,42.22222222,-67,20,75,-72.77777778,5.777777778,2.311111111,-159.3111111,0.395555556,-0.311111111,1,0,0,0.782,submitButton,0.317777778,-0.298888889,0,0,0,1,35,95,51,1,67,69712,2,180,2022-02-10_09h23.17.854,orientation adjustment 2,2021.2.3,MacIntel,62.5,,,,,,,
,,,,,,,,,,,,,,,,,,,,,,43.88888889,-32,20,75,-32.11111111,0.111111111,0.044444444,-122.0444444,0.385555556,-0.314444444,1,0,0,1.001,submitButton,0.156666667,-0.281111111,0,0,0,1,36,96,16,1,32,69712,2,180,2022-02-10_09h23.17.854,orientation adjustment 2,2021.2.3,MacIntel,62.5,,,,,,,
,,,,,,,,,,,,,,,,,,,,,,36.66666667,75,20,75,79.66666667,4.666666667,1.866666667,-13.13333333,-0.318888889,-0.406666667,1,0,0,1.734,submitButton,-0.32,-0.403333333,0,0,0,1,37,97,59,1,75,69712,2,180,2022-02-10_09h23.17.854,orientation adjustment 2,2021.2.3,MacIntel,62.5,,,,,,,
,,,,,,,,,,,,,,,,,,,,,,38.88888889,24,20,75,31.88888889,7.888888889,3.155555556,-62.84444444,0.411111111,-0.325555556,1,0,0,0.15,submitButton,0.171111111,-0.305555556,0,0,0,1,38,98,8,1,24,69712,2,180,2022-02-10_09h23.17.854,orientation adjustment 2,2021.2.3,MacIntel,62.5,,,,,,,
,,,,,,,,,,,,,,,,,,,,,,67.22222222,-39,20,75,-28.77777778,10.22222222,4.088888889,-124.9111111,0.233333333,-0.3,1,0,0,1.383,submitButton,0.328888889,-0.355555556,0,0,0,1,39,99,23,1,39,69712,2,180,2022-02-10_09h23.17.854,orientation adjustment 2,2021.2.3,MacIntel,62.5,,,,,,,
,,,,,,,,,,,,,,,,,,,,,,-71.11111111,35,20,75,20.88888889,14.11111111,5.644444444,-60.64444444,0.241111111,-0.3,1,0,0,0.2,submitButton,0.236666667,-0.3,0,0,0,1,40,100,19,1,35,69712,2,180,2022-02-10_09h23.17.854,orientation adjustment 2,2021.2.3,MacIntel,62.5,,,,,,,
,,,,,,,,,,,,,,,,,,,,,,55.55555556,-72,20,75,-59.44444444,12.55555556,5.022222222,-156.9777778,0.385555556,-0.306666667,1,0,0,1.267,submitButton,0.17,-0.275555556,0,0,0,1,41,101,56,1,72,69712,2,180,2022-02-10_09h23.17.854,orientation adjustment 2,2021.2.3,MacIntel,62.5,,,,,,,
,,,,,,,,,,,,,,,,,,,,,,-37.22222222,20,20,75,23.77777778,3.777777778,1.511111111,-68.48888889,0.38,-0.325555556,1,0,0,1.249,submitButton,0.211111111,-0.278888889,0,0,0,1,42,102,4,1,20,69712,2,180,2022-02-10_09h23.17.854,orientation adjustment 2,2021.2.3,MacIntel,62.5,,,,,,,
,,,,,,,,,,,,,,,,,,,,,,55.55555556,26,20,75,25.55555556,0.444444444,0.177777778,-64.17777778,0.375555556,-0.312222222,1,0,0,0.699,submitButton,0.253333333,-0.294444444,0,0,0,1,43,103,10,1,26,69712,2,180,2022-02-10_09h23.17.854,orientation adjustment 2,2021.2.3,MacIntel,62.5,,,,,,,
,,,,,,,,,,,,,,,,,,,,,,-72.22222222,-30,20,75,-212.2222222,2.222222222,0.888888889,-120.8888889,0.172222222,-0.281111111,1,0,0,1.8,submitButton,0.282222222,-0.403333333,1,0,0,1,44,104,14,1,30,69712,2,180,2022-02-10_09h23.17.854,orientation adjustment 2,2021.2.3,MacIntel,62.5,pause_continueButton,,,,,,
,,,,,,,,,,,,,,,,,,,,,,-55.55555556,70,20,75,45.44444444,24.55555556,15.96111111,-35.96111111,0.221111111,-0.287777778,1,0,0,0.767,submitButton,0.173333333,-0.212222222,0,0,0,1,45,105,54,1,70,69712,2,180,2022-02-10_09h23.17.854,orientation adjustment 2,2021.2.3,MacIntel,62.5,,,,,,,
,,,,,,,,,,,,,,,,,,,,,,56.66666667,63,20,75,66.66666667,3.666666667,1.466666667,-25.53333333,0.42,-0.274444444,1,0,0,0.216,submitButton,0.168888889,-0.291111111,0,0,0,1,46,106,47,1,63,69712,2,180,2022-02-10_09h23.17.854,orientation adjustment 2,2021.2.3,MacIntel,62.5,,,,,,,
,,,,,,,,,,,,,,,,,,,,,,75,-48,20,75,127,5,2,-136,0.222222222,-0.316666667,1,0,0,1.5,submitButton,0.058888889,-0.358888889,0,0,0,1,47,107,32,1,48,69712,2,180,2022-02-10_09h23.17.854,orientation adjustment 2,2021.2.3,MacIntel,62.5,,,,,,,
,,,,,,,,,,,,,,,,,,,,,,-56.11111111,-50,20,75,-47.11111111,2.888888889,1.155555556,-138.8444444,-0.188888889,-0.393333333,1,0,0,1.333,submitButton,0.311111111,-0.258888889,0,0,0,1,48,108,34,1,50,69712,2,180,2022-02-10_09h23.17.854,orientation adjustment 2,2021.2.3,MacIntel,62.5,,,,,,,
,,,,,,,,,,,,,,,,,,,,,,-68.33333333,-71,20,75,-246.3333333,4.666666667,1.866666667,-162.8666667,-0.207777778,-0.405555556,1,0,0,2.4,submitButton,0.091111111,-0.327777778,0,0,0,1,49,109,55,1,71,69712,2,180,2022-02-10_09h23.17.854,orientation adjustment 2,2021.2.3,MacIntel,62.5,,,,,,,
,,,,,,,,,,,,,,,,,,,,,,61.11111111,41,20,75,53.11111111,12.11111111,4.844444444,-44.15555556,-0.25,-0.418888889,1,0,0,1.367,submitButton,-0.062222222,-0.33,0,0,0,1,50,110,25,1,41,69712,2,180,2022-02-10_09h23.17.854,orientation adjustment 2,2021.2.3,MacIntel,62.5,,,,,,,
,,,,,,,,,,,,,,,,,,,,,,-23.33333333,-28,20,75,-49.33333333,21.33333333,13.86666667,-131.8666667,0.381111111,-0.31,1,0,0,0.533,submitButton,0.145555556,-0.266666667,0,0,0,1,51,111,12,1,28,69712,2,180,2022-02-10_09h23.17.854,orientation adjustment 2,2021.2.3,MacIntel,62.5,,,,,,,
,,,,,,,,,,,,,,,,,,,,,,-68.33333333,-31,20,75,-31.33333333,0.333333333,0.133333333,-121.1333333,0.216666667,-0.3,1,0,0,1.784,submitButton,0.073333333,-0.206666667,0,0,0,1,52,112,15,1,31,69712,2,180,2022-02-10_09h23.17.854,orientation adjustment 2,2021.2.3,MacIntel,62.5,,,,,,,
,,,,,,,,,,,,,,,,,,,,,,-57.22222222,-19,20,75,-24.22222222,5.222222222,2.088888889,-111.0888889,-0.16,-0.388888889,1,0,0,1.367,submitButton,-0.118888889,-0.393333333,0,0,0,1,53,113,3,1,19,69712,2,180,2022-02-10_09h23.17.854,orientation adjustment 2,2021.2.3,MacIntel,62.5,,,,,,,
,,,,,,,,,,,,,,,,,,,,,,-37.77777778,-27,20,75,-46.77777778,19.77777778,12.85555556,-129.8555556,0.196666667,-0.325555556,1,0,0,0.15,submitButton,0.073333333,-0.331111111,0,0,0,1,54,114,11,1,27,69712,2,180,2022-02-10_09h23.17.854,orientation adjustment 2,2021.2.3,MacIntel,62.5,,,,,,,
,,,,,,,,,,,,,,,,,,,,,,-60.55555556,59,20,75,-116.5555556,4.444444444,1.777777778,-32.77777778,-0.208888889,-0.398888889,1,0,0,2.416,submitButton,-0.208888889,-0.398888889,0,0,0,1,55,115,43,1,59,69712,2,180,2022-02-10_09h23.17.854,orientation adjustment 2,2021.2.3,MacIntel,62.5,,,,,,,
,,,,,,,,,,,,,,,,,,,,,,-70,-21,20,75,-35,14,5.6,-116.6,0.193333333,-0.318888889,1,0,0,0.834,submitButton,0.178888889,-0.272222222,0,0,0,1,56,116,5,1,21,69712,2,180,2022-02-10_09h23.17.854,orientation adjustment 2,2021.2.3,MacIntel,62.5,,,,,,,
,,,,,,,,,,,,,,,,,,,,,,36.11111111,-42,20,75,-39.88888889,2.111111111,0.844444444,-131.1555556,0.242222222,-0.293333333,1,0,0,1.284,submitButton,0.231111111,-0.318888889,0,0,0,1,57,117,26,1,42,69712,2,180,2022-02-10_09h23.17.854,orientation adjustment 2,2021.2.3,MacIntel,62.5,,,,,,,
,,,,,,,,,,,,,,,,,,,,,,-71.66666667,-29,20,75,-43.66666667,14.66666667,5.866666667,-124.8666667,-0.225555556,-0.403333333,1,0,0,1.317,submitButton,0.231111111,-0.328888889,0,0,0,1,58,118,13,1,29,69712,2,180,2022-02-10_09h23.17.854,orientation adjustment 2,2021.2.3,MacIntel,62.5,,,,,,,
,,,,,,,,,,,,,,,,,,,,,,-54.44444444,44,20,75,-137.4444444,1.444444444,0.577777778,-46.57777778,0.386666667,-0.298888889,1,0,0,1.7,submitButton,0.278888889,-0.416666667,1,0,0,1,59,119,28,1,44,69712,2,180,2022-02-10_09h23.17.854,orientation adjustment 2,2021.2.3,MacIntel,62.5,pause_continueButton,,,,,,
,,,,,,,,,,,,,,,,,,,,,,-66.11111111,64,20,75,53.88888889,10.11111111,4.044444444,-30.04444444,-0.184444444,-0.372222222,1,0,0,1.55,submitButton,0.152222222,-0.264444444,0,0,0,2,0,120,48,1,64,69712,2,180,2022-02-10_09h23.17.854,orientation adjustment 2,2021.2.3,MacIntel,62.5,,,,,,,
,,,,,,,,,,,,,,,,,,,,,,-75,-41,20,75,-224,3,1.2,-132.2,0.37,-0.298888889,1,0,0,2.033,submitButton,0.245555556,-0.346666667,0,0,0,2,1,121,25,1,41,69712,2,180,2022-02-10_09h23.17.854,orientation adjustment 2,2021.2.3,MacIntel,62.5,,,,,,,
,,,,,,,,,,,,,,,,,,,,,,32.22222222,-73,20,75,-72.77777778,0.222222222,0.088888889,-162.9111111,-0.195555556,-0.392222222,1,0,0,1,submitButton,0.183333333,-0.266666667,0,0,0,2,2,122,57,1,73,69712,2,180,2022-02-10_09h23.17.854,orientation adjustment 2,2021.2.3,MacIntel,62.5,,,,,,,
,,,,,,,,,,,,,,,,,,,,,,53.33333333,-56,20,75,-56.66666667,0.666666667,0.266666667,-146.2666667,0.408888889,-0.307777778,1,0,0,1.484,submitButton,0.336666667,-0.311111111,0,0,0,2,3,123,40,1,56,69712,2,180,2022-02-10_09h23.17.854,orientation adjustment 2,2021.2.3,MacIntel,62.5,,,,,,,
,,,,,,,,,,,,,,,,,,,,,,-70.55555556,-22,20,75,-44.55555556,22.55555556,14.66111111,-126.6611111,-0.127777778,-0.383333333,1,0,0,1.05,submitButton,0.282222222,-0.257777778,0,0,0,2,4,124,6,1,22,69712,2,180,2022-02-10_09h23.17.854,orientation adjustment 2,2021.2.3,MacIntel,62.5,,,,,,,
,,,,,,,,,,,,,,,,,,,,,,44.44444444,38,20,75,43.44444444,5.444444444,2.177777778,-49.82222222,0.402222222,-0.3,1,0,0,0.366,submitButton,0.201111111,-0.314444444,0,0,0,2,5,125,22,1,38,69712,2,180,2022-02-10_09h23.17.854,orientation adjustment 2,2021.2.3,MacIntel,62.5,,,,,,,
,,,,,,,,,,,,,,,,,,,,,,-26.66666667,-39,20,75,-41.66666667,2.666666667,1.066666667,-130.0666667,0.18,-0.295555556,1,0,0,0.983,submitButton,0.164444444,-0.336666667,0,0,0,2,6,126,23,1,39,69712,2,180,2022-02-10_09h23.17.854,orientation adjustment 2,2021.2.3,MacIntel,62.5,,,,,,,
,,,,,,,,,,,,,,,,,,,,,,25.55555556,50,20,75,51.55555556,1.555555556,0.622222222,-39.37777778,0.4,-0.316666667,1,0,0,0.284,submitButton,0.143333333,-0.278888889,0,0,0,2,7,127,34,1,50,69712,2,180,2022-02-10_09h23.17.854,orientation adjustment 2,2021.2.3,MacIntel,62.5,,,,,,,
,,,,,,,,,,,,,,,,,,,,,,-21.11111111,-45,20,75,-43.11111111,1.888888889,0.755555556,-134.2444444,0.216666667,-0.302222222,1,0,0,0.217,submitButton,0.132222222,-0.301111111,0,0,0,2,8,128,29,1,45,69712,2,180,2022-02-10_09h23.17.854,orientation adjustment 2,2021.2.3,MacIntel,62.5,,,,,,,
,,,,,,,,,,,,,,,,,,,,,,-63.33333333,17,20,75,29.66666667,12.66666667,5.066666667,-67.93333333,0.197777778,-0.293333333,1,0,0,0.1,submitButton,0.132222222,-0.246666667,0,0,0,2,9,129,1,1,17,69712,2,180,2022-02-10_09h23.17.854,orientation adjustment 2,2021.2.3,MacIntel,62.5,,,,,,,
,,,,,,,,,,,,,,,,,,,,,,-53.88888889,61,20,75,63.11111111,2.111111111,0.844444444,-28.15555556,0.245555556,-0.293333333,1,0,0,0.783,submitButton,0.062222222,-0.323333333,0,0,0,2,10,130,45,1,61,69712,2,180,2022-02-10_09h23.17.854,orientation adjustment 2,2021.2.3,MacIntel,62.5,,,,,,,
,,,,,,,,,,,,,,,,,,,,,,-41.11111111,-29,20,75,-42.11111111,13.11111111,5.244444444,-124.2444444,-0.144444444,-0.39,1,0,0,0.817,submitButton,0.157777778,-0.321111111,0,0,0,2,11,131,13,1,29,69712,2,180,2022-02-10_09h23.17.854,orientation adjustment 2,2021.2.3,MacIntel,62.5,,,,,,,
,,,,,,,,,,,,,,,,,,,,,,26.66666667,-75,20,75,-76.33333333,1.333333333,0.533333333,-165.5333333,0.384444444,-0.282222222,1,0,0,0.317,submitButton,0.071111111,-0.336666667,0,0,0,2,12,132,59,1,75,69712,2,180,2022-02-10_09h23.17.854,orientation adjustment 2,2021.2.3,MacIntel,62.5,,,,,,,
,,,,,,,,,,,,,,,,,,,,,,65.55555556,-60,20,75,-62.44444444,2.444444444,0.977777778,-150.9777778,-0.191111111,-0.39,1,0,0,1.8,submitButton,0.096666667,-0.314444444,0,0,0,2,13,133,44,1,60,69712,2,180,2022-02-10_09h23.17.854,orientation adjustment 2,2021.2.3,MacIntel,62.5,,,,,,,
,,,,,,,,,,,,,,,,,,,,,,68.88888889,-66,20,75,-70.11111111,4.111111111,1.644444444,-157.6444444,-0.234444444,-0.417777778,1,0,0,2.133,submitButton,0.305555556,-0.394444444,1,0,0,2,14,134,50,1,66,69712,2,180,2022-02-10_09h23.17.854,orientation adjustment 2,2021.2.3,MacIntel,62.5,pause_continueButton,,,,,,
,,,,,,,,,,,,,,,,,,,,,,-41.11111111,-74,20,75,-71.11111111,2.888888889,1.155555556,-162.8444444,0.253333333,-0.303333333,1,0,0,1.033,submitButton,0.004444444,-0.311111111,0,0,0,2,15,135,58,1,74,69712,2,180,2022-02-10_09h23.17.854,orientation adjustment 2,2021.2.3,MacIntel,62.5,,,,,,,
,,,,,,,,,,,,,,,,,,,,,,36.11111111,43,20,75,46.11111111,3.111111111,1.244444444,-45.75555556,0.405555556,-0.308888889,1,0,0,0.251,submitButton,0.111111111,-0.315555556,0,0,0,2,16,136,27,1,43,69712,2,180,2022-02-10_09h23.17.854,orientation adjustment 2,2021.2.3,MacIntel,62.5,,,,,,,
,,,,,,,,,,,,,,,,,,,,,,55.55555556,-30,20,75,-27.44444444,2.555555556,1.022222222,-118.9777778,-0.171111111,-0.381111111,1,0,0,1.066,submitButton,0.223333333,-0.25,0,0,0,2,17,137,14,1,30,69712,2,180,2022-02-10_09h23.17.854,orientation adjustment 2,2021.2.3,MacIntel,62.5,,,,,,,
,,,,,,,,,,,,,,,,,,,,,,-41.11111111,-25,20,75,-22.11111111,2.888888889,1.155555556,-113.8444444,0.204444444,-0.3,1,0,0,0.05,submitButton,0.163333333,-0.327777778,0,0,0,2,18,138,9,1,25,69712,2,180,2022-02-10_09h23.17.854,orientation adjustment 2,2021.2.3,MacIntel,62.5,,,,,,,
,,,,,,,,,,,,,,,,,,,,,,52.22222222,18,20,75,20.22222222,2.222222222,0.888888889,-71.11111111,0.363333333,-0.296666667,1,0,0,0.517,submitButton,0.148888889,-0.363333333,0,0,0,2,19,139,2,1,18,69712,2,180,2022-02-10_09h23.17.854,orientation adjustment 2,2021.2.3,MacIntel,62.5,,,,,,,
,,,,,,,,,,,,,,,,,,,,,,-30.55555556,57,20,75,48.44444444,8.555555556,3.422222222,-36.42222222,0.162222222,-0.312222222,1,0,0,0.617,submitButton,0.297777778,-0.227777778,0,0,0,2,20,140,41,1,57,69712,2,180,2022-02-10_09h23.17.854,orientation adjustment 2,2021.2.3,MacIntel,62.5,,,,,,,
,,,,,,,,,,,,,,,,,,,,,,47.77777778,-49,20,75,120.7777778,10.22222222,4.088888889,-134.9111111,0.224444444,-0.301111111,1,0,0,1.683,submitButton,0.227777778,-0.322222222,0,0,0,2,21,141,33,1,49,69712,2,180,2022-02-10_09h23.17.854,orientation adjustment 2,2021.2.3,MacIntel,62.5,,,,,,,
,,,,,,,,,,,,,,,,,,,,,,-24.44444444,40,20,75,38.55555556,1.444444444,0.577777778,-50.57777778,0.186666667,-0.283333333,1,0,0,0.15,submitButton,0.046666667,-0.265555556,0,0,0,2,22,142,24,1,40,69712,2,180,2022-02-10_09h23.17.854,orientation adjustment 2,2021.2.3,MacIntel,62.5,,,,,,,
,,,,,,,,,,,,,,,,,,,,,,-58.33333333,-65,20,75,-66.33333333,1.333333333,0.533333333,-155.5333333,-0.16,-0.383333333,1,0,0,1.666,submitButton,0.048888889,-0.372222222,0,0,0,2,23,143,49,1,65,69712,2,180,2022-02-10_09h23.17.854,orientation adjustment 2,2021.2.3,MacIntel,62.5,,,,,,,
,,,,,,,,,,,,,,,,,,,,,,-36.11111111,-62,20,75,-62.11111111,0.111111111,0.044444444,-152.0444444,-0.127777778,-0.398888889,1,0,0,0.983,submitButton,0.146666667,-0.345555556,0,0,0,2,24,144,46,1,62,69712,2,180,2022-02-10_09h23.17.854,orientation adjustment 2,2021.2.3,MacIntel,62.5,,,,,,,
,,,,,,,,,,,,,,,,,,,,,,31.66666667,34,20,75,47.66666667,13.66666667,5.466666667,-50.53333333,-0.274444444,-0.392222222,1,0,0,0.717,submitButton,0.262222222,-0.263333333,0,0,0,2,25,145,18,1,34,69712,2,180,2022-02-10_09h23.17.854,orientation adjustment 2,2021.2.3,MacIntel,62.5,,,,,,,
,,,,,,,,,,,,,,,,,,,,,,-26.66666667,63,20,75,58.33333333,4.666666667,1.866666667,-28.86666667,-0.167777778,-0.406666667,1,0,0,0.849,submitButton,0.206666667,-0.253333333,0,0,0,2,26,146,47,1,63,69712,2,180,2022-02-10_09h23.17.854,orientation adjustment 2,2021.2.3,MacIntel,62.5,,,,,,,
,,,,,,,,,,,,,,,,,,,,,,32.77777778,67,20,75,64.77777778,2.222222222,0.888888889,-23.88888889,-0.262222222,-0.403333333,1,0,0,1.234,submitButton,0.171111111,-0.233333333,0,0,0,2,27,147,51,1,67,69712,2,180,2022-02-10_09h23.17.854,orientation adjustment 2,2021.2.3,MacIntel,62.5,,,,,,,
,,,,,,,,,,,,,,,,,,,,,,29.44444444,-72,20,75,-72.55555556,0.555555556,0.222222222,-162.2222222,0.413333333,-0.282222222,1,0,0,0.65,submitButton,0.204444444,-0.231111111,0,0,0,2,28,148,56,1,72,69712,2,180,2022-02-10_09h23.17.854,orientation adjustment 2,2021.2.3,MacIntel,62.5,,,,,,,
,,,,,,,,,,,,,,,,,,,,,,-44.44444444,42,20,75,49.55555556,7.555555556,3.022222222,-44.97777778,0.422222222,-0.285555556,1,0,0,0.45,submitButton,0.33,-0.394444444,1,0,0,2,29,149,26,1,42,69712,2,180,2022-02-10_09h23.17.854,orientation adjustment 2,2021.2.3,MacIntel,62.5,pause_continueButton,,,,,,
,,,,,,,,,,,,,,,,,,,,,,24.44444444,-46,20,75,-57.55555556,11.55555556,4.622222222,-140.6222222,0.454444444,-0.325555556,1,0,0,0.083,submitButton,0.336666667,-0.253333333,0,0,0,2,30,150,30,1,46,69712,2,180,2022-02-10_09h23.17.854,orientation adjustment 2,2021.2.3,MacIntel,62.5,,,,,,,
,,,,,,,,,,,,,,,,,,,,,,-63.33333333,-51,20,75,-54.33333333,3.333333333,1.333333333,-142.3333333,-0.275555556,-0.414444444,1,0,0,1.217,submitButton,0.222222222,-0.27,0,0,0,2,31,151,35,1,51,69712,2,180,2022-02-10_09h23.17.854,orientation adjustment 2,2021.2.3,MacIntel,62.5,,,,,,,
,,,,,,,,,,,,,,,,,,,,,,68.33333333,-24,20,75,-19.66666667,4.333333333,1.733333333,-112.2666667,0.407777778,-0.306666667,1,0,0,0.033,submitButton,0.218888889,-0.284444444,0,0,0,2,32,152,8,1,24,69712,2,180,2022-02-10_09h23.17.854,orientation adjustment 2,2021.2.3,MacIntel,62.5,,,,,,,
,,,,,,,,,,,,,,,,,,,,,,-63.33333333,48,20,75,-135.3333333,3.333333333,1.333333333,-43.33333333,0.354444444,-0.282222222,1,0,0,2.366,submitButton,0.291111111,-0.23,0,0,0,2,33,153,32,1,48,69712,2,180,2022-02-10_09h23.17.854,orientation adjustment 2,2021.2.3,MacIntel,62.5,,,,,,,
,,,,,,,,,,,,,,,,,,,,,,-53.33333333,16,20,75,22.66666667,6.666666667,2.666666667,-71.33333333,0.194444444,-0.308888889,1,0,0,0.5,submitButton,0.205555556,-0.253333333,0,0,0,2,34,154,0,1,16,69712,2,180,2022-02-10_09h23.17.854,orientation adjustment 2,2021.2.3,MacIntel,62.5,,,,,,,
,,,,,,,,,,,,,,,,,,,,,,62.77777778,-19,20,75,-23.22222222,4.222222222,1.688888889,-110.6888889,0.396666667,-0.29,1,0,0,0.884,submitButton,0.272222222,-0.297777778,0,0,0,2,35,155,3,1,19,69712,2,180,2022-02-10_09h23.17.854,orientation adjustment 2,2021.2.3,MacIntel,62.5,,,,,,,
,,,,,,,,,,,,,,,,,,,,,,-22.22222222,-71,20,75,-79.22222222,8.222222222,3.288888889,-164.2888889,0.338888889,-0.295555556,1,0,0,0.883,submitButton,0.18,-0.288888889,0,0,0,2,36,156,55,1,71,69712,2,180,2022-02-10_09h23.17.854,orientation adjustment 2,2021.2.3,MacIntel,62.5,,,,,,,
,,,,,,,,,,,,,,,,,,,,,,34.44444444,-35,20,75,-38.55555556,3.555555556,1.422222222,-126.4222222,0.46,-0.288888889,1,0,0,0.9,submitButton,0.223333333,-0.277777778,0,0,0,2,37,157,19,1,35,69712,2,180,2022-02-10_09h23.17.854,orientation adjustment 2,2021.2.3,MacIntel,62.5,,,,,,,
,,,,,,,,,,,,,,,,,,,,,,47.77777778,-31,20,75,-32.22222222,1.222222222,0.488888889,-121.4888889,-0.154444444,-0.388888889,1,0,0,1.45,submitButton,0.236666667,-0.28,0,0,0,2,38,158,15,1,31,69712,2,180,2022-02-10_09h23.17.854,orientation adjustment 2,2021.2.3,MacIntel,62.5,,,,,,,
,,,,,,,,,,,,,,,,,,,,,,-51.11111111,-44,20,75,-41.11111111,2.888888889,1.155555556,-132.8444444,0.214444444,-0.29,1,0,0,1.183,submitButton,0.27,-0.375555556,0,0,0,2,39,159,28,1,44,69712,2,180,2022-02-10_09h23.17.854,orientation adjustment 2,2021.2.3,MacIntel,62.5,,,,,,,
,,,,,,,,,,,,,,,,,,,,,,27.22222222,21,20,75,26.22222222,5.222222222,2.088888889,-66.91111111,-0.136666667,-0.382222222,1,0,0,0.867,submitButton,0.088888889,-0.323333333,0,0,0,2,40,160,5,1,21,69712,2,180,2022-02-10_09h23.17.854,orientation adjustment 2,2021.2.3,MacIntel,62.5,,,,,,,
,,,,,,,,,,,,,,,,,,,,,,-45,-33,20,75,-44,11,4.4,-127.4,-0.163333333,-0.397777778,1,0,0,1.083,submitButton,0.173333333,-0.311111111,0,0,0,2,41,161,17,1,33,69712,2,180,2022-02-10_09h23.17.854,orientation adjustment 2,2021.2.3,MacIntel,62.5,,,,,,,
,,,,,,,,,,,,,,,,,,,,,,-35.55555556,37,20,75,35.44444444,1.555555556,0.622222222,-53.62222222,0.122222222,-0.301111111,1,0,0,0.2,submitButton,0.24,-0.31,0,0,0,2,42,162,21,1,37,69712,2,180,2022-02-10_09h23.17.854,orientation adjustment 2,2021.2.3,MacIntel,62.5,,,,,,,
,,,,,,,,,,,,,,,,,,,,,,69.44444444,28,20,75,36.44444444,8.444444444,3.377777778,-58.62222222,0.392222222,-0.315555556,1,0,0,0.117,submitButton,0.334444444,-0.312222222,0,0,0,2,43,163,12,1,28,69712,2,180,2022-02-10_09h23.17.854,orientation adjustment 2,2021.2.3,MacIntel,62.5,,,,,,,
,,,,,,,,,,,,,,,,,,,,,,59.44444444,36,20,75,29.44444444,6.555555556,2.622222222,-56.62222222,0.402222222,-0.295555556,1,0,0,0.983,submitButton,0.302222222,-0.4,1,0,0,2,44,164,20,1,36,69712,2,180,2022-02-10_09h23.17.854,orientation adjustment 2,2021.2.3,MacIntel,62.5,pause_continueButton,,,,,,
,,,,,,,,,,,,,,,,,,,,,,-53.33333333,55,20,75,55.66666667,0.666666667,0.266666667,-34.73333333,0.24,-0.283333333,1,0,0,0.35,submitButton,0.01,-0.344444444,0,0,0,2,45,165,39,1,55,69712,2,180,2022-02-10_09h23.17.854,orientation adjustment 2,2021.2.3,MacIntel,62.5,,,,,,,
,,,,,,,,,,,,,,,,,,,,,,-67.77777778,54,20,75,56.22222222,2.222222222,0.888888889,-35.11111111,-0.235555556,-0.418888889,1,0,0,1.4,submitButton,0.118888889,-0.366666667,0,0,0,2,46,166,38,1,54,69712,2,180,2022-02-10_09h23.17.854,orientation adjustment 2,2021.2.3,MacIntel,62.5,,,,,,,
,,,,,,,,,,,,,,,,,,,,,,-53.88888889,47,20,75,53.11111111,6.111111111,2.444444444,-40.55555556,0.222222222,-0.286666667,1,0,0,1.166,submitButton,0.114444444,-0.283333333,0,0,0,2,47,167,31,1,47,69712,2,180,2022-02-10_09h23.17.854,orientation adjustment 2,2021.2.3,MacIntel,62.5,,,,,,,
,,,,,,,,,,,,,,,,,,,,,,38.33333333,23,20,75,32.33333333,9.333333333,3.733333333,-63.26666667,0.401111111,-0.296666667,1,0,0,1.533,submitButton,0.395555556,-0.195555556,0,0,0,2,48,168,7,1,23,69712,2,180,2022-02-10_09h23.17.854,orientation adjustment 2,2021.2.3,MacIntel,62.5,,,,,,,
,,,,,,,,,,,,,,,,,,,,,,63.33333333,-70,20,75,-67.66666667,2.333333333,0.933333333,-159.0666667,0.426666667,-0.295555556,1,0,0,1.983,submitButton,0.257777778,-0.305555556,0,0,0,2,49,169,54,1,70,69712,2,180,2022-02-10_09h23.17.854,orientation adjustment 2,2021.2.3,MacIntel,62.5,,,,,,,
,,,,,,,,,,,,,,,,,,,,,,-27.22222222,53,20,75,47.77777778,5.222222222,2.088888889,-39.08888889,0.186666667,-0.304444444,1,0,0,1.067,submitButton,0.02,-0.282222222,0,0,0,2,50,170,37,1,53,69712,2,180,2022-02-10_09h23.17.854,orientation adjustment 2,2021.2.3,MacIntel,62.5,,,,,,,
,,,,,,,,,,,,,,,,,,,,,,-68.33333333,-32,20,75,-40.33333333,8.333333333,3.333333333,-125.3333333,0.216666667,-0.255555556,1,0,0,0.3,submitButton,0.106666667,-0.311111111,0,0,0,2,51,171,16,1,32,69712,2,180,2022-02-10_09h23.17.854,orientation adjustment 2,2021.2.3,MacIntel,62.5,,,,,,,
,,,,,,,,,,,,,,,,,,,,,,41.66666667,-58,20,75,-65.33333333,7.333333333,2.933333333,-150.9333333,0.382222222,-0.311111111,1,0,0,0.934,submitButton,0.171111111,-0.333333333,0,0,0,2,52,172,42,1,58,69712,2,180,2022-02-10_09h23.17.854,orientation adjustment 2,2021.2.3,MacIntel,62.5,,,,,,,
,,,,,,,,,,,,,,,,,,,,,,-27.22222222,27,20,75,34.77777778,7.777777778,3.111111111,-59.88888889,0.202222222,-0.3,1,0,0,0.65,submitButton,-0.233333333,-0.396666667,0,0,0,2,53,173,11,1,27,69712,2,180,2022-02-10_09h23.17.854,orientation adjustment 2,2021.2.3,MacIntel,62.5,,,,,,,
,,,,,,,,,,,,,,,,,,,,,,66.11111111,52,20,75,227.1111111,4.888888889,1.955555556,-36.04444444,0.398888889,-0.315555556,1,0,0,2.983,submitButton,0.1,-0.315555556,0,0,0,2,54,174,36,1,52,69712,2,180,2022-02-10_09h23.17.854,orientation adjustment 2,2021.2.3,MacIntel,62.5,,,,,,,
,,,,,,,,,,,,,,,,,,,,,,20.55555556,69,20,75,53.55555556,15.44444444,10.03888889,-31.03888889,0.407777778,-0.3,1,0,0,0.184,submitButton,0.175555556,-0.275555556,0,0,0,2,55,175,53,1,69,69712,2,180,2022-02-10_09h23.17.854,orientation adjustment 2,2021.2.3,MacIntel,62.5,,,,,,,
,,,,,,,,,,,,,,,,,,,,,,73.88888889,-26,20,75,-29.11111111,3.111111111,1.244444444,-117.2444444,0.41,-0.28,1,0,0,1.367,submitButton,0.154444444,-0.3,0,0,0,2,56,176,10,1,26,69712,2,180,2022-02-10_09h23.17.854,orientation adjustment 2,2021.2.3,MacIntel,62.5,,,,,,,
,,,,,,,,,,,,,,,,,,,,,,-67.77777778,20,20,75,32.22222222,12.22222222,4.888888889,-65.11111111,0.207777778,-0.281111111,1,0,0,0.25,submitButton,0.2,-0.282222222,0,0,0,2,57,177,4,1,20,69712,2,180,2022-02-10_09h23.17.854,orientation adjustment 2,2021.2.3,MacIntel,62.5,,,,,,,
,,,,,,,,,,,,,,,,,,,,,,-54.44444444,68,20,75,57.55555556,10.44444444,4.177777778,-26.17777778,0.171111111,-0.291111111,1,0,0,0.533,submitButton,0.072222222,-0.291111111,0,0,0,2,58,178,52,1,68,69712,2,180,2022-02-10_09h23.17.854,orientation adjustment 2,2021.2.3,MacIntel,62.5,,,,,,,
,,,,,,,,,,,,,,,,,,,,,,-38.88888889,59,20,75,54.11111111,4.888888889,1.955555556,-32.95555556,0.191111111,-0.316666667,1,0,0,1.183,submitButton,-0.187777778,-0.413333333,0,0,0,2,59,179,43,1,59,69712,2,180,2022-02-10_09h23.17.854,orientation adjustment 2,2021.2.3,MacIntel,62.5,,,,,,,
,,,,,,,,,,,,,,,,,,,,,,,,,,,,,,,,,,,,,,,,,,,,,,,,69712,2,180,2022-02-10_09h23.17.854,orientation adjustment 2,2021.2.3,MacIntel,62.5,,0.311111111,-0.404444444,1,0,0,EndButtonTxt
