consentMouse1.x,consentMouse1.y,consentMouse1.leftButton,consentMouse1.midButton,consentMouse1.rightButton,consentMouse1.clicked_name,consent_Mouse.x,consent_Mouse.y,consent_Mouse.leftButton,consent_Mouse.midButton,consent_Mouse.rightButton,consent_Mouse.clicked_name,startMouse.x,startMouse.y,startMouse.leftButton,startMouse.midButton,startMouse.rightButton,startMouse_2.x,startMouse_2.y,startMouse_2.leftButton,startMouse_2.midButton,startMouse_2.rightButton,start_distance,fixedOri,minimalDistance,maxOri,this_ori,accuracy,presented_accuracy,presented_this_ori,submitMouse.x,submitMouse.y,submitMouse.leftButton,submitMouse.midButton,submitMouse.rightButton,submitMouse.time,submitMouse.clicked_name,pauseMouse.x,pauseMouse.y,pauseMouse.leftButton,pauseMouse.midButton,pauseMouse.rightButton,trials.thisRepN,trials.thisTrialN,trials.thisN,trials.thisIndex,trials.ran,startOri,participant,condition,nTrials,date,expName,psychopyVersion,OS,frameRate,pauseMouse.clicked_name,EndButtonMouse.x,EndButtonMouse.y,EndButtonMouse.leftButton,EndButtonMouse.midButton,EndButtonMouse.rightButton,EndButtonMouse.clicked_name
0.338749011,-0.403186242,1,0,0,consent_button1,0.378048023,-0.398973703,1,0,0,consent_button,0.378048023,-0.398973703,1,0,0,-0.091088295,-0.358249267,1,0,0,-71.66666667,57,20,75,-0.666666667,57.66666667,46.13333333,-79.13333333,0.209509293,-0.310836395,1,0,0,4.408,submitButton,-0.316955646,-0.400678237,0,0,0,0,0,0,41,1,57,70516,2,180,2022-02-15_11h59.11.365,orientation adjustment 2,2021.2.3,Linux x86_64,59.99880002,,,,,,,
,,,,,,,,,,,,,,,,,,,,,,-33.88888889,-75,20,75,-67.88888889,7.111111111,2.844444444,-162.1555556,0.211812973,-0.288573901,1,0,0,3.316,submitButton,-0.372068048,-0.419986327,0,0,0,0,1,1,59,1,75,70516,2,180,2022-02-15_11h59.11.365,orientation adjustment 2,2021.2.3,Linux x86_64,59.99880002,,,,,,,
,,,,,,,,,,,,,,,,,,,,,,-60.55555556,-63,20,75,-226.5555556,16.44444444,10.68888889,-163.6888889,0.391431967,-0.288479328,1,0,0,1.0126,submitButton,-0.210975011,-0.414034764,0,0,0,0,2,2,47,1,63,70516,2,180,2022-02-15_11h59.11.365,orientation adjustment 2,2021.2.3,Linux x86_64,59.99880002,,,,,,,
,,,,,,,,,,,,,,,,,,,,,,-73.88888889,-26,20,75,-50.88888889,24.88888889,16.17777778,-132.1777778,0.200062911,-0.281387568,1,0,0,0.416,submitButton,-0.28426373,-0.405698697,0,0,0,0,3,3,10,1,26,70516,2,180,2022-02-15_11h59.11.365,orientation adjustment 2,2021.2.3,Linux x86_64,59.99880002,,,,,,,
,,,,,,,,,,,,,,,,,,,,,,-54.44444444,21,20,75,27.55555556,6.555555556,2.622222222,-66.37777778,0.221794446,-0.301338514,1,0,0,0.2011,submitButton,0.050410906,-0.35147198,0,0,0,0,4,4,5,1,21,70516,2,180,2022-02-15_11h59.11.365,orientation adjustment 2,2021.2.3,Linux x86_64,59.99880002,,,,,,,
,,,,,,,,,,,,,,,,,,,,,,62.22222222,33,20,75,213.2222222,0.222222222,0.088888889,-56.91111111,0.184440772,-0.309578896,1,0,0,0.1159,submitButton,-0.316705704,-0.387250344,0,0,0,0,5,5,17,1,33,70516,2,180,2022-02-15_11h59.11.365,orientation adjustment 2,2021.2.3,Linux x86_64,59.99880002,,,,,,,
,,,,,,,,,,,,,,,,,,,,,,62.22222222,-40,20,75,-32.77777778,7.222222222,2.888888889,-127.1111111,0.428973754,-0.284441074,1,0,0,0.5731,submitButton,-0.316191117,-0.417832772,0,0,0,0,6,6,24,1,40,70516,2,180,2022-02-15_11h59.11.365,orientation adjustment 2,2021.2.3,Linux x86_64,59.99880002,,,,,,,
,,,,,,,,,,,,,,,,,,,,,,58.33333333,-62,20,75,-52.66666667,9.333333333,3.733333333,-148.2666667,0.408766031,-0.298808495,1,0,0,0.1169,submitButton,-0.277437369,-0.391475439,0,0,0,0,7,7,46,1,62,70516,2,180,2022-02-15_11h59.11.365,orientation adjustment 2,2021.2.3,Linux x86_64,59.99880002,,,,,,,
,,,,,,,,,,,,,,,,,,,,,,-41.11111111,38,20,75,38.88888889,0.888888889,0.355555556,-51.64444444,0.188708385,-0.29505229,1,0,0,0.2327,submitButton,-0.197791179,-0.41118137,0,0,0,0,8,8,22,1,38,70516,2,180,2022-02-15_11h59.11.365,orientation adjustment 2,2021.2.3,Linux x86_64,59.99880002,,,,,,,
,,,,,,,,,,,,,,,,,,,,,,-41.66666667,-18,20,75,-189.6666667,8.333333333,3.333333333,-111.3333333,0.418680032,-0.283076922,1,0,0,0.2159,submitButton,-0.140467644,-0.404045105,0,0,0,0,9,9,2,1,18,70516,2,180,2022-02-15_11h59.11.365,orientation adjustment 2,2021.2.3,Linux x86_64,59.99880002,,,,,,,
,,,,,,,,,,,,,,,,,,,,,,-21.11111111,-17,20,75,-21.11111111,4.111111111,1.644444444,-108.6444444,0.198962053,-0.304270426,1,0,0,0.7839,submitButton,-0.16130662,-0.399806261,0,0,0,0,10,10,1,1,17,70516,2,180,2022-02-15_11h59.11.365,orientation adjustment 2,2021.2.3,Linux x86_64,59.99880002,,,,,,,
,,,,,,,,,,,,,,,,,,,,,,63.88888889,-19,20,75,-14.11111111,4.888888889,1.955555556,-107.0444444,0.393904448,-0.298890988,1,0,0,0.4006,submitButton,-0.271609783,-0.41420579,0,0,0,0,11,11,3,1,19,70516,2,180,2022-02-15_11h59.11.365,orientation adjustment 2,2021.2.3,Linux x86_64,59.99880002,,,,,,,
,,,,,,,,,,,,,,,,,,,,,,60,-48,20,75,-36,12,4.8,-133.2,0.395405372,-0.279932102,1,0,0,0.0834,submitButton,-0.237604777,-0.397086143,0,0,0,0,12,12,32,1,48,70516,2,180,2022-02-15_11h59.11.365,orientation adjustment 2,2021.2.3,Linux x86_64,59.99880002,,,,,,,
,,,,,,,,,,,,,,,,,,,,,,-53.33333333,65,20,75,59.66666667,5.333333333,2.133333333,-27.13333333,0.180172682,-0.28362457,1,0,0,0.1672,submitButton,-0.247065306,-0.399204016,0,0,0,0,13,13,49,1,65,70516,2,180,2022-02-15_11h59.11.365,orientation adjustment 2,2021.2.3,Linux x86_64,59.99880002,,,,,,,
,,,,,,,,,,,,,,,,,,,,,,-24.44444444,73,20,75,78.55555556,5.555555556,2.222222222,-14.77777778,0.19975853,-0.291962624,1,0,0,0.1164,submitButton,0.31750687,-0.42108345,1,0,0,0,14,14,57,1,73,70516,2,180,2022-02-15_11h59.11.365,orientation adjustment 2,2021.2.3,Linux x86_64,59.99880002,pause_continueButton,,,,,,
,,,,,,,,,,,,,,,,,,,,,,22.77777778,74,20,75,83.77777778,9.777777778,3.911111111,-12.08888889,0.376918395,-0.294100602,1,0,0,0.8334,submitButton,-0.287383199,-0.400155624,0,0,0,0,15,15,58,1,74,70516,2,180,2022-02-15_11h59.11.365,orientation adjustment 2,2021.2.3,Linux x86_64,59.99880002,,,,,,,
,,,,,,,,,,,,,,,,,,,,,,75,-70,20,75,-51,19,12.35,-147.65,0.394908508,-0.291749875,1,0,0,0.567,submitButton,-0.220993598,-0.405205329,0,0,0,0,16,16,54,1,70,70516,2,180,2022-02-15_11h59.11.365,orientation adjustment 2,2021.2.3,Linux x86_64,59.99880002,,,,,,,
,,,,,,,,,,,,,,,,,,,,,,61.66666667,-32,20,75,-25.33333333,6.666666667,2.666666667,-119.3333333,0.387109041,-0.281591256,1,0,0,0.3834,submitButton,-0.178401709,-0.416054249,0,0,0,0,17,17,16,1,32,70516,2,180,2022-02-15_11h59.11.365,orientation adjustment 2,2021.2.3,Linux x86_64,59.99880002,,,,,,,
,,,,,,,,,,,,,,,,,,,,,,-70,67,20,75,49,18,11.7,-34.7,0.177256505,-0.316934347,1,0,0,0.1161,submitButton,-0.275818904,-0.404615402,0,0,0,0,18,18,51,1,67,70516,2,180,2022-02-15_11h59.11.365,orientation adjustment 2,2021.2.3,Linux x86_64,59.99880002,,,,,,,
,,,,,,,,,,,,,,,,,,,,,,-20.55555556,53,20,75,60.44444444,7.444444444,2.977777778,-34.02222222,0.198047876,-0.304033995,1,0,0,0.3339,submitButton,-0.350215475,-0.41801556,0,0,0,0,19,19,37,1,53,70516,2,180,2022-02-15_11h59.11.365,orientation adjustment 2,2021.2.3,Linux x86_64,59.99880002,,,,,,,
,,,,,,,,,,,,,,,,,,,,,,-72.77777778,-46,20,75,-222.7777778,3.222222222,1.288888889,-137.2888889,0.384845098,-0.285107931,1,0,0,0.2495,submitButton,-0.269810081,-0.395803928,0,0,0,0,20,20,30,1,46,70516,2,180,2022-02-15_11h59.11.365,orientation adjustment 2,2021.2.3,Linux x86_64,59.99880002,,,,,,,
,,,,,,,,,,,,,,,,,,,,,,-34.44444444,64,20,75,56.55555556,7.444444444,2.977777778,-28.97777778,0.179182847,-0.30412221,1,0,0,0.6998,submitButton,-0.191019773,-0.399218639,0,0,0,0,21,21,48,1,64,70516,2,180,2022-02-15_11h59.11.365,orientation adjustment 2,2021.2.3,Linux x86_64,59.99880002,,,,,,,
,,,,,,,,,,,,,,,,,,,,,,57.77777778,31,20,75,37.77777778,6.777777778,2.711111111,-56.28888889,0.38741382,-0.300972462,1,0,0,0.3497,submitButton,-0.121587038,-0.404307524,0,0,0,0,22,22,15,1,31,70516,2,180,2022-02-15_11h59.11.365,orientation adjustment 2,2021.2.3,Linux x86_64,59.99880002,,,,,,,
,,,,,,,,,,,,,,,,,,,,,,-32.77777778,-42,20,75,-214.7777778,7.222222222,2.888888889,-134.8888889,0.395811001,-0.288414717,1,0,0,0.2676,submitButton,-0.286240021,-0.384807348,0,0,0,0,23,23,26,1,42,70516,2,180,2022-02-15_11h59.11.365,orientation adjustment 2,2021.2.3,Linux x86_64,59.99880002,,,,,,,
,,,,,,,,,,,,,,,,,,,,,,-47.22222222,51,20,75,40.77777778,10.22222222,4.088888889,-43.08888889,0.221803029,-0.282099168,1,0,0,0.2658,submitButton,-0.24203821,-0.411707719,0,0,0,0,24,24,35,1,51,70516,2,180,2022-02-15_11h59.11.365,orientation adjustment 2,2021.2.3,Linux x86_64,59.99880002,,,,,,,
,,,,,,,,,,,,,,,,,,,,,,-55.55555556,20,20,75,-154.5555556,5.444444444,2.177777778,-72.17777778,0.380964597,-0.292709112,1,0,0,0.2497,submitButton,-0.144031843,-0.402833303,0,0,0,0,25,25,4,1,20,70516,2,180,2022-02-15_11h59.11.365,orientation adjustment 2,2021.2.3,Linux x86_64,59.99880002,,,,,,,
,,,,,,,,,,,,,,,,,,,,,,23.33333333,45,20,75,41.33333333,3.666666667,1.466666667,-46.46666667,0.412301302,-0.279156208,1,0,0,0.5831,submitButton,-0.225345969,-0.393390179,0,0,0,0,26,26,29,1,45,70516,2,180,2022-02-15_11h59.11.365,orientation adjustment 2,2021.2.3,Linux x86_64,59.99880002,,,,,,,
,,,,,,,,,,,,,,,,,,,,,,-67.22222222,60,20,75,45.77777778,14.22222222,5.688888889,-35.68888889,0.211880525,-0.29750824,1,0,0,1.0013,submitButton,-0.285642266,-0.39938887,0,0,0,0,27,27,44,1,60,70516,2,180,2022-02-15_11h59.11.365,orientation adjustment 2,2021.2.3,Linux x86_64,59.99880002,,,,,,,
,,,,,,,,,,,,,,,,,,,,,,56.11111111,-36,20,75,-41.88888889,5.888888889,2.355555556,-128.3555556,0.389359792,-0.281178395,1,0,0,0.6201,submitButton,-0.175924381,-0.390696208,0,0,0,0,28,28,20,1,36,70516,2,180,2022-02-15_11h59.11.365,orientation adjustment 2,2021.2.3,Linux x86_64,59.99880002,,,,,,,
,,,,,,,,,,,,,,,,,,,,,,-29.44444444,-27,20,75,-28.44444444,1.444444444,0.577777778,-117.5777778,0.196426709,-0.295865456,1,0,0,0.7318,submitButton,0.472853661,-0.391972939,1,0,0,0,29,29,11,1,27,70516,2,180,2022-02-15_11h59.11.365,orientation adjustment 2,2021.2.3,Linux x86_64,59.99880002,pause_continueButton,,,,,,
,,,,,,,,,,,,,,,,,,,,,,-42.22222222,39,20,75,34.77777778,4.222222222,1.688888889,-52.68888889,0.190452417,-0.303190629,1,0,0,0.1347,submitButton,-0.283875148,-0.401245435,0,0,0,0,30,30,23,1,39,70516,2,180,2022-02-15_11h59.11.365,orientation adjustment 2,2021.2.3,Linux x86_64,59.99880002,,,,,,,
,,,,,,,,,,,,,,,,,,,,,,29.44444444,-59,20,75,-64.55555556,5.555555556,2.222222222,-151.2222222,0.408883651,-0.321090937,1,0,0,0.1359,submitButton,-0.264309168,-0.403491735,0,0,0,0,31,31,43,1,59,70516,2,180,2022-02-15_11h59.11.365,orientation adjustment 2,2021.2.3,Linux x86_64,59.99880002,,,,,,,
,,,,,,,,,,,,,,,,,,,,,,63.88888889,-30,20,75,-34.11111111,4.111111111,1.644444444,-121.6444444,0.381319602,-0.305019538,1,0,0,0.1525,submitButton,-0.154983918,-0.389927149,0,0,0,0,32,32,14,1,30,70516,2,180,2022-02-15_11h59.11.365,orientation adjustment 2,2021.2.3,Linux x86_64,59.99880002,,,,,,,
,,,,,,,,,,,,,,,,,,,,,,42.22222222,-25,20,75,-29.77777778,4.777777778,1.911111111,-116.9111111,0.387433608,-0.282885313,1,0,0,0.3001,submitButton,-0.178203185,-0.411470811,0,0,0,0,33,33,9,1,25,70516,2,180,2022-02-15_11h59.11.365,orientation adjustment 2,2021.2.3,Linux x86_64,59.99880002,,,,,,,
,,,,,,,,,,,,,,,,,,,,,,58.33333333,68,20,75,219.3333333,28.66666667,18.63333333,-3.366666667,0.198878288,-0.293314934,1,0,0,0.4331,submitButton,0.04431963,-0.30435435,0,0,0,0,34,34,52,1,68,70516,2,180,2022-02-15_11h59.11.365,orientation adjustment 2,2021.2.3,Linux x86_64,59.99880002,,,,,,,
,,,,,,,,,,,,,,,,,,,,,,45,-43,20,75,-51,8,3.2,-136.2,0.375173728,-0.280495882,1,0,0,0.3511,submitButton,0.098508676,-0.349852244,0,0,0,0,35,35,27,1,43,70516,2,180,2022-02-15_11h59.11.365,orientation adjustment 2,2021.2.3,Linux x86_64,59.99880002,,,,,,,
,,,,,,,,,,,,,,,,,,,,,,51.66666667,69,20,75,217.6666667,31.33333333,25.06666667,4.066666667,0.166329304,-0.299457868,1,0,0,1.8693,submitButton,0.049494584,-0.312284311,0,0,0,0,36,36,53,1,69,70516,2,180,2022-02-15_11h59.11.365,orientation adjustment 2,2021.2.3,Linux x86_64,59.99880002,,,,,,,
,,,,,,,,,,,,,,,,,,,,,,40,66,20,75,50,16,10.4,-34.4,0.426789999,-0.28701361,1,0,0,1.1331,submitButton,-0.144473394,-0.413658778,0,0,0,0,37,37,50,1,66,70516,2,180,2022-02-15_11h59.11.365,orientation adjustment 2,2021.2.3,Linux x86_64,59.99880002,,,,,,,
,,,,,,,,,,,,,,,,,,,,,,-35.55555556,-35,20,75,-44.55555556,9.555555556,3.822222222,-128.8222222,0.227900028,-0.301805894,1,0,0,0.8494,submitButton,-0.252708912,-0.407899857,0,0,0,0,38,38,19,1,35,70516,2,180,2022-02-15_11h59.11.365,orientation adjustment 2,2021.2.3,Linux x86_64,59.99880002,,,,,,,
,,,,,,,,,,,,,,,,,,,,,,34.44444444,-58,20,75,-53.55555556,4.444444444,1.777777778,-146.2222222,0.388103167,-0.286733548,1,0,0,0.4491,submitButton,-0.170037826,-0.389695883,0,0,0,0,39,39,42,1,58,70516,2,180,2022-02-15_11h59.11.365,orientation adjustment 2,2021.2.3,Linux x86_64,59.99880002,,,,,,,
,,,,,,,,,,,,,,,,,,,,,,27.22222222,23,20,75,22.22222222,0.777777778,0.311111111,-67.31111111,0.411884785,-0.280834357,1,0,0,0.9325,submitButton,-0.140119314,-0.402065595,0,0,0,0,40,40,7,1,23,70516,2,180,2022-02-15_11h59.11.365,orientation adjustment 2,2021.2.3,Linux x86_64,59.99880002,,,,,,,
,,,,,,,,,,,,,,,,,,,,,,-29.44444444,49,20,75,43.55555556,5.444444444,2.177777778,-43.17777778,0.17841212,-0.285751025,1,0,0,0.2505,submitButton,-0.220941226,-0.406035344,0,0,0,0,41,41,33,1,49,70516,2,180,2022-02-15_11h59.11.365,orientation adjustment 2,2021.2.3,Linux x86_64,59.99880002,,,,,,,
,,,,,,,,,,,,,,,,,,,,,,48.88888889,22,20,75,32.88888889,10.88888889,4.355555556,-63.64444444,0.378183762,-0.27960372,1,0,0,0.4689,submitButton,-0.130664825,-0.389421145,0,0,0,0,42,42,6,1,22,70516,2,180,2022-02-15_11h59.11.365,orientation adjustment 2,2021.2.3,Linux x86_64,59.99880002,,,,,,,
,,,,,,,,,,,,,,,,,,,,,,-62.77777778,-44,20,75,-64.77777778,20.77777778,13.50555556,-147.5055556,-0.251998504,-0.386366844,1,0,0,1.7161,submitButton,-0.251998504,-0.386366844,0,0,0,0,43,43,28,1,44,70516,2,180,2022-02-15_11h59.11.365,orientation adjustment 2,2021.2.3,Linux x86_64,59.99880002,,,,,,,
,,,,,,,,,,,,,,,,,,,,,,25,-61,20,75,-63,2,0.8,-151.8,0.374632756,-0.297386249,1,0,0,0.0653,submitButton,0.506608486,-0.406858921,1,0,0,0,44,44,45,1,61,70516,2,180,2022-02-15_11h59.11.365,orientation adjustment 2,2021.2.3,Linux x86_64,59.99880002,pause_continueButton,,,,,,
,,,,,,,,,,,,,,,,,,,,,,67.77777778,41,20,75,204.7777778,16.22222222,10.54444444,-38.45555556,0.234320243,-0.305326462,1,0,0,0.3999,submitButton,0.323252837,-0.31913964,0,0,0,0,45,45,25,1,41,70516,2,180,2022-02-15_11h59.11.365,orientation adjustment 2,2021.2.3,Linux x86_64,59.99880002,,,,,,,
,,,,,,,,,,,,,,,,,,,,,,-31.66666667,-16,20,75,-25.66666667,9.666666667,3.866666667,-109.8666667,0.188025395,-0.30131499,1,0,0,0.3786,submitButton,0.034980694,-0.329365889,0,0,0,0,46,46,0,1,16,70516,2,180,2022-02-15_11h59.11.365,orientation adjustment 2,2021.2.3,Linux x86_64,59.99880002,,,,,,,
,,,,,,,,,,,,,,,,,,,,,,-51.66666667,-28,20,75,-33.66666667,5.666666667,2.266666667,-120.2666667,0.2135818,-0.290467739,1,0,0,1.1174,submitButton,-0.034156005,-0.377984524,0,0,0,0,47,47,12,1,28,70516,2,180,2022-02-15_11h59.11.365,orientation adjustment 2,2021.2.3,Linux x86_64,59.99880002,,,,,,,
,,,,,,,,,,,,,,,,,,,,,,56.11111111,-47,20,75,-33.88888889,13.11111111,5.244444444,-131.7555556,0.401423454,-0.281312227,1,0,0,0.3159,submitButton,-0.115373373,-0.390836,0,0,0,0,48,48,31,1,47,70516,2,180,2022-02-15_11h59.11.365,orientation adjustment 2,2021.2.3,Linux x86_64,59.99880002,,,,,,,
,,,,,,,,,,,,,,,,,,,,,,33.33333333,-34,20,75,-34.66666667,0.666666667,0.266666667,-124.2666667,0.414900223,-0.306831519,1,0,0,0.4998,submitButton,0.083501736,-0.339331547,0,0,0,0,49,49,18,1,34,70516,2,180,2022-02-15_11h59.11.365,orientation adjustment 2,2021.2.3,Linux x86_64,59.99880002,,,,,,,
,,,,,,,,,,,,,,,,,,,,,,-64.44444444,52,20,75,52.55555556,0.555555556,0.222222222,-37.77777778,0.178938945,-0.292806466,1,0,0,0.0685,submitButton,-0.356547991,-0.403231939,0,0,0,0,50,50,36,1,52,70516,2,180,2022-02-15_11h59.11.365,orientation adjustment 2,2021.2.3,Linux x86_64,59.99880002,,,,,,,
,,,,,,,,,,,,,,,,,,,,,,-41.66666667,55,20,75,47.33333333,7.666666667,3.066666667,-38.06666667,0.179281394,-0.304656903,1,0,0,0.4664,submitButton,-0.168999434,-0.398841063,0,0,0,0,51,51,39,1,55,70516,2,180,2022-02-15_11h59.11.365,orientation adjustment 2,2021.2.3,Linux x86_64,59.99880002,,,,,,,
,,,,,,,,,,,,,,,,,,,,,,40,-24,20,75,-30,6,2.4,-116.4,0.417497476,-0.279957215,1,0,0,0.217,submitButton,-0.168962797,-0.406701088,0,0,0,0,52,52,8,1,24,70516,2,180,2022-02-15_11h59.11.365,orientation adjustment 2,2021.2.3,Linux x86_64,59.99880002,,,,,,,
,,,,,,,,,,,,,,,,,,,,,,-36.11111111,72,20,75,65.88888889,6.111111111,2.444444444,-20.44444444,0.184883277,-0.291231076,1,0,0,0.166,submitButton,-0.089565436,-0.390818755,0,0,0,0,53,53,56,1,72,70516,2,180,2022-02-15_11h59.11.365,orientation adjustment 2,2021.2.3,Linux x86_64,59.99880002,,,,,,,
,,,,,,,,,,,,,,,,,,,,,,53.33333333,29,20,75,31.33333333,2.333333333,0.933333333,-60.06666667,0.398282448,-0.299917539,1,0,0,0.4492,submitButton,0.17917037,-0.287740946,0,0,0,0,54,54,13,1,29,70516,2,180,2022-02-15_11h59.11.365,orientation adjustment 2,2021.2.3,Linux x86_64,59.99880002,,,,,,,
,,,,,,,,,,,,,,,,,,,,,,-39.44444444,54,20,75,53.55555556,0.444444444,0.177777778,-36.17777778,0.16260457,-0.28469189,1,0,0,0.0848,submitButton,0.092449109,-0.355854273,0,0,0,0,55,55,38,1,54,70516,2,180,2022-02-15_11h59.11.365,orientation adjustment 2,2021.2.3,Linux x86_64,59.99880002,,,,,,,
,,,,,,,,,,,,,,,,,,,,,,-46.66666667,50,20,75,48.33333333,1.666666667,0.666666667,-40.66666667,0.210656087,-0.29944849,1,0,0,0.084,submitButton,0.023111105,-0.38066109,0,0,0,0,56,56,34,1,50,70516,2,180,2022-02-15_11h59.11.365,orientation adjustment 2,2021.2.3,Linux x86_64,59.99880002,,,,,,,
,,,,,,,,,,,,,,,,,,,,,,24.44444444,37,20,75,48.44444444,11.44444444,4.577777778,-48.42222222,0.372702281,-0.289002021,1,0,0,0.8832,submitButton,-0.193861723,-0.413697879,0,0,0,0,57,57,21,1,37,70516,2,180,2022-02-15_11h59.11.365,orientation adjustment 2,2021.2.3,Linux x86_64,59.99880002,,,,,,,
,,,,,,,,,,,,,,,,,,,,,,-23.88888889,-56,20,75,-54.88888889,1.111111111,0.444444444,-145.5555556,0.213932832,-0.30234162,1,0,0,1.1667,submitButton,-0.229065299,-0.387349447,0,0,0,0,58,58,40,1,56,70516,2,180,2022-02-15_11h59.11.365,orientation adjustment 2,2021.2.3,Linux x86_64,59.99880002,,,,,,,
,,,,,,,,,,,,,,,,,,,,,,-35.55555556,71,20,75,64.44444444,6.555555556,2.622222222,-21.62222222,0.202260574,-0.304535786,1,0,0,0.0508,submitButton,0.239858866,-0.399232944,1,0,0,0,59,59,55,1,71,70516,2,180,2022-02-15_11h59.11.365,orientation adjustment 2,2021.2.3,Linux x86_64,59.99880002,pause_continueButton,,,,,,
,,,,,,,,,,,,,,,,,,,,,,43.88888889,-63,20,75,-50.11111111,12.88888889,5.155555556,-147.8444444,0.375499964,-0.296207984,1,0,0,0.3499,submitButton,-0.146463553,-0.402373393,0,0,0,1,0,60,47,1,63,70516,2,180,2022-02-15_11h59.11.365,orientation adjustment 2,2021.2.3,Linux x86_64,59.99880002,,,,,,,
,,,,,,,,,,,,,,,,,,,,,,66.11111111,-68,20,75,-60.88888889,7.111111111,2.844444444,-155.1555556,0.371977409,-0.309039513,1,0,0,0.233,submitButton,-0.192575296,-0.394954443,0,0,0,1,1,61,52,1,68,70516,2,180,2022-02-15_11h59.11.365,orientation adjustment 2,2021.2.3,Linux x86_64,59.99880002,,,,,,,
,,,,,,,,,,,,,,,,,,,,,,56.66666667,44,20,75,209.6666667,14.33333333,5.733333333,-40.26666667,0.191344023,-0.292684873,1,0,0,0.1003,submitButton,-0.254187147,-0.402057727,0,0,0,1,2,62,28,1,44,70516,2,180,2022-02-15_11h59.11.365,orientation adjustment 2,2021.2.3,Linux x86_64,59.99880002,,,,,,,
,,,,,,,,,,,,,,,,,,,,,,41.11111111,-75,20,75,-59.88888889,15.11111111,9.822222222,-155.1777778,0.390513023,-0.280210654,1,0,0,0.0994,submitButton,-0.161264896,-0.402362188,0,0,0,1,3,63,59,1,75,70516,2,180,2022-02-15_11h59.11.365,orientation adjustment 2,2021.2.3,Linux x86_64,59.99880002,,,,,,,
,,,,,,,,,,,,,,,,,,,,,,-71.66666667,-64,20,75,-238.6666667,5.333333333,2.133333333,-156.1333333,0.397995075,-0.289068937,1,0,0,0.1819,submitButton,-0.148239851,-0.381513437,0,0,0,1,4,64,48,1,64,70516,2,180,2022-02-15_11h59.11.365,orientation adjustment 2,2021.2.3,Linux x86_64,59.99880002,,,,,,,
,,,,,,,,,,,,,,,,,,,,,,-69.44444444,51,20,75,43.55555556,7.444444444,2.977777778,-41.97777778,0.174779733,-0.316691717,1,0,0,0.0826,submitButton,-0.174306393,-0.406297048,0,0,0,1,5,65,35,1,51,70516,2,180,2022-02-15_11h59.11.365,orientation adjustment 2,2021.2.3,Linux x86_64,59.99880002,,,,,,,
,,,,,,,,,,,,,,,,,,,,,,48.33333333,-39,20,75,-34.66666667,4.333333333,1.733333333,-127.2666667,0.386249542,-0.289196332,1,0,0,0.3663,submitButton,-0.206674655,-0.391291539,0,0,0,1,6,66,23,1,39,70516,2,180,2022-02-15_11h59.11.365,orientation adjustment 2,2021.2.3,Linux x86_64,59.99880002,,,,,,,
,,,,,,,,,,,,,,,,,,,,,,-66.11111111,23,20,75,27.88888889,4.888888889,1.955555556,-65.04444444,0.217740377,-0.291238308,1,0,0,0.2816,submitButton,-0.132620255,-0.401733478,0,0,0,1,7,67,7,1,23,70516,2,180,2022-02-15_11h59.11.365,orientation adjustment 2,2021.2.3,Linux x86_64,59.99880002,,,,,,,
,,,,,,,,,,,,,,,,,,,,,,34.44444444,38,20,75,25.44444444,12.55555556,5.022222222,-57.02222222,0.414968093,-0.288877408,1,0,0,0.1665,submitButton,0.212510109,-0.360284408,0,0,0,1,8,68,22,1,38,70516,2,180,2022-02-15_11h59.11.365,orientation adjustment 2,2021.2.3,Linux x86_64,59.99880002,,,,,,,
,,,,,,,,,,,,,,,,,,,,,,-27.22222222,-43,20,75,-41.22222222,1.777777778,0.711111111,-132.2888889,0.207860708,-0.31349198,1,0,0,0.6654,submitButton,-0.2532746,-0.396125555,0,0,0,1,9,69,27,1,43,70516,2,180,2022-02-15_11h59.11.365,orientation adjustment 2,2021.2.3,Linux x86_64,59.99880002,,,,,,,
,,,,,,,,,,,,,,,,,,,,,,69.44444444,48,20,75,220.4444444,7.555555556,3.022222222,-38.97777778,0.182912747,-0.308806101,1,0,0,1.8177,submitButton,-0.281004985,-0.407286167,0,0,0,1,10,70,32,1,48,70516,2,180,2022-02-15_11h59.11.365,orientation adjustment 2,2021.2.3,Linux x86_64,59.99880002,,,,,,,
,,,,,,,,,,,,,,,,,,,,,,-56.11111111,40,20,75,26.88888889,13.11111111,5.244444444,-55.24444444,0.212284009,-0.302504142,1,0,0,0.2862,submitButton,-0.19941473,-0.392850796,0,0,0,1,11,71,24,1,40,70516,2,180,2022-02-15_11h59.11.365,orientation adjustment 2,2021.2.3,Linux x86_64,59.99880002,,,,,,,
,,,,,,,,,,,,,,,,,,,,,,-62.77777778,-53,20,75,-232.7777778,0.222222222,0.088888889,-143.0888889,0.379987717,-0.29636995,1,0,0,1.9154,submitButton,-0.133724689,-0.41048495,0,0,0,1,12,72,37,1,53,70516,2,180,2022-02-15_11h59.11.365,orientation adjustment 2,2021.2.3,Linux x86_64,59.99880002,,,,,,,
,,,,,,,,,,,,,,,,,,,,,,72.77777778,50,20,75,218.7777778,11.22222222,4.488888889,-35.51111111,0.209344784,-0.298470418,1,0,0,0.0498,submitButton,0.018956105,-0.369891644,0,0,0,1,13,73,34,1,50,70516,2,180,2022-02-15_11h59.11.365,orientation adjustment 2,2021.2.3,Linux x86_64,59.99880002,,,,,,,
,,,,,,,,,,,,,,,,,,,,,,48.88888889,-69,20,75,-55.11111111,13.88888889,5.555555556,-153.4444444,0.387080987,-0.272093773,1,0,0,0.1326,submitButton,0.352353891,-0.39307936,1,0,0,1,14,74,53,1,69,70516,2,180,2022-02-15_11h59.11.365,orientation adjustment 2,2021.2.3,Linux x86_64,59.99880002,pause_continueButton,,,,,,
,,,,,,,,,,,,,,,,,,,,,,38.88888889,74,20,75,74.88888889,0.888888889,0.355555556,-15.64444444,0.421428204,-0.284394662,1,0,0,1.6929,submitButton,-0.235557556,-0.397556941,0,0,0,1,15,75,58,1,74,70516,2,180,2022-02-15_11h59.11.365,orientation adjustment 2,2021.2.3,Linux x86_64,59.99880002,,,,,,,
,,,,,,,,,,,,,,,,,,,,,,-71.11111111,26,20,75,20.88888889,5.111111111,2.044444444,-66.04444444,0.172815482,-0.293539762,1,0,0,0.7643,submitButton,-0.187532425,-0.394831419,0,0,0,1,16,76,10,1,26,70516,2,180,2022-02-15_11h59.11.365,orientation adjustment 2,2021.2.3,Linux x86_64,59.99880002,,,,,,,
,,,,,,,,,,,,,,,,,,,,,,-36.66666667,-19,20,75,-27.66666667,8.666666667,3.466666667,-112.4666667,0.213687102,-0.293275118,1,0,0,1.1039,submitButton,0.082199971,-0.321605921,0,0,0,1,17,77,3,1,19,70516,2,180,2022-02-15_11h59.11.365,orientation adjustment 2,2021.2.3,Linux x86_64,59.99880002,,,,,,,
,,,,,,,,,,,,,,,,,,,,,,-74.44444444,-67,20,75,-239.4444444,7.555555556,3.022222222,-160.0222222,0.377197742,-0.293235381,1,0,0,0.4166,submitButton,0.115222136,-0.375292699,0,0,0,1,18,78,51,1,67,70516,2,180,2022-02-15_11h59.11.365,orientation adjustment 2,2021.2.3,Linux x86_64,59.99880002,,,,,,,
,,,,,,,,,,,,,,,,,,,,,,34.44444444,-70,20,75,-67.55555556,2.444444444,0.977777778,-159.0222222,0.409597635,-0.292190313,1,0,0,0.0357,submitButton,-0.176997741,-0.40288051,0,0,0,1,19,79,54,1,70,70516,2,180,2022-02-15_11h59.11.365,orientation adjustment 2,2021.2.3,Linux x86_64,59.99880002,,,,,,,
,,,,,,,,,,,,,,,,,,,,,,-46.66666667,-62,20,75,-237.6666667,4.333333333,1.733333333,-153.7333333,0.389269829,-0.281399012,1,0,0,0.9319,submitButton,-0.141745329,-0.40937233,0,0,0,1,20,80,46,1,62,70516,2,180,2022-02-15_11h59.11.365,orientation adjustment 2,2021.2.3,Linux x86_64,59.99880002,,,,,,,
,,,,,,,,,,,,,,,,,,,,,,-33.88888889,22,20,75,22.11111111,0.111111111,0.044444444,-67.95555556,0.179923773,-0.299005667,1,0,0,0.0498,submitButton,-0.129553715,-0.385694822,0,0,0,1,21,81,6,1,22,70516,2,180,2022-02-15_11h59.11.365,orientation adjustment 2,2021.2.3,Linux x86_64,59.99880002,,,,,,,
,,,,,,,,,,,,,,,,,,,,,,39.44444444,-65,20,75,-60.55555556,4.444444444,1.777777778,-153.2222222,0.368232489,-0.289488951,1,0,0,0.1502,submitButton,-0.148925145,-0.40723451,0,0,0,1,22,82,49,1,65,70516,2,180,2022-02-15_11h59.11.365,orientation adjustment 2,2021.2.3,Linux x86_64,59.99880002,,,,,,,
,,,,,,,,,,,,,,,,,,,,,,-50.55555556,-28,20,75,-31.55555556,3.555555556,1.422222222,-119.4222222,-0.193302472,-0.397014141,1,0,0,2.0163,submitButton,-0.193302472,-0.397014141,0,0,0,1,23,83,12,1,28,70516,2,180,2022-02-15_11h59.11.365,orientation adjustment 2,2021.2.3,Linux x86_64,59.99880002,,,,,,,
,,,,,,,,,,,,,,,,,,,,,,32.22222222,30,20,75,23.22222222,6.777777778,2.711111111,-62.71111111,0.379527489,-0.284141382,1,0,0,0.4171,submitButton,-0.188211997,-0.420648734,0,0,0,1,24,84,14,1,30,70516,2,180,2022-02-15_11h59.11.365,orientation adjustment 2,2021.2.3,Linux x86_64,59.99880002,,,,,,,
,,,,,,,,,,,,,,,,,,,,,,61.66666667,71,20,75,235.6666667,15.33333333,9.966666667,-9.033333333,0.186055263,-0.309260368,1,0,0,1.5664,submitButton,0.256533543,-0.302446524,0,0,0,1,25,85,55,1,71,70516,2,180,2022-02-15_11h59.11.365,orientation adjustment 2,2021.2.3,Linux x86_64,59.99880002,,,,,,,
,,,,,,,,,,,,,,,,,,,,,,-22.77777778,-49,20,75,-42.77777778,6.222222222,2.488888889,-136.5111111,0.226239125,-0.304373105,1,0,0,0.5692,submitButton,-0.059204181,-0.367591143,0,0,0,1,26,86,33,1,49,70516,2,180,2022-02-15_11h59.11.365,orientation adjustment 2,2021.2.3,Linux x86_64,59.99880002,,,,,,,
,,,,,,,,,,,,,,,,,,,,,,61.11111111,73,20,75,62.11111111,10.88888889,4.355555556,-21.35555556,0.38455677,-0.294418176,1,0,0,0.7499,submitButton,-0.137995402,-0.39499402,0,0,0,1,27,87,57,1,73,70516,2,180,2022-02-15_11h59.11.365,orientation adjustment 2,2021.2.3,Linux x86_64,59.99880002,,,,,,,
,,,,,,,,,,,,,,,,,,,,,,-53.88888889,34,20,75,-150.8888889,4.888888889,1.955555556,-57.95555556,0.380105178,-0.285361608,1,0,0,0.5839,submitButton,-0.216055314,-0.41326038,0,0,0,1,28,88,18,1,34,70516,2,180,2022-02-15_11h59.11.365,orientation adjustment 2,2021.2.3,Linux x86_64,59.99880002,,,,,,,
,,,,,,,,,,,,,,,,,,,,,,-73.33333333,46,20,75,-132.3333333,1.666666667,0.666666667,-44.66666667,0.410935402,-0.281268517,1,0,0,0.5157,submitButton,0.218924443,-0.384827693,1,0,0,1,29,89,30,1,46,70516,2,180,2022-02-15_11h59.11.365,orientation adjustment 2,2021.2.3,Linux x86_64,59.99880002,pause_continueButton,,,,,,
,,,,,,,,,,,,,,,,,,,,,,-67.22222222,-25,20,75,-214.2222222,9.222222222,3.688888889,-118.6888889,0.411865552,-0.296611468,1,0,0,0.2842,submitButton,-0.183623155,-0.411926111,0,0,0,1,30,90,9,1,25,70516,2,180,2022-02-15_11h59.11.365,orientation adjustment 2,2021.2.3,Linux x86_64,59.99880002,,,,,,,
,,,,,,,,,,,,,,,,,,,,,,-20,-45,20,75,-40,5,2,-133,0.199420214,-0.29831179,1,0,0,0.3984,submitButton,-0.139306307,-0.380873362,0,0,0,1,31,91,29,1,45,70516,2,180,2022-02-15_11h59.11.365,orientation adjustment 2,2021.2.3,Linux x86_64,59.99880002,,,,,,,
,,,,,,,,,,,,,,,,,,,,,,-70,33,20,75,-136,11,4.4,-61.4,0.40841198,-0.314843734,1,0,0,0.3654,submitButton,-0.146463156,-0.404776891,0,0,0,1,32,92,17,1,33,70516,2,180,2022-02-15_11h59.11.365,orientation adjustment 2,2021.2.3,Linux x86_64,59.99880002,,,,,,,
,,,,,,,,,,,,,,,,,,,,,,33.33333333,-54,20,75,-61.66666667,7.666666667,3.066666667,-147.0666667,0.37752374,-0.302747091,1,0,0,0.2833,submitButton,-0.163118124,-0.403052251,0,0,0,1,33,93,38,1,54,70516,2,180,2022-02-15_11h59.11.365,orientation adjustment 2,2021.2.3,Linux x86_64,59.99880002,,,,,,,
,,,,,,,,,,,,,,,,,,,,,,62.22222222,-42,20,75,119.2222222,18.77777778,12.20555556,-119.7944444,0.219083389,-0.293959141,1,0,0,0.283,submitButton,-0.23787574,-0.403511286,0,0,0,1,34,94,26,1,42,70516,2,180,2022-02-15_11h59.11.365,orientation adjustment 2,2021.2.3,Linux x86_64,59.99880002,,,,,,,
,,,,,,,,,,,,,,,,,,,,,,32.22222222,57,20,75,57.22222222,0.222222222,0.088888889,-32.91111111,0.392115116,-0.28098615,1,0,0,0.6849,submitButton,-0.110958258,-0.4006447,0,0,0,1,35,95,41,1,57,70516,2,180,2022-02-15_11h59.11.365,orientation adjustment 2,2021.2.3,Linux x86_64,59.99880002,,,,,,,
,,,,,,,,,,,,,,,,,,,,,,-52.77777778,-52,20,75,-228.7777778,3.222222222,1.288888889,-143.2888889,0.407547633,-0.304553429,1,0,0,0.4654,submitButton,-0.177955389,-0.393135468,0,0,0,1,36,96,36,1,52,70516,2,180,2022-02-15_11h59.11.365,orientation adjustment 2,2021.2.3,Linux x86_64,59.99880002,,,,,,,
,,,,,,,,,,,,,,,,,,,,,,-28.33333333,72,20,75,70.66666667,1.333333333,0.533333333,-18.53333333,0.204527775,-0.296217601,1,0,0,1.1989,submitButton,-0.19707489,-0.394439856,0,0,0,1,37,97,56,1,72,70516,2,180,2022-02-15_11h59.11.365,orientation adjustment 2,2021.2.3,Linux x86_64,59.99880002,,,,,,,
,,,,,,,,,,,,,,,,,,,,,,64.44444444,47,20,75,207.4444444,19.55555556,12.71111111,-30.28888889,0.190579414,-0.281962156,1,0,0,0.6861,submitButton,-0.164537827,-0.404843966,0,0,0,1,38,98,31,1,47,70516,2,180,2022-02-15_11h59.11.365,orientation adjustment 2,2021.2.3,Linux x86_64,59.99880002,,,,,,,
,,,,,,,,,,,,,,,,,,,,,,-51.11111111,16,20,75,16.88888889,0.888888889,0.355555556,-73.64444444,0.208492597,-0.274083376,1,0,0,0.2262,submitButton,-0.175412416,-0.39582785,0,0,0,1,39,99,0,1,16,70516,2,180,2022-02-15_11h59.11.365,orientation adjustment 2,2021.2.3,Linux x86_64,59.99880002,,,,,,,
,,,,,,,,,,,,,,,,,,,,,,-68.88888889,-60,20,75,-229.8888889,10.11111111,4.044444444,-154.0444444,0.408311208,-0.287011623,1,0,0,0.7121,submitButton,-0.165631056,-0.412089189,0,0,0,1,40,100,44,1,60,70516,2,180,2022-02-15_11h59.11.365,orientation adjustment 2,2021.2.3,Linux x86_64,59.99880002,,,,,,,
,,,,,,,,,,,,,,,,,,,,,,46.66666667,-35,20,75,-29.33333333,5.666666667,2.266666667,-122.7333333,0.377784173,-0.301429749,1,0,0,0.77,submitButton,-0.158348004,-0.407006025,0,0,0,1,41,101,19,1,35,70516,2,180,2022-02-15_11h59.11.365,orientation adjustment 2,2021.2.3,Linux x86_64,59.99880002,,,,,,,
,,,,,,,,,,,,,,,,,,,,,,-39.44444444,-37,20,75,-44.44444444,7.444444444,2.977777778,-129.9777778,0.204053879,-0.288297176,1,0,0,0.2167,submitButton,-0.15026323,-0.403304815,0,0,0,1,42,102,21,1,37,70516,2,180,2022-02-15_11h59.11.365,orientation adjustment 2,2021.2.3,Linux x86_64,59.99880002,,,,,,,
,,,,,,,,,,,,,,,,,,,,,,39.44444444,-20,20,75,-19.55555556,0.444444444,0.177777778,-109.8222222,0.421384891,-0.291457494,1,0,0,0.3349,submitButton,-0.207259258,-0.399302006,0,0,0,1,43,103,4,1,20,70516,2,180,2022-02-15_11h59.11.365,orientation adjustment 2,2021.2.3,Linux x86_64,59.99880002,,,,,,,
,,,,,,,,,,,,,,,,,,,,,,-41.11111111,18,20,75,-155.1111111,6.888888889,2.755555556,-74.75555556,0.406615893,-0.313085794,1,0,0,0.6331,submitButton,0.316898823,-0.391484896,1,0,0,1,44,104,2,1,18,70516,2,180,2022-02-15_11h59.11.365,orientation adjustment 2,2021.2.3,Linux x86_64,59.99880002,pause_continueButton,,,,,,
,,,,,,,,,,,,,,,,,,,,,,72.77777778,27,20,75,38.77777778,11.77777778,4.711111111,-58.28888889,0.386262417,-0.310816209,1,0,0,0.4977,submitButton,-0.219286203,-0.408845345,0,0,0,1,45,105,11,1,27,70516,2,180,2022-02-15_11h59.11.365,orientation adjustment 2,2021.2.3,Linux x86_64,59.99880002,,,,,,,
,,,,,,,,,,,,,,,,,,,,,,-36.11111111,55,20,75,42.88888889,12.11111111,4.844444444,-39.84444444,0.189633846,-0.295811176,1,0,0,0.2343,submitButton,-0.306683699,-0.388834,0,0,0,1,46,106,39,1,55,70516,2,180,2022-02-15_11h59.11.365,orientation adjustment 2,2021.2.3,Linux x86_64,59.99880002,,,,,,,
,,,,,,,,,,,,,,,,,,,,,,46.11111111,17,20,75,20.11111111,3.111111111,1.244444444,-71.75555556,0.391591311,-0.300689697,1,0,0,0.8814,submitButton,-0.16068546,-0.389571508,0,0,0,1,47,107,1,1,17,70516,2,180,2022-02-15_11h59.11.365,orientation adjustment 2,2021.2.3,Linux x86_64,59.99880002,,,,,,,
,,,,,,,,,,,,,,,,,,,,,,-30,-36,20,75,-40,4,1.6,-127.6,0.221352657,-0.296381553,1,0,0,0.7497,submitButton,0.28985548,-0.265968164,0,0,0,1,48,108,20,1,36,70516,2,180,2022-02-15_11h59.11.365,orientation adjustment 2,2021.2.3,Linux x86_64,59.99880002,,,,,,,
,,,,,,,,,,,,,,,,,,,,,,24.44444444,21,20,75,25.44444444,4.444444444,1.777777778,-67.22222222,0.413222392,-0.284255664,1,0,0,0.5342,submitButton,-0.14248395,-0.377271016,0,0,0,1,49,109,5,1,21,70516,2,180,2022-02-15_11h59.11.365,orientation adjustment 2,2021.2.3,Linux x86_64,59.99880002,,,,,,,
,,,,,,,,,,,,,,,,,,,,,,67.22222222,-29,20,75,-28.77777778,0.222222222,0.088888889,-118.9111111,0.384174824,-0.294322888,1,0,0,0.3671,submitButton,-0.21935312,-0.413563331,0,0,0,1,50,110,13,1,29,70516,2,180,2022-02-15_11h59.11.365,orientation adjustment 2,2021.2.3,Linux x86_64,59.99880002,,,,,,,
,,,,,,,,,,,,,,,,,,,,,,48.88888889,-59,20,75,-55.11111111,3.888888889,1.555555556,-147.4444444,0.380517085,-0.296189229,1,0,0,1.0167,submitButton,-0.164204756,-0.398350557,0,0,0,1,51,111,43,1,59,70516,2,180,2022-02-15_11h59.11.365,orientation adjustment 2,2021.2.3,Linux x86_64,59.99880002,,,,,,,
,,,,,,,,,,,,,,,,,,,,,,-34.44444444,-41,20,75,-48.44444444,7.444444444,2.977777778,-133.9777778,0.169181347,-0.295760632,1,0,0,0.1506,submitButton,-0.221583049,-0.38335681,0,0,0,1,52,112,25,1,41,70516,2,180,2022-02-15_11h59.11.365,orientation adjustment 2,2021.2.3,Linux x86_64,59.99880002,,,,,,,
,,,,,,,,,,,,,,,,,,,,,,-32.22222222,-56,20,75,-57.22222222,1.222222222,0.488888889,-146.4888889,0.225851059,-0.298302889,1,0,0,1.4994,submitButton,-0.179433346,-0.385753075,0,0,0,1,53,113,40,1,56,70516,2,180,2022-02-15_11h59.11.365,orientation adjustment 2,2021.2.3,Linux x86_64,59.99880002,,,,,,,
,,,,,,,,,,,,,,,,,,,,,,28.33333333,32,20,75,41.33333333,9.333333333,3.733333333,-54.26666667,0.37404871,-0.311328808,1,0,0,0.8499,submitButton,-0.380440831,-0.424028794,0,0,0,1,54,114,16,1,32,70516,2,180,2022-02-15_11h59.11.365,orientation adjustment 2,2021.2.3,Linux x86_64,59.99880002,,,,,,,
,,,,,,,,,,,,,,,,,,,,,,25,-31,20,75,-37,6,2.4,-123.4,0.371747255,-0.297855298,1,0,0,0.5335,submitButton,0.176097234,-0.385725021,0,0,0,1,55,115,15,1,31,70516,2,180,2022-02-15_11h59.11.365,orientation adjustment 2,2021.2.3,Linux x86_64,59.99880002,,,,,,,
,,,,,,,,,,,,,,,,,,,,,,37.77777778,66,20,75,226.7777778,19.22222222,12.49444444,-11.50555556,0.193754037,-0.311727683,1,0,0,0.3337,submitButton,-0.258970936,-0.40098691,0,0,0,1,56,116,50,1,66,70516,2,180,2022-02-15_11h59.11.365,orientation adjustment 2,2021.2.3,Linux x86_64,59.99880002,,,,,,,
,,,,,,,,,,,,,,,,,,,,,,48.33333333,-61,20,75,-55.66666667,5.333333333,2.133333333,-148.8666667,0.391088883,-0.305225611,1,0,0,0.3154,submitButton,-0.144983768,-0.398288091,0,0,0,1,57,117,45,1,61,70516,2,180,2022-02-15_11h59.11.365,orientation adjustment 2,2021.2.3,Linux x86_64,59.99880002,,,,,,,
,,,,,,,,,,,,,,,,,,,,,,-25.55555556,-24,20,75,-31.55555556,7.555555556,3.022222222,-117.0222222,0.19380339,-0.280189117,1,0,0,0.0334,submitButton,-0.298077345,-0.396606286,0,0,0,1,58,118,8,1,24,70516,2,180,2022-02-15_11h59.11.365,orientation adjustment 2,2021.2.3,Linux x86_64,59.99880002,,,,,,,
,,,,,,,,,,,,,,,,,,,,,,-63.33333333,-58,20,75,-68.33333333,10.33333333,4.133333333,-152.1333333,0.210472504,-0.288718065,1,0,0,0.9114,submitButton,0.314436277,-0.405514002,1,0,0,1,59,119,42,1,58,70516,2,180,2022-02-15_11h59.11.365,orientation adjustment 2,2021.2.3,Linux x86_64,59.99880002,pause_continueButton,,,,,,
,,,,,,,,,,,,,,,,,,,,,,61.66666667,-26,20,75,132.6666667,21.33333333,13.86666667,-102.1333333,0.196858803,-0.27904892,1,0,0,1.5162,submitButton,0.26209871,-0.28065904,0,0,0,2,0,120,10,1,26,70516,2,180,2022-02-15_11h59.11.365,orientation adjustment 2,2021.2.3,Linux x86_64,59.99880002,,,,,,,
,,,,,,,,,,,,,,,,,,,,,,-56.66666667,62,20,75,46.33333333,15.66666667,10.18333333,-38.18333333,0.214484135,-0.312880039,1,0,0,0.2505,submitButton,0.231131315,-0.220585982,0,0,0,2,1,121,46,1,62,70516,2,180,2022-02-15_11h59.11.365,orientation adjustment 2,2021.2.3,Linux x86_64,59.99880002,,,,,,,
,,,,,,,,,,,,,,,,,,,,,,-46.66666667,71,20,75,68.33333333,2.666666667,1.066666667,-20.06666667,0.220621904,-0.269569874,1,0,0,0.2338,submitButton,0.198531469,-0.208364884,0,0,0,2,2,122,55,1,71,70516,2,180,2022-02-15_11h59.11.365,orientation adjustment 2,2021.2.3,Linux x86_64,59.99880002,,,,,,,
,,,,,,,,,,,,,,,,,,,,,,66.11111111,69,20,75,233.1111111,15.88888889,10.32777778,-10.67222222,0.196045478,-0.270619869,1,0,0,0.0666,submitButton,0.269105275,-0.294090589,0,0,0,2,3,123,53,1,69,70516,2,180,2022-02-15_11h59.11.365,orientation adjustment 2,2021.2.3,Linux x86_64,59.99880002,,,,,,,
,,,,,,,,,,,,,,,,,,,,,,39.44444444,35,20,75,37.44444444,2.444444444,0.977777778,-54.02222222,0.389527241,-0.303937991,1,0,0,0.9826,submitButton,-0.018941085,-0.338439385,0,0,0,2,4,124,19,1,35,70516,2,180,2022-02-15_11h59.11.365,orientation adjustment 2,2021.2.3,Linux x86_64,59.99880002,,,,,,,
,,,,,,,,,,,,,,,,,,,,,,35,-29,20,75,-37,8,3.2,-122.2,0.394800981,-0.274770419,1,0,0,0.5161,submitButton,-0.161492348,-0.389986515,0,0,0,2,5,125,13,1,29,70516,2,180,2022-02-15_11h59.11.365,orientation adjustment 2,2021.2.3,Linux x86_64,59.99880002,,,,,,,
,,,,,,,,,,,,,,,,,,,,,,32.22222222,70,20,75,61.22222222,8.777777778,3.511111111,-23.51111111,0.415155967,-0.306080103,1,0,0,0.6493,submitButton,0.256904761,-0.331792275,0,0,0,2,6,126,54,1,70,70516,2,180,2022-02-15_11h59.11.365,orientation adjustment 2,2021.2.3,Linux x86_64,59.99880002,,,,,,,
,,,,,,,,,,,,,,,,,,,,,,68.88888889,-17,20,75,143.8888889,19.11111111,12.42222222,-94.57777778,0.2189943,-0.317559878,1,0,0,0.1503,submitButton,-0.11350894,-0.397357623,0,0,0,2,7,127,1,1,17,70516,2,180,2022-02-15_11h59.11.365,orientation adjustment 2,2021.2.3,Linux x86_64,59.99880002,,,,,,,
,,,,,,,,,,,,,,,,,,,,,,37.22222222,-40,20,75,-2.777777778,37.22222222,29.77777778,-100.2222222,-0.173851569,-0.405162175,1,0,0,2.6332,submitButton,-0.173851569,-0.405162175,0,0,0,2,8,128,24,1,40,70516,2,180,2022-02-15_11h59.11.365,orientation adjustment 2,2021.2.3,Linux x86_64,59.99880002,,,,,,,
,,,,,,,,,,,,,,,,,,,,,,-28.33333333,-59,20,75,-62.33333333,3.333333333,1.333333333,-150.3333333,0.192824841,-0.304270347,1,0,0,0.5657,submitButton,0.145174503,-0.323534886,0,0,0,2,9,129,43,1,59,70516,2,180,2022-02-15_11h59.11.365,orientation adjustment 2,2021.2.3,Linux x86_64,59.99880002,,,,,,,
,,,,,,,,,,,,,,,,,,,,,,-63.33333333,51,20,75,49.66666667,1.333333333,0.533333333,-39.53333333,0.199386358,-0.300198237,1,0,0,0.1996,submitButton,0.267061631,-0.38990895,0,0,0,2,10,130,35,1,51,70516,2,180,2022-02-15_11h59.11.365,orientation adjustment 2,2021.2.3,Linux x86_64,59.99880002,,,,,,,
,,,,,,,,,,,,,,,,,,,,,,-42.77777778,-36,20,75,-49.77777778,13.77777778,5.511111111,-131.5111111,0.232854843,-0.308512608,1,0,0,0.1996,submitButton,0.468899091,-0.26343147,0,0,0,2,11,131,20,1,36,70516,2,180,2022-02-15_11h59.11.365,orientation adjustment 2,2021.2.3,Linux x86_64,59.99880002,,,,,,,
,,,,,,,,,,,,,,,,,,,,,,-23.88888889,-43,20,75,-43.88888889,0.888888889,0.355555556,-133.3555556,0.214392185,-0.303498665,1,0,0,0.1836,submitButton,0.100409667,-0.363174597,0,0,0,2,12,132,27,1,43,70516,2,180,2022-02-15_11h59.11.365,orientation adjustment 2,2021.2.3,Linux x86_64,59.99880002,,,,,,,
,,,,,,,,,,,,,,,,,,,,,,-36.11111111,74,20,75,66.88888889,7.111111111,2.844444444,-18.84444444,0.168571949,-0.313816945,1,0,0,0.1504,submitButton,0.068567355,-0.209495544,0,0,0,2,13,133,58,1,74,70516,2,180,2022-02-15_11h59.11.365,orientation adjustment 2,2021.2.3,Linux x86_64,59.99880002,,,,,,,
,,,,,,,,,,,,,,,,,,,,,,-40.55555556,-49,20,75,-59.55555556,10.55555556,4.222222222,-143.2222222,0.202368577,-0.305366755,1,0,0,0.1009,submitButton,0.22468551,-0.387554804,1,0,0,2,14,134,33,1,49,70516,2,180,2022-02-15_11h59.11.365,orientation adjustment 2,2021.2.3,Linux x86_64,59.99880002,pause_continueButton,,,,,,
,,,,,,,,,,,,,,,,,,,,,,-37.77777778,-21,20,75,-30.77777778,9.777777778,3.911111111,-114.9111111,0.199968815,-0.30506134,1,0,0,0.2323,submitButton,0.081842661,-0.156409502,0,0,0,2,15,135,5,1,21,70516,2,180,2022-02-15_11h59.11.365,orientation adjustment 2,2021.2.3,Linux x86_64,59.99880002,,,,,,,
,,,,,,,,,,,,,,,,,,,,,,-70,-25,20,75,-35,10,4,-119,0.183707317,-0.305116733,1,0,0,0.9496,submitButton,-0.158405542,-0.400248925,0,0,0,2,16,136,9,1,25,70516,2,180,2022-02-15_11h59.11.365,orientation adjustment 2,2021.2.3,Linux x86_64,59.99880002,,,,,,,
,,,,,,,,,,,,,,,,,,,,,,-27.77777778,27,20,75,34.22222222,7.222222222,2.888888889,-60.11111111,-0.196627617,-0.384329875,1,0,0,1.4902,submitButton,-0.06567955,-0.360778968,0,0,0,2,17,137,11,1,27,70516,2,180,2022-02-15_11h59.11.365,orientation adjustment 2,2021.2.3,Linux x86_64,59.99880002,,,,,,,
,,,,,,,,,,,,,,,,,,,,,,-35.55555556,-63,20,75,-65.55555556,2.555555556,1.022222222,-154.0222222,0.209620237,-0.290578763,1,0,0,0.2342,submitButton,0.072339932,-0.294872761,0,0,0,2,18,138,47,1,63,70516,2,180,2022-02-15_11h59.11.365,orientation adjustment 2,2021.2.3,Linux x86_64,59.99880002,,,,,,,
,,,,,,,,,,,,,,,,,,,,,,-43.33333333,-72,20,75,-72.33333333,0.333333333,0.133333333,-162.1333333,0.191086451,-0.292572339,1,0,0,0.117,submitButton,0.169481039,-0.316439152,0,0,0,2,19,139,56,1,72,70516,2,180,2022-02-15_11h59.11.365,orientation adjustment 2,2021.2.3,Linux x86_64,59.99880002,,,,,,,
,,,,,,,,,,,,,,,,,,,,,,-36.66666667,-65,20,75,-66.66666667,1.666666667,0.666666667,-155.6666667,0.184977372,-0.321931362,1,0,0,0.5024,submitButton,0.220823208,-0.364559571,0,0,0,2,20,140,49,1,65,70516,2,180,2022-02-15_11h59.11.365,orientation adjustment 2,2021.2.3,Linux x86_64,59.99880002,,,,,,,
,,,,,,,,,,,,,,,,,,,,,,38.33333333,58,20,75,59.33333333,1.333333333,0.533333333,-31.46666667,0.373372237,-0.301358461,1,0,0,0.8677,submitButton,0.102943579,-0.238595486,0,0,0,2,21,141,42,1,58,70516,2,180,2022-02-15_11h59.11.365,orientation adjustment 2,2021.2.3,Linux x86_64,59.99880002,,,,,,,
,,,,,,,,,,,,,,,,,,,,,,-43.88888889,68,20,75,51.11111111,16.88888889,10.97777778,-32.97777778,0.184579293,-0.278440475,1,0,0,0.2482,submitButton,0.497337182,-0.225897153,0,0,0,2,22,142,52,1,68,70516,2,180,2022-02-15_11h59.11.365,orientation adjustment 2,2021.2.3,Linux x86_64,59.99880002,,,,,,,
,,,,,,,,,,,,,,,,,,,,,,-35,33,20,75,30,3,1.2,-58.2,0.225531658,-0.291067441,1,0,0,0.0178,submitButton,-0.137570858,-0.403346697,0,0,0,2,23,143,17,1,33,70516,2,180,2022-02-15_11h59.11.365,orientation adjustment 2,2021.2.3,Linux x86_64,59.99880002,,,,,,,
,,,,,,,,,,,,,,,,,,,,,,-34.44444444,-16,20,75,-28.44444444,12.44444444,4.977777778,-110.9777778,0.220193227,-0.299573978,1,0,0,0.3328,submitButton,-0.150333325,-0.40627718,0,0,0,2,24,144,0,1,16,70516,2,180,2022-02-15_11h59.11.365,orientation adjustment 2,2021.2.3,Linux x86_64,59.99880002,,,,,,,
,,,,,,,,,,,,,,,,,,,,,,-22.22222222,-55,20,75,-55.22222222,0.222222222,0.088888889,-145.0888889,0.226257404,-0.29897062,1,0,0,0.1672,submitButton,-0.167966286,-0.390166124,0,0,0,2,25,145,39,1,55,70516,2,180,2022-02-15_11h59.11.365,orientation adjustment 2,2021.2.3,Linux x86_64,59.99880002,,,,,,,
,,,,,,,,,,,,,,,,,,,,,,71.11111111,-61,20,75,-46.88888889,14.11111111,5.644444444,-145.3555556,0.418551286,-0.299400091,1,0,0,0.8651,submitButton,-0.128995498,-0.399850368,0,0,0,2,26,146,45,1,61,70516,2,180,2022-02-15_11h59.11.365,orientation adjustment 2,2021.2.3,Linux x86_64,59.99880002,,,,,,,
,,,,,,,,,,,,,,,,,,,,,,45,-75,20,75,98,7,2.8,-162.2,0.201444387,-0.310605288,1,0,0,0.0837,submitButton,0.063625097,-0.320974191,0,0,0,2,27,147,59,1,75,70516,2,180,2022-02-15_11h59.11.365,orientation adjustment 2,2021.2.3,Linux x86_64,59.99880002,,,,,,,
,,,,,,,,,,,,,,,,,,,,,,-28.88888889,48,20,75,49.11111111,1.111111111,0.444444444,-41.55555556,0.177731991,-0.318097909,1,0,0,0.582,submitButton,-0.241254369,-0.395517508,0,0,0,2,28,148,32,1,48,70516,2,180,2022-02-15_11h59.11.365,orientation adjustment 2,2021.2.3,Linux x86_64,59.99880002,,,,,,,
,,,,,,,,,,,,,,,,,,,,,,48.88888889,-67,20,75,-57.11111111,9.888888889,3.955555556,-153.0444444,0.371665637,-0.290358067,1,0,0,0.3343,submitButton,0.299233754,-0.393443823,1,0,0,2,29,149,51,1,67,70516,2,180,2022-02-15_11h59.11.365,orientation adjustment 2,2021.2.3,Linux x86_64,59.99880002,pause_continueButton,,,,,,
,,,,,,,,,,,,,,,,,,,,,,55,-42,20,75,-38,4,1.6,-130.4,0.39733839,-0.299667279,1,0,0,0.3336,submitButton,-0.164487839,-0.39876763,0,0,0,2,30,150,26,1,42,70516,2,180,2022-02-15_11h59.11.365,orientation adjustment 2,2021.2.3,Linux x86_64,59.99880002,,,,,,,
,,,,,,,,,,,,,,,,,,,,,,38.33333333,45,20,75,63.33333333,18.33333333,11.91666667,-33.08333333,0.399840434,-0.272847891,1,0,0,1.5804,submitButton,0.362994671,-0.30580012,0,0,0,2,31,151,29,1,45,70516,2,180,2022-02-15_11h59.11.365,orientation adjustment 2,2021.2.3,Linux x86_64,59.99880002,,,,,,,
,,,,,,,,,,,,,,,,,,,,,,60.55555556,60,20,75,232.5555556,7.444444444,2.977777778,-27.02222222,0.209394693,-0.304376364,1,0,0,0.3163,submitButton,-0.055770477,-0.390406291,0,0,0,2,32,152,44,1,60,70516,2,180,2022-02-15_11h59.11.365,orientation adjustment 2,2021.2.3,Linux x86_64,59.99880002,,,,,,,
,,,,,,,,,,,,,,,,,,,,,,50.55555556,-24,20,75,149.5555556,6.444444444,2.577777778,-111.4222222,0.208111922,-0.299366554,1,0,0,0.2171,submitButton,0.147162994,-0.311724424,0,0,0,2,33,153,8,1,24,70516,2,180,2022-02-15_11h59.11.365,orientation adjustment 2,2021.2.3,Linux x86_64,59.99880002,,,,,,,
,,,,,,,,,,,,,,,,,,,,,,46.11111111,57,20,75,51.11111111,5.888888889,2.355555556,-35.35555556,0.411161264,-0.281376282,1,0,0,0.4831,submitButton,0.052250942,-0.356013616,0,0,0,2,34,154,41,1,57,70516,2,180,2022-02-15_11h59.11.365,orientation adjustment 2,2021.2.3,Linux x86_64,59.99880002,,,,,,,
,,,,,,,,,,,,,,,,,,,,,,-40.55555556,39,20,75,30.44444444,8.555555556,3.422222222,-54.42222222,0.174684366,-0.313641389,1,0,0,0.1827,submitButton,-0.181449413,-0.407698631,0,0,0,2,35,155,23,1,39,70516,2,180,2022-02-15_11h59.11.365,orientation adjustment 2,2021.2.3,Linux x86_64,59.99880002,,,,,,,
,,,,,,,,,,,,,,,,,,,,,,29.44444444,-47,20,75,-43.55555556,3.444444444,1.377777778,-135.6222222,0.384696484,-0.29989926,1,0,0,0.1507,submitButton,0.143294493,-0.278995117,0,0,0,2,36,156,31,1,47,70516,2,180,2022-02-15_11h59.11.365,orientation adjustment 2,2021.2.3,Linux x86_64,59.99880002,,,,,,,
,,,,,,,,,,,,,,,,,,,,,,51.66666667,-30,20,75,-48.33333333,18.33333333,11.91666667,-131.9166667,0.383213282,-0.300087134,1,0,0,0.6175,submitButton,0.300658305,-0.3232735,0,0,0,2,37,157,14,1,30,70516,2,180,2022-02-15_11h59.11.365,orientation adjustment 2,2021.2.3,Linux x86_64,59.99880002,,,,,,,
,,,,,,,,,,,,,,,,,,,,,,67.77777778,32,20,75,218.7777778,6.777777778,2.711111111,-55.28888889,0.187417189,-0.3036623,1,0,0,0.0994,submitButton,0.189879417,-0.301387231,0,0,0,2,38,158,16,1,32,70516,2,180,2022-02-15_11h59.11.365,orientation adjustment 2,2021.2.3,Linux x86_64,59.99880002,,,,,,,
,,,,,,,,,,,,,,,,,,,,,,-21.11111111,73,20,75,70.88888889,2.111111111,0.844444444,-17.84444444,0.201700528,-0.290722211,1,0,0,0.1162,submitButton,0.242211183,-0.279882749,0,0,0,2,39,159,57,1,73,70516,2,180,2022-02-15_11h59.11.365,orientation adjustment 2,2021.2.3,Linux x86_64,59.99880002,,,,,,,
,,,,,,,,,,,,,,,,,,,,,,73.33333333,-37,20,75,-40.66666667,3.666666667,1.466666667,-128.4666667,0.385732492,-0.289092541,1,0,0,0.4163,submitButton,0.126329025,-0.146812638,0,0,0,2,40,160,21,1,37,70516,2,180,2022-02-15_11h59.11.365,orientation adjustment 2,2021.2.3,Linux x86_64,59.99880002,,,,,,,
,,,,,,,,,,,,,,,,,,,,,,-43.88888889,50,20,75,42.11111111,7.888888889,3.155555556,-43.15555556,0.197518667,-0.270612399,1,0,0,0.186,submitButton,0.191096783,-0.309856017,0,0,0,2,41,161,34,1,50,70516,2,180,2022-02-15_11h59.11.365,orientation adjustment 2,2021.2.3,Linux x86_64,59.99880002,,,,,,,
,,,,,,,,,,,,,,,,,,,,,,-23.33333333,-18,20,75,-41.33333333,23.33333333,15.16666667,-123.1666667,-0.220662117,-0.399574359,1,0,0,1.0329,submitButton,-0.220662117,-0.399574359,0,0,0,2,42,162,2,1,18,70516,2,180,2022-02-15_11h59.11.365,orientation adjustment 2,2021.2.3,Linux x86_64,59.99880002,,,,,,,
,,,,,,,,,,,,,,,,,,,,,,55,34,20,75,224,10,4,-52,0.220940431,-0.288736582,1,0,0,2.2667,submitButton,0.047053496,-0.306179762,0,0,0,2,43,163,18,1,34,70516,2,180,2022-02-15_11h59.11.365,orientation adjustment 2,2021.2.3,Linux x86_64,59.99880002,,,,,,,
,,,,,,,,,,,,,,,,,,,,,,-67.77777778,-54,20,75,-240.7777778,6.777777778,2.711111111,-146.7111111,0.377554893,-0.297179619,1,0,0,0.1824,submitButton,0.298306783,-0.409645001,1,0,0,2,44,164,38,1,54,70516,2,180,2022-02-15_11h59.11.365,orientation adjustment 2,2021.2.3,Linux x86_64,59.99880002,pause_continueButton,,,,,,
,,,,,,,,,,,,,,,,,,,,,,33.88888889,-28,20,75,-30.11111111,2.111111111,0.844444444,-118.8444444,0.373841524,-0.301154613,1,0,0,0.2488,submitButton,0.273478031,-0.178903103,0,0,0,2,45,165,12,1,28,70516,2,180,2022-02-15_11h59.11.365,orientation adjustment 2,2021.2.3,Linux x86_64,59.99880002,,,,,,,
,,,,,,,,,,,,,,,,,,,,,,-39.44444444,-66,20,75,-73.44444444,7.444444444,2.977777778,-158.9777778,0.228842417,-0.267767668,1,0,0,0.4997,submitButton,-0.16644907,-0.401837508,0,0,0,2,46,166,50,1,66,70516,2,180,2022-02-15_11h59.11.365,orientation adjustment 2,2021.2.3,Linux x86_64,59.99880002,,,,,,,
,,,,,,,,,,,,,,,,,,,,,,30.55555556,-56,20,75,-53.44444444,2.555555556,1.022222222,-144.9777778,0.434369246,-0.302406152,1,0,0,0.2007,submitButton,0.516813914,-0.163489024,0,0,0,2,47,167,40,1,56,70516,2,180,2022-02-15_11h59.11.365,orientation adjustment 2,2021.2.3,Linux x86_64,59.99880002,,,,,,,
,,,,,,,,,,,,,,,,,,,,,,-26.66666667,-31,20,75,-34.66666667,3.666666667,1.466666667,-122.4666667,0.212064266,-0.293961287,1,0,0,0.1674,submitButton,0.391916831,-0.285362562,0,0,0,2,48,168,15,1,31,70516,2,180,2022-02-15_11h59.11.365,orientation adjustment 2,2021.2.3,Linux x86_64,59.99880002,,,,,,,
,,,,,,,,,,,,,,,,,,,,,,26.11111111,23,20,75,30.11111111,7.111111111,2.844444444,-64.15555556,0.386532704,-0.278013309,1,0,0,0.6498,submitButton,0.261126916,-0.356501341,0,0,0,2,49,169,7,1,23,70516,2,180,2022-02-15_11h59.11.365,orientation adjustment 2,2021.2.3,Linux x86_64,59.99880002,,,,,,,
,,,,,,,,,,,,,,,,,,,,,,-27.77777778,20,20,75,21.22222222,1.222222222,0.488888889,-69.51111111,0.198934555,-0.310271422,1,0,0,0.0847,submitButton,0.260122856,-0.360821088,0,0,0,2,50,170,4,1,20,70516,2,180,2022-02-15_11h59.11.365,orientation adjustment 2,2021.2.3,Linux x86_64,59.99880002,,,,,,,
,,,,,,,,,,,,,,,,,,,,,,-55,22,20,75,26,4,1.6,-66.4,0.204761664,-0.306580305,1,0,0,0.0813,submitButton,0.199804306,-0.304199298,0,0,0,2,51,171,6,1,22,70516,2,180,2022-02-15_11h59.11.365,orientation adjustment 2,2021.2.3,Linux x86_64,59.99880002,,,,,,,
,,,,,,,,,,,,,,,,,,,,,,48.88888889,-38,20,75,-56.11111111,18.11111111,11.77222222,-139.7722222,0.399010499,-0.298392693,1,0,0,0.0491,submitButton,0.442131917,-0.284069697,0,0,0,2,52,172,22,1,38,70516,2,180,2022-02-15_11h59.11.365,orientation adjustment 2,2021.2.3,Linux x86_64,59.99880002,,,,,,,
,,,,,,,,,,,,,,,,,,,,,,-73.33333333,41,20,75,47.66666667,6.666666667,2.666666667,-46.33333333,-0.175705671,-0.410491625,1,0,0,2.2674,submitButton,0.306328694,-0.262244701,0,0,0,2,53,173,25,1,41,70516,2,180,2022-02-15_11h59.11.365,orientation adjustment 2,2021.2.3,Linux x86_64,59.99880002,,,,,,,
,,,,,,,,,,,,,,,,,,,,,,-49.44444444,52,20,75,50.55555556,1.444444444,0.577777778,-38.57777778,0.217146238,-0.307330688,1,0,0,0.3505,submitButton,0.396849155,-0.339547634,0,0,0,2,54,174,36,1,52,70516,2,180,2022-02-15_11h59.11.365,orientation adjustment 2,2021.2.3,Linux x86_64,59.99880002,,,,,,,
,,,,,,,,,,,,,,,,,,,,,,66.11111111,46,20,75,63.11111111,17.11111111,11.12222222,-32.87777778,0.3839794,-0.300412973,1,0,0,0.8503,submitButton,0.431828737,-0.184241613,0,0,0,2,55,175,30,1,46,70516,2,180,2022-02-15_11h59.11.365,orientation adjustment 2,2021.2.3,Linux x86_64,59.99880002,,,,,,,
,,,,,,,,,,,,,,,,,,,,,,-71.11111111,-19,20,75,-40.11111111,21.11111111,13.72222222,-122.7222222,0.190117836,-0.283953587,1,0,0,0.8321,submitButton,0.44948562,-0.185628335,0,0,0,2,56,176,3,1,19,70516,2,180,2022-02-15_11h59.11.365,orientation adjustment 2,2021.2.3,Linux x86_64,59.99880002,,,,,,,
,,,,,,,,,,,,,,,,,,,,,,46.11111111,53,20,75,69.11111111,16.11111111,10.47222222,-26.52777778,0.382658005,-0.306713581,1,0,0,0.5838,submitButton,0.345190048,-0.124718229,0,0,0,2,57,177,37,1,53,70516,2,180,2022-02-15_11h59.11.365,orientation adjustment 2,2021.2.3,Linux x86_64,59.99880002,,,,,,,
,,,,,,,,,,,,,,,,,,,,,,57.77777778,-44,20,75,-30.22222222,13.77777778,5.511111111,-128.4888889,0.397910833,-0.284508626,1,0,0,0.5858,submitButton,0.400509675,-0.292946339,0,0,0,2,58,178,28,1,44,70516,2,180,2022-02-15_11h59.11.365,orientation adjustment 2,2021.2.3,Linux x86_64,59.99880002,,,,,,,
,,,,,,,,,,,,,,,,,,,,,,23.88888889,-64,20,75,-62.11111111,1.888888889,0.755555556,-153.2444444,0.447296937,-0.291235844,1,0,0,0.3511,submitButton,0.404428879,-0.221216917,0,0,0,2,59,179,48,1,64,70516,2,180,2022-02-15_11h59.11.365,orientation adjustment 2,2021.2.3,Linux x86_64,59.99880002,,,,,,,
,,,,,,,,,,,,,,,,,,,,,,,,,,,,,,,,,,,,,,,,,,,,,,,,70516,2,180,2022-02-15_11h59.11.365,orientation adjustment 2,2021.2.3,Linux x86_64,59.99880002,,0.319488923,-0.394595305,1,0,0,EndButtonTxt
