consentMouse1.x,consentMouse1.y,consentMouse1.leftButton,consentMouse1.midButton,consentMouse1.rightButton,consentMouse1.clicked_name,consent_Mouse.x,consent_Mouse.y,consent_Mouse.leftButton,consent_Mouse.midButton,consent_Mouse.rightButton,consent_Mouse.clicked_name,startMouse.x,startMouse.y,startMouse.leftButton,startMouse.midButton,startMouse.rightButton,startMouse_2.x,startMouse_2.y,startMouse_2.leftButton,startMouse_2.midButton,startMouse_2.rightButton,start_distance,fixedOri,minimalDistance,maxOri,this_ori,accuracy,presented_accuracy,submitMouse.x,submitMouse.y,submitMouse.leftButton,submitMouse.midButton,submitMouse.rightButton,submitMouse.time,submitMouse.clicked_name,block_accuracy,continueMouse.x,continueMouse.y,continueMouse.leftButton,continueMouse.midButton,continueMouse.rightButton,trials.thisRepN,trials.thisTrialN,trials.thisN,trials.thisIndex,trials.ran,startOri,participant,condition,nTrials,date,expName,psychopyVersion,OS,frameRate,continueMouse.clicked_name,EndButtonMouse.x,EndButtonMouse.y,EndButtonMouse.leftButton,EndButtonMouse.midButton,EndButtonMouse.rightButton,EndButtonMouse.clicked_name
0.397960069,-0.396770833,1,0,0,consent_button1,0.385256076,-0.406427951,1,0,0,consent_button,0.385772569,-0.406427951,1,0,0,0.385772569,-0.406427951,1,0,0,-32.22222222,29,20,75,5.777777778,23.22222222,23.22222222,0.199192708,-0.293893229,1,0,0,1.2152,submitButton,23.22222222,-0.506323785,-0.403346354,0,0,0,0,0,0,13,1,29,69775,blockT,180,2022-02-15_08h47.49.164,orientation adjustment block,2021.2.3,MacIntel,60.0024001,,,,,,,
,,,,,,,,,,,,,,,,,,,,,,-68.88888889,42,20,75,3.111111111,38.88888889,38.88888889,0.206323785,-0.298411458,1,0,0,0.8834,submitButton,31.05555556,-0.527326389,-0.40546875,0,0,0,0,1,1,26,1,42,69775,blockT,180,2022-02-15_08h47.49.164,orientation adjustment block,2021.2.3,MacIntel,60.0024001,,,,,,,
,,,,,,,,,,,,,,,,,,,,,,-42.77777778,71,20,75,28.22222222,42.77777778,42.77777778,-0.529444444,-0.410529514,1,0,0,2.7834,submitButton,34.96296296,-0.529444444,-0.410529514,0,0,0,0,2,2,55,1,71,69775,blockT,180,2022-02-15_08h47.49.164,orientation adjustment block,2021.2.3,MacIntel,60.0024001,,,,,,,
,,,,,,,,,,,,,,,,,,,,,,45.55555556,-64,20,75,-5.444444444,58.55555556,58.55555556,0.190855035,-0.286419271,1,0,0,0.349,submitButton,58.55555556,-0.538828125,-0.409956597,0,0,0,0,3,3,48,1,64,69775,blockT,180,2022-02-15_08h47.49.164,orientation adjustment block,2021.2.3,MacIntel,60.0024001,,,,,,,
,,,,,,,,,,,,,,,,,,,,,,27.77777778,46,20,75,2.777777778,43.22222222,43.22222222,0.410954861,-0.286085069,1,0,0,0.2834,submitButton,50.88888889,-0.552829861,-0.411957465,0,0,0,0,4,4,30,1,46,69775,blockT,180,2022-02-15_08h47.49.164,orientation adjustment block,2021.2.3,MacIntel,60.0024001,,,,,,,
,,,,,,,,,,,,,,,,,,,,,,-52.77777778,-49,20,75,-80.77777778,31.77777778,31.77777778,-0.530026042,-0.420013021,1,0,0,1.383,submitButton,44.51851852,-0.255490451,-0.439244792,0,0,0,0,5,5,33,1,49,69775,blockT,180,2022-02-15_08h47.49.164,orientation adjustment block,2021.2.3,MacIntel,60.0024001,,,,,,,
,,,,,,,,,,,,,,,,,,,,,,70.55555556,-54,20,75,-1.444444444,52.55555556,52.55555556,0.416488715,-0.286571181,1,0,0,0.0659,submitButton,52.55555556,-0.268363715,-0.361267361,0,0,0,0,6,6,38,1,54,69775,blockT,180,2022-02-15_08h47.49.164,orientation adjustment block,2021.2.3,MacIntel,60.0024001,,,,,,,
,,,,,,,,,,,,,,,,,,,,,,33.88888889,-17,20,75,89.88888889,73.11111111,73.11111111,0.18171875,-0.301228299,1,0,0,0.9836,submitButton,62.83333333,-0.533038194,-0.40046441,0,0,0,0,7,7,1,1,17,69775,blockT,180,2022-02-15_08h47.49.164,orientation adjustment block,2021.2.3,MacIntel,60.0024001,,,,,,,
,,,,,,,,,,,,,,,,,,,,,,-67.77777778,23,20,75,3.222222222,19.77777778,19.77777778,0.181740451,-0.316367187,1,0,0,0.2149,submitButton,48.48148148,-0.262382813,-0.368381076,0,0,0,0,8,8,7,1,23,69775,blockT,180,2022-02-15_08h47.49.164,orientation adjustment block,2021.2.3,MacIntel,60.0024001,,,,,,,
,,,,,,,,,,,,,,,,,,,,,,-65,-52,20,75,-82,30,30,-0.553111979,-0.389444444,1,0,0,0.9659,submitButton,30,0.004006076,-0.323081597,0,0,0,0,9,9,36,1,52,69775,blockT,180,2022-02-15_08h47.49.164,orientation adjustment block,2021.2.3,MacIntel,60.0024001,,,,,,,
,,,,,,,,,,,,,,,,,,,,,,70,-47,20,75,0,47,47,0.391901042,-0.29968316,1,0,0,0.3338,submitButton,38.5,-0.553142361,-0.413945312,0,0,0,0,10,10,31,1,47,69775,blockT,180,2022-02-15_08h47.49.164,orientation adjustment block,2021.2.3,MacIntel,60.0024001,,,,,,,
,,,,,,,,,,,,,,,,,,,,,,-70.55555556,-27,20,75,-86.55555556,59.55555556,59.55555556,0.220407986,-0.324474826,1,0,0,0.682,submitButton,45.51851852,-0.546236979,-0.419079861,0,0,0,0,11,11,11,1,27,69775,blockT,180,2022-02-15_08h47.49.164,orientation adjustment block,2021.2.3,MacIntel,60.0024001,,,,,,,
,,,,,,,,,,,,,,,,,,,,,,65.55555556,-73,20,75,-7.444444444,65.55555556,65.55555556,-0.532274306,-0.401475694,1,0,0,1.032,submitButton,65.55555556,-0.532274306,-0.400920139,0,0,0,0,12,12,57,1,73,69775,blockT,180,2022-02-15_08h47.49.164,orientation adjustment block,2021.2.3,MacIntel,60.0024001,,,,,,,
,,,,,,,,,,,,,,,,,,,,,,-21.66666667,22,20,75,0.333333333,21.66666667,21.66666667,-0.483628472,-0.398294271,1,0,0,0.7504,submitButton,43.61111111,-0.483628472,-0.398849826,0,0,0,0,13,13,6,1,22,69775,blockT,180,2022-02-15_08h47.49.164,orientation adjustment block,2021.2.3,MacIntel,60.0024001,,,,,,,
,,,,,,,,,,,,,,,,,,,,,,-35,-40,20,75,-47,7,7,0.209453125,-0.289765625,1,0,0,0.8005,submitButton,31.40740741,0.297300347,-0.422322049,1,0,0,0,14,14,24,1,40,69775,blockT,180,2022-02-15_08h47.49.164,orientation adjustment block,2021.2.3,MacIntel,60.0024001,continueButton,,,,,,
,,,,,,,,,,,,,,,,,,,,,,67.22222222,59,20,75,53.22222222,5.777777778,5.777777778,0.416857639,-0.298914931,1,0,0,0.5327,submitButton,5.777777778,0.005859375,-0.365950521,0,0,0,0,15,15,43,1,59,69775,blockT,180,2022-02-15_08h47.49.164,orientation adjustment block,2021.2.3,MacIntel,60.0024001,,,,,,,
,,,,,,,,,,,,,,,,,,,,,,73.88888889,28,20,75,57.88888889,29.88888889,29.88888889,0.329613715,-0.310755208,1,0,0,0.0164,submitButton,17.83333333,-0.549331597,-0.420954861,0,0,0,0,16,16,12,1,28,69775,blockT,180,2022-02-15_08h47.49.164,orientation adjustment block,2021.2.3,MacIntel,60.0024001,,,,,,,
,,,,,,,,,,,,,,,,,,,,,,-20,-21,20,75,-119,82,82,0.358967014,-0.291753472,1,0,0,4.6991,submitButton,39.22222222,0.359023437,-0.247365451,0,0,0,0,17,17,5,1,21,69775,blockT,180,2022-02-15_08h47.49.164,orientation adjustment block,2021.2.3,MacIntel,60.0024001,,,,,,,
,,,,,,,,,,,,,,,,,,,,,,68.33333333,-75,20,75,-133.6666667,58.66666667,58.66666667,-0.523268229,-0.407478299,1,0,0,2.3006,submitButton,44.08333333,0.198958333,-0.206323785,0,0,0,0,18,18,59,1,75,69775,blockT,180,2022-02-15_08h47.49.164,orientation adjustment block,2021.2.3,MacIntel,60.0024001,,,,,,,
,,,,,,,,,,,,,,,,,,,,,,-48.88888889,48,20,75,-119.8888889,12.11111111,12.11111111,-0.561258681,-0.400585937,1,0,0,2.4497,submitButton,37.68888889,0.139800347,-0.289249132,0,0,0,0,19,19,32,1,48,69775,blockT,180,2022-02-15_08h47.49.164,orientation adjustment block,2021.2.3,MacIntel,60.0024001,,,,,,,
,,,,,,,,,,,,,,,,,,,,,,43.88888889,24,20,75,46.88888889,22.88888889,22.88888889,0.406046007,-0.286610243,1,0,0,0.5342,submitButton,35.22222222,0.165021701,-0.272278646,0,0,0,0,20,20,8,1,24,69775,blockT,180,2022-02-15_08h47.49.164,orientation adjustment block,2021.2.3,MacIntel,60.0024001,,,,,,,
,,,,,,,,,,,,,,,,,,,,,,-65,-66,20,75,-131,65,65,-0.534787326,-0.401623264,1,0,0,1.2172,submitButton,39.47619048,-0.246605903,-0.348710937,0,0,0,0,21,21,50,1,66,69775,blockT,180,2022-02-15_08h47.49.164,orientation adjustment block,2021.2.3,MacIntel,60.0024001,,,,,,,
,,,,,,,,,,,,,,,,,,,,,,38.33333333,60,20,75,51.33333333,8.666666667,8.666666667,0.399973958,-0.291132813,1,0,0,0.0175,submitButton,35.625,-0.51656684,-0.400082465,0,0,0,0,22,22,44,1,60,69775,blockT,180,2022-02-15_08h47.49.164,orientation adjustment block,2021.2.3,MacIntel,60.0024001,,,,,,,
,,,,,,,,,,,,,,,,,,,,,,-56.11111111,39,20,75,24.88888889,14.11111111,14.11111111,0.210525174,-0.298780382,1,0,0,0.3829,submitButton,33.2345679,-0.07641059,-0.336067708,0,0,0,0,23,23,23,1,39,69775,blockT,180,2022-02-15_08h47.49.164,orientation adjustment block,2021.2.3,MacIntel,60.0024001,,,,,,,
,,,,,,,,,,,,,,,,,,,,,,59.44444444,38,20,75,33.44444444,4.555555556,4.555555556,0.401219618,-0.28733941,1,0,0,0.5497,submitButton,30.36666667,-0.512547743,-0.39516059,0,0,0,0,24,24,22,1,38,69775,blockT,180,2022-02-15_08h47.49.164,orientation adjustment block,2021.2.3,MacIntel,60.0024001,,,,,,,
,,,,,,,,,,,,,,,,,,,,,,48.33333333,-61,20,75,27.33333333,88.33333333,88.33333333,-0.569045139,-0.402842882,1,0,0,1.0833,submitButton,35.63636364,-0.014375,-0.258138021,0,0,0,0,25,25,45,1,61,69775,blockT,180,2022-02-15_08h47.49.164,orientation adjustment block,2021.2.3,MacIntel,60.0024001,,,,,,,
,,,,,,,,,,,,,,,,,,,,,,50,-74,20,75,34,72,72,0.221037326,-0.276584201,1,0,0,0.9174,submitButton,38.66666667,0.096844618,-0.233862847,0,0,0,0,26,26,58,1,74,69775,blockT,180,2022-02-15_08h47.49.164,orientation adjustment block,2021.2.3,MacIntel,60.0024001,,,,,,,
,,,,,,,,,,,,,,,,,,,,,,-38.33333333,-67,20,75,-150.3333333,83.33333333,83.33333333,0.394388021,-0.297517361,1,0,0,0.267,submitButton,42.1025641,-0.524418403,-0.402912326,0,0,0,0,27,27,51,1,67,69775,blockT,180,2022-02-15_08h47.49.164,orientation adjustment block,2021.2.3,MacIntel,60.0024001,,,,,,,
,,,,,,,,,,,,,,,,,,,,,,-61.11111111,50,20,75,22.88888889,27.11111111,27.11111111,0.236701389,-0.299201389,1,0,0,0.1002,submitButton,41.03174603,-0.556458333,-0.408836806,0,0,0,0,28,28,34,1,50,69775,blockT,180,2022-02-15_08h47.49.164,orientation adjustment block,2021.2.3,MacIntel,60.0024001,,,,,,,
,,,,,,,,,,,,,,,,,,,,,,-56.66666667,-70,20,75,-126.6666667,56.66666667,56.66666667,-0.559084201,-0.400876736,1,0,0,1.1664,submitButton,42.07407407,0.326380208,-0.416006944,1,0,0,0,29,29,54,1,70,69775,blockT,180,2022-02-15_08h47.49.164,orientation adjustment block,2021.2.3,MacIntel,60.0024001,continueButton,,,,,,
,,,,,,,,,,,,,,,,,,,,,,-71.66666667,-31,20,75,-102.6666667,71.66666667,71.66666667,-0.535060764,-0.395182292,1,0,0,1.5828,submitButton,43.92361111,-0.054474826,-0.278519965,0,0,0,0,30,30,15,1,31,69775,blockT,180,2022-02-15_08h47.49.164,orientation adjustment block,2021.2.3,MacIntel,60.0024001,,,,,,,
,,,,,,,,,,,,,,,,,,,,,,-51.11111111,-30,20,75,-106.1111111,76.11111111,76.11111111,0.425177951,-0.282565104,1,0,0,0.4519,submitButton,45.81699346,0.107894965,-0.255872396,0,0,0,0,31,31,14,1,30,69775,blockT,180,2022-02-15_08h47.49.164,orientation adjustment block,2021.2.3,MacIntel,60.0024001,,,,,,,
,,,,,,,,,,,,,,,,,,,,,,-33.88888889,34,20,75,38.11111111,4.111111111,4.111111111,0.195789931,-0.31108941,1,0,0,0.1,submitButton,43.5,0.376210938,-0.240724826,0,0,0,0,32,32,18,1,34,69775,blockT,180,2022-02-15_08h47.49.164,orientation adjustment block,2021.2.3,MacIntel,60.0024001,,,,,,,
,,,,,,,,,,,,,,,,,,,,,,51.11111111,-68,20,75,14.11111111,82.11111111,82.11111111,0.210455729,-0.293012153,1,0,0,0.3499,submitButton,45.53216374,-0.293550347,-0.360442708,0,0,0,0,33,33,52,1,68,69775,blockT,180,2022-02-15_08h47.49.164,orientation adjustment block,2021.2.3,MacIntel,60.0024001,,,,,,,
,,,,,,,,,,,,,,,,,,,,,,38.88888889,-18,20,75,30.88888889,48.88888889,48.88888889,-0.545677083,-0.400329861,1,0,0,0.6334,submitButton,45.7,0.116167535,-0.324270833,0,0,0,0,34,34,2,1,18,69775,blockT,180,2022-02-15_08h47.49.164,orientation adjustment block,2021.2.3,MacIntel,60.0024001,,,,,,,
,,,,,,,,,,,,,,,,,,,,,,61.11111111,-45,20,75,16.11111111,61.11111111,61.11111111,-0.518697917,-0.398298611,1,0,0,0.8494,submitButton,46.43386243,-0.518697917,-0.398298611,0,0,0,0,35,35,29,1,45,69775,blockT,180,2022-02-15_08h47.49.164,orientation adjustment block,2021.2.3,MacIntel,60.0024001,,,,,,,
,,,,,,,,,,,,,,,,,,,,,,-62.77777778,58,20,75,20.22222222,37.77777778,37.77777778,-0.543081597,-0.39796875,1,0,0,1.3668,submitButton,46.04040404,-0.543081597,-0.39796875,0,0,0,0,36,36,42,1,58,69775,blockT,180,2022-02-15_08h47.49.164,orientation adjustment block,2021.2.3,MacIntel,60.0024001,,,,,,,
,,,,,,,,,,,,,,,,,,,,,,56.66666667,56,20,75,195.6666667,40.33333333,40.33333333,0.168758681,-0.28125,1,0,0,0.0995,submitButton,45.79227053,-0.557313368,-0.395173611,0,0,0,0,37,37,40,1,56,69775,blockT,180,2022-02-15_08h47.49.164,orientation adjustment block,2021.2.3,MacIntel,60.0024001,,,,,,,
,,,,,,,,,,,,,,,,,,,,,,54.44444444,-33,20,75,21.44444444,54.44444444,54.44444444,-0.534366319,-0.406783854,1,0,0,1.0164,submitButton,46.15277778,-0.533810764,-0.406783854,0,0,0,0,38,38,17,1,33,69775,blockT,180,2022-02-15_08h47.49.164,orientation adjustment block,2021.2.3,MacIntel,60.0024001,,,,,,,
,,,,,,,,,,,,,,,,,,,,,,53.88888889,-26,20,75,27.88888889,53.88888889,53.88888889,-0.533810764,-0.406783854,1,0,0,0.4488,submitButton,46.46222222,-0.533810764,-0.406783854,0,0,0,0,39,39,10,1,26,69775,blockT,180,2022-02-15_08h47.49.164,orientation adjustment block,2021.2.3,MacIntel,60.0024001,,,,,,,
,,,,,,,,,,,,,,,,,,,,,,-59.44444444,-55,20,75,-148.4444444,86.55555556,86.55555556,0.373923611,-0.315130208,1,0,0,1.8993,submitButton,48.0042735,-0.514965278,-0.397486979,0,0,0,0,40,40,39,1,55,69775,blockT,180,2022-02-15_08h47.49.164,orientation adjustment block,2021.2.3,MacIntel,60.0024001,,,,,,,
,,,,,,,,,,,,,,,,,,,,,,-28.88888889,63,20,75,34.11111111,28.88888889,28.88888889,-0.50437934,-0.393671875,1,0,0,2.2658,submitButton,47.2962963,-0.504934896,-0.393671875,0,0,0,0,41,41,47,1,63,69775,blockT,180,2022-02-15_08h47.49.164,orientation adjustment block,2021.2.3,MacIntel,60.0024001,,,,,,,
,,,,,,,,,,,,,,,,,,,,,,41.11111111,-35,20,75,6.111111111,41.11111111,41.11111111,-0.531875,-0.408194444,1,0,0,1.399,submitButton,47.07539683,-0.532986111,-0.40875,0,0,0,0,42,42,19,1,35,69775,blockT,180,2022-02-15_08h47.49.164,orientation adjustment block,2021.2.3,MacIntel,60.0024001,,,,,,,
,,,,,,,,,,,,,,,,,,,,,,32.22222222,62,20,75,215.2222222,26.77777778,26.77777778,0.170807292,-0.303207465,1,0,0,0.5497,submitButton,46.37547893,-0.534509549,-0.405915799,0,0,0,0,43,43,46,1,62,69775,blockT,180,2022-02-15_08h47.49.164,orientation adjustment block,2021.2.3,MacIntel,60.0024001,,,,,,,
,,,,,,,,,,,,,,,,,,,,,,-23.33333333,16,20,75,-7.333333333,23.33333333,23.33333333,-0.532842882,-0.404275174,1,0,0,0.699,submitButton,45.60740741,0.309852431,-0.413346354,1,0,0,0,44,44,0,1,16,69775,blockT,180,2022-02-15_08h47.49.164,orientation adjustment block,2021.2.3,MacIntel,60.0024001,continueButton,,,,,,
,,,,,,,,,,,,,,,,,,,,,,61.11111111,53,20,75,218.1111111,14.88888889,14.88888889,0.215664063,-0.302213542,1,0,0,0.0333,submitButton,44.61648746,0.238958333,-0.149448785,0,0,0,0,45,45,37,1,53,69775,blockT,180,2022-02-15_08h47.49.164,orientation adjustment block,2021.2.3,MacIntel,60.0024001,,,,,,,
,,,,,,,,,,,,,,,,,,,,,,-73.33333333,-69,20,75,-122.3333333,53.33333333,53.33333333,-0.546501736,-0.41125,1,0,0,0.7494,submitButton,44.88888889,-0.418342014,-0.385594618,0,0,0,0,46,46,53,1,69,69775,blockT,180,2022-02-15_08h47.49.164,orientation adjustment block,2021.2.3,MacIntel,60.0024001,,,,,,,
,,,,,,,,,,,,,,,,,,,,,,23.33333333,44,20,75,67.33333333,23.33333333,23.33333333,-0.535047743,-0.398033854,1,0,0,0.8167,submitButton,44.23569024,-0.535047743,-0.392686632,0,0,0,0,47,47,28,1,44,69775,blockT,180,2022-02-15_08h47.49.164,orientation adjustment block,2021.2.3,MacIntel,60.0024001,,,,,,,
,,,,,,,,,,,,,,,,,,,,,,24.44444444,-20,20,75,42.44444444,62.44444444,62.44444444,0.206371528,-0.278372396,1,0,0,0.2343,submitButton,44.77124183,-0.511779514,-0.410690104,0,0,0,0,48,48,4,1,20,69775,blockT,180,2022-02-15_08h47.49.164,orientation adjustment block,2021.2.3,MacIntel,60.0024001,,,,,,,
,,,,,,,,,,,,,,,,,,,,,,-22.77777778,37,20,75,14.22222222,22.77777778,22.77777778,-0.511779514,-0.410690104,1,0,0,0.5993,submitButton,44.14285714,-0.511779514,-0.410690104,0,0,0,0,49,49,21,1,37,69775,blockT,180,2022-02-15_08h47.49.164,orientation adjustment block,2021.2.3,MacIntel,60.0024001,,,,,,,
,,,,,,,,,,,,,,,,,,,,,,21.66666667,36,20,75,57.66666667,21.66666667,21.66666667,-0.533546007,-0.399986979,1,0,0,0.4658,submitButton,43.51851852,-0.533546007,-0.400542535,0,0,0,0,50,50,20,1,36,69775,blockT,180,2022-02-15_08h47.49.164,orientation adjustment block,2021.2.3,MacIntel,60.0024001,,,,,,,
,,,,,,,,,,,,,,,,,,,,,,72.77777778,43,20,75,218.7777778,4.222222222,4.222222222,0.18296875,-0.327326389,1,0,0,0.616,submitButton,42.45645646,-0.537256944,-0.397256944,0,0,0,0,51,51,27,1,43,69775,blockT,180,2022-02-15_08h47.49.164,orientation adjustment block,2021.2.3,MacIntel,60.0024001,,,,,,,
,,,,,,,,,,,,,,,,,,,,,,-36.66666667,57,20,75,20.33333333,36.66666667,36.66666667,-0.550421007,-0.404735243,1,0,0,0.6671,submitButton,42.30409357,-0.549309896,-0.405290799,0,0,0,0,52,52,41,1,57,69775,blockT,180,2022-02-15_08h47.49.164,orientation adjustment block,2021.2.3,MacIntel,60.0024001,,,,,,,
,,,,,,,,,,,,,,,,,,,,,,-25,-19,20,75,25,44,44,-0.533250868,-0.387604167,1,0,0,1.5834,submitButton,42.34757835,-0.324140625,-0.342235243,0,0,0,0,53,53,3,1,19,69775,blockT,180,2022-02-15_08h47.49.164,orientation adjustment block,2021.2.3,MacIntel,60.0024001,,,,,,,
,,,,,,,,,,,,,,,,,,,,,,-41.66666667,-72,20,75,-124.6666667,52.66666667,52.66666667,0.414344618,-0.295490451,1,0,0,0.2335,submitButton,42.60555556,-0.555538194,-0.40140625,0,0,0,0,54,54,56,1,72,69775,blockT,180,2022-02-15_08h47.49.164,orientation adjustment block,2021.2.3,MacIntel,60.0024001,,,,,,,
,,,,,,,,,,,,,,,,,,,,,,-65,-65,20,75,-116,51,51,-0.558832465,-0.387734375,1,0,0,0.5507,submitButton,42.8102981,-0.542174479,-0.389782986,0,0,0,0,55,55,49,1,65,69775,blockT,180,2022-02-15_08h47.49.164,orientation adjustment block,2021.2.3,MacIntel,60.0024001,,,,,,,
,,,,,,,,,,,,,,,,,,,,,,36.11111111,-41,20,75,38.11111111,79.11111111,79.11111111,0.195881076,-0.29359375,1,0,0,0.0326,submitButton,43.67460317,-0.170121528,-0.271111111,0,0,0,0,56,56,25,1,41,69775,blockT,180,2022-02-15_08h47.49.164,orientation adjustment block,2021.2.3,MacIntel,60.0024001,,,,,,,
,,,,,,,,,,,,,,,,,,,,,,72.77777778,-25,20,75,47.77777778,72.77777778,72.77777778,-0.540056424,-0.403897569,1,0,0,0.5671,submitButton,44.35142119,-0.540056424,-0.404453125,0,0,0,0,57,57,9,1,25,69775,blockT,180,2022-02-15_08h47.49.164,orientation adjustment block,2021.2.3,MacIntel,60.0024001,,,,,,,
,,,,,,,,,,,,,,,,,,,,,,53.33333333,32,20,75,56.33333333,24.33333333,24.33333333,0.454283854,-0.296501736,1,0,0,0.5823,submitButton,43.89646465,-0.568224826,-0.404874132,0,0,0,0,58,58,16,1,32,69775,blockT,180,2022-02-15_08h47.49.164,orientation adjustment block,2021.2.3,MacIntel,60.0024001,,,,,,,
,,,,,,,,,,,,,,,,,,,,,,66.11111111,-51,20,75,37.11111111,88.11111111,88.11111111,0.217604167,-0.288771701,1,0,0,0.1677,submitButton,44.87901235,0.350724826,-0.403268229,1,0,0,0,59,59,35,1,51,69775,blockT,180,2022-02-15_08h47.49.164,orientation adjustment block,2021.2.3,MacIntel,60.0024001,continueButton,,,,,,
,,,,,,,,,,,,,,,,,,,,,,-37.77777778,72,20,75,34.22222222,37.77777778,37.77777778,-0.560195312,-0.402200521,1,0,0,2.4161,submitButton,44.72463768,-0.552265625,-0.403090278,0,0,0,1,0,60,56,1,72,69775,blockT,180,2022-02-15_08h47.49.164,orientation adjustment block,2021.2.3,MacIntel,60.0024001,,,,,,,
,,,,,,,,,,,,,,,,,,,,,,31.66666667,70,20,75,101.6666667,31.66666667,31.66666667,-0.552265625,-0.403090278,1,0,0,0.4841,submitButton,44.44680851,-0.552265625,-0.403090278,0,0,0,1,1,61,54,1,70,69775,blockT,180,2022-02-15_08h47.49.164,orientation adjustment block,2021.2.3,MacIntel,60.0024001,,,,,,,
,,,,,,,,,,,,,,,,,,,,,,22.77777778,52,20,75,67.77777778,15.77777778,15.77777778,0.41390191,-0.318763021,1,0,0,0.8169,submitButton,43.84953704,-0.541297743,-0.401861979,0,0,0,1,2,62,36,1,52,69775,blockT,180,2022-02-15_08h47.49.164,orientation adjustment block,2021.2.3,MacIntel,60.0024001,,,,,,,
,,,,,,,,,,,,,,,,,,,,,,-56.11111111,23,20,75,1.888888889,21.11111111,21.11111111,0.167209201,-0.273776042,1,0,0,0.6492,submitButton,43.38548753,-0.522517361,-0.383528646,0,0,0,1,3,63,7,1,23,69775,blockT,180,2022-02-15_08h47.49.164,orientation adjustment block,2021.2.3,MacIntel,60.0024001,,,,,,,
,,,,,,,,,,,,,,,,,,,,,,-72.22222222,-18,20,75,-131.2222222,66.77777778,66.77777778,0.378289931,-0.276684028,1,0,0,4.7008,submitButton,43.85333333,-0.544118924,-0.402508681,0,0,0,1,4,64,2,1,18,69775,blockT,180,2022-02-15_08h47.49.164,orientation adjustment block,2021.2.3,MacIntel,60.0024001,,,,,,,
,,,,,,,,,,,,,,,,,,,,,,-21.66666667,35,20,75,13.33333333,21.66666667,21.66666667,-0.544118924,-0.402508681,1,0,0,62.998,submitButton,43.41830065,-0.544118924,-0.402508681,0,0,0,1,5,65,19,1,35,69775,blockT,180,2022-02-15_08h47.49.164,orientation adjustment block,2021.2.3,MacIntel,60.0024001,,,,,,,
,,,,,,,,,,,,,,,,,,,,,,65.55555556,-43,20,75,22.55555556,65.55555556,65.55555556,-0.52953125,-0.402907986,1,0,0,3.8326,submitButton,43.84401709,-0.528224826,-0.402374132,0,0,0,1,6,66,27,1,43,69775,blockT,180,2022-02-15_08h47.49.164,orientation adjustment block,2021.2.3,MacIntel,60.0024001,,,,,,,
,,,,,,,,,,,,,,,,,,,,,,21.66666667,-49,20,75,40.66666667,89.66666667,89.66666667,-0.541892361,-0.398038194,1,0,0,1.7993,submitButton,44.70859539,-0.432747396,-0.366631944,0,0,0,1,7,67,33,1,49,69775,blockT,180,2022-02-15_08h47.49.164,orientation adjustment block,2021.2.3,MacIntel,60.0024001,,,,,,,
,,,,,,,,,,,,,,,,,,,,,,-30,58,20,75,17,41,41,-0.540907118,-0.408133681,1,0,0,0.5832,submitButton,44.6399177,-0.540907118,-0.409244792,0,0,0,1,8,68,42,1,58,69775,blockT,180,2022-02-15_08h47.49.164,orientation adjustment block,2021.2.3,MacIntel,60.0024001,,,,,,,
,,,,,,,,,,,,,,,,,,,,,,-34.44444444,20,20,75,24.55555556,4.555555556,4.555555556,-0.554613715,-0.387243924,1,0,0,1.5321,submitButton,43.91111111,-0.554613715,-0.387799479,0,0,0,1,9,69,4,1,20,69775,blockT,180,2022-02-15_08h47.49.164,orientation adjustment block,2021.2.3,MacIntel,60.0024001,,,,,,,
,,,,,,,,,,,,,,,,,,,,,,-35.55555556,41,20,75,5.444444444,35.55555556,35.55555556,-0.555915799,-0.403263889,1,0,0,0.6164,submitButton,43.76190476,-0.555915799,-0.403819444,0,0,0,1,10,70,25,1,41,69775,blockT,180,2022-02-15_08h47.49.164,orientation adjustment block,2021.2.3,MacIntel,60.0024001,,,,,,,
,,,,,,,,,,,,,,,,,,,,,,47.77777778,37,20,75,55.77777778,18.77777778,18.77777778,0.407682292,-0.30233941,1,0,0,0.4665,submitButton,43.32358674,-0.539006076,-0.400659722,0,0,0,1,11,71,21,1,37,69775,blockT,180,2022-02-15_08h47.49.164,orientation adjustment block,2021.2.3,MacIntel,60.0024001,,,,,,,
,,,,,,,,,,,,,,,,,,,,,,-61.66666667,-45,20,75,-125.6666667,80.66666667,80.66666667,0.378962674,-0.293268229,1,0,0,0.2162,submitButton,43.96743295,-0.493454861,-0.394253472,0,0,0,1,12,72,29,1,45,69775,blockT,180,2022-02-15_08h47.49.164,orientation adjustment block,2021.2.3,MacIntel,60.0024001,,,,,,,
,,,,,,,,,,,,,,,,,,,,,,56.66666667,31,20,75,49.66666667,18.66666667,18.66666667,0.373298611,-0.28,1,0,0,1.9838,submitButton,43.5386064,-0.51546441,-0.405512153,0,0,0,1,13,73,15,1,31,69775,blockT,180,2022-02-15_08h47.49.164,orientation adjustment block,2021.2.3,MacIntel,60.0024001,,,,,,,
,,,,,,,,,,,,,,,,,,,,,,28.88888889,29,20,75,57.88888889,28.88888889,28.88888889,-0.526666667,-0.400329861,1,0,0,1.0008,submitButton,43.29444444,0.344787326,-0.401922743,1,0,0,1,14,74,13,1,29,69775,blockT,180,2022-02-15_08h47.49.164,orientation adjustment block,2021.2.3,MacIntel,60.0024001,continueButton,,,,,,
,,,,,,,,,,,,,,,,,,,,,,62.22222222,-22,20,75,41.22222222,63.22222222,63.22222222,0.400026042,-0.285182292,1,0,0,0.3325,submitButton,43.62112933,-0.521931424,-0.39827691,0,0,0,1,15,75,6,1,22,69775,blockT,180,2022-02-15_08h47.49.164,orientation adjustment block,2021.2.3,MacIntel,60.0024001,,,,,,,
,,,,,,,,,,,,,,,,,,,,,,47.22222222,42,20,75,51.22222222,9.222222222,9.222222222,0.386961806,-0.295230035,1,0,0,2.9508,submitButton,43.06630824,-0.533784722,-0.407634549,0,0,0,1,16,76,26,1,42,69775,blockT,180,2022-02-15_08h47.49.164,orientation adjustment block,2021.2.3,MacIntel,60.0024001,,,,,,,
,,,,,,,,,,,,,,,,,,,,,,-30.55555556,-67,20,75,-120.5555556,53.55555556,53.55555556,0.403025174,-0.291918403,1,0,0,1.7667,submitButton,43.23280423,-0.526358507,-0.406341146,0,0,0,1,17,77,51,1,67,69775,blockT,180,2022-02-15_08h47.49.164,orientation adjustment block,2021.2.3,MacIntel,60.0024001,,,,,,,
,,,,,,,,,,,,,,,,,,,,,,58.33333333,24,20,75,59.33333333,35.33333333,35.33333333,0.389752604,-0.310421007,1,0,0,0.316,submitButton,43.109375,-0.464006076,-0.384188368,0,0,0,1,18,78,8,1,24,69775,blockT,180,2022-02-15_08h47.49.164,orientation adjustment block,2021.2.3,MacIntel,60.0024001,,,,,,,
,,,,,,,,,,,,,,,,,,,,,,-53.33333333,44,20,75,25.66666667,18.33333333,18.33333333,0.189027778,-0.310195312,1,0,0,1.0653,submitButton,42.72820513,-0.519327257,-0.395655382,0,0,0,1,19,79,28,1,44,69775,blockT,180,2022-02-15_08h47.49.164,orientation adjustment block,2021.2.3,MacIntel,60.0024001,,,,,,,
,,,,,,,,,,,,,,,,,,,,,,-62.22222222,47,20,75,19.77777778,27.22222222,27.22222222,-0.564791667,-0.408333333,1,0,0,1.3499,submitButton,42.49326599,0.221727431,-0.188203125,0,0,0,1,20,80,31,1,47,69775,blockT,180,2022-02-15_08h47.49.164,orientation adjustment block,2021.2.3,MacIntel,60.0024001,,,,,,,
,,,,,,,,,,,,,,,,,,,,,,50,73,20,75,54,19,19,0.430707465,-0.268993056,1,0,0,0.3669,submitButton,42.14262023,-0.288172743,-0.348224826,0,0,0,1,21,81,57,1,73,69775,blockT,180,2022-02-15_08h47.49.164,orientation adjustment block,2021.2.3,MacIntel,60.0024001,,,,,,,
,,,,,,,,,,,,,,,,,,,,,,-42.77777778,74,20,75,31.22222222,42.77777778,42.77777778,-0.555477431,-0.397960069,1,0,0,0.7332,submitButton,42.15196078,-0.395568576,-0.386644965,0,0,0,1,22,82,58,1,74,69775,blockT,180,2022-02-15_08h47.49.164,orientation adjustment block,2021.2.3,MacIntel,60.0024001,,,,,,,
,,,,,,,,,,,,,,,,,,,,,,-70,32,20,75,21,11,11,0.209283854,-0.309414062,1,0,0,0.9997,submitButton,41.70048309,-0.532894965,-0.40749566,0,0,0,1,23,83,16,1,32,69775,blockT,180,2022-02-15_08h47.49.164,orientation adjustment block,2021.2.3,MacIntel,60.0024001,,,,,,,
,,,,,,,,,,,,,,,,,,,,,,-20.55555556,-69,20,75,-126.5555556,57.55555556,57.55555556,-0.55437934,-0.406358507,1,0,0,1.2169,submitButton,41.92698413,-0.553823785,-0.406358507,0,0,0,1,24,84,53,1,69,69775,blockT,180,2022-02-15_08h47.49.164,orientation adjustment block,2021.2.3,MacIntel,60.0024001,,,,,,,
,,,,,,,,,,,,,,,,,,,,,,-21.66666667,48,20,75,26.33333333,21.66666667,21.66666667,-0.554257812,-0.397261285,1,0,0,0.7331,submitButton,41.64162754,-0.553702257,-0.398372396,0,0,0,1,25,85,32,1,48,69775,blockT,180,2022-02-15_08h47.49.164,orientation adjustment block,2021.2.3,MacIntel,60.0024001,,,,,,,
,,,,,,,,,,,,,,,,,,,,,,-38.88888889,36,20,75,24.11111111,11.88888889,11.88888889,0.197634549,-0.291597222,1,0,0,4.6836,submitButton,41.22839506,-0.536705729,-0.407469618,0,0,0,1,26,86,20,1,36,69775,blockT,180,2022-02-15_08h47.49.164,orientation adjustment block,2021.2.3,MacIntel,60.0024001,,,,,,,
,,,,,,,,,,,,,,,,,,,,,,64.44444444,33,20,75,53.44444444,20.44444444,20.44444444,0.396883681,-0.310386285,1,0,0,0.9664,submitButton,40.94368341,-0.545334201,-0.420325521,0,0,0,1,27,87,17,1,33,69775,blockT,180,2022-02-15_08h47.49.164,orientation adjustment block,2021.2.3,MacIntel,60.0024001,,,,,,,
,,,,,,,,,,,,,,,,,,,,,,36.11111111,-64,20,75,28.11111111,87.88888889,87.88888889,0.198220486,-0.31015625,1,0,0,1.4842,submitButton,41.57807808,-0.518498264,-0.410603299,0,0,0,1,28,88,48,1,64,69775,blockT,180,2022-02-15_08h47.49.164,orientation adjustment block,2021.2.3,MacIntel,60.0024001,,,,,,,
,,,,,,,,,,,,,,,,,,,,,,45.55555556,60,20,75,59.55555556,0.444444444,0.444444444,-0.556757813,-0.411584201,1,0,0,1.5668,submitButton,41.02962963,0.3540625,-0.404735243,1,0,0,1,29,89,44,1,60,69775,blockT,180,2022-02-15_08h47.49.164,orientation adjustment block,2021.2.3,MacIntel,60.0024001,continueButton,,,,,,
,,,,,,,,,,,,,,,,,,,,,,46.66666667,-59,20,75,-12.33333333,46.66666667,46.66666667,-0.537894965,-0.40437066,1,0,0,1.7161,submitButton,41.10380117,-0.537894965,-0.40437066,0,0,0,1,30,90,43,1,59,69775,blockT,180,2022-02-15_08h47.49.164,orientation adjustment block,2021.2.3,MacIntel,60.0024001,,,,,,,
,,,,,,,,,,,,,,,,,,,,,,41.66666667,-26,20,75,15.66666667,41.66666667,41.66666667,-0.523763021,-0.410277778,1,0,0,5.3672,submitButton,41.11111111,-0.523763021,-0.410277778,0,0,0,1,31,91,10,1,26,69775,blockT,180,2022-02-15_08h47.49.164,orientation adjustment block,2021.2.3,MacIntel,60.0024001,,,,,,,
,,,,,,,,,,,,,,,,,,,,,,52.22222222,-63,20,75,14.22222222,77.22222222,77.22222222,0.218125,-0.313489583,1,0,0,0.2336,submitButton,41.57407407,-0.534210069,-0.383168403,0,0,0,1,32,92,47,1,63,69775,blockT,180,2022-02-15_08h47.49.164,orientation adjustment block,2021.2.3,MacIntel,60.0024001,,,,,,,
,,,,,,,,,,,,,,,,,,,,,,71.11111111,68,20,75,198.1111111,49.88888889,49.88888889,0.236588542,-0.316822917,1,0,0,0.0341,submitButton,41.67932489,-0.587873264,-0.418411458,0,0,0,1,33,93,52,1,68,69775,blockT,180,2022-02-15_08h47.49.164,orientation adjustment block,2021.2.3,MacIntel,60.0024001,,,,,,,
,,,,,,,,,,,,,,,,,,,,,,-32.22222222,-51,20,75,-126.2222222,75.22222222,75.22222222,0.421124132,-0.302582465,1,0,0,0.2836,submitButton,42.09861111,-0.534388021,-0.40578125,0,0,0,1,34,94,35,1,51,69775,blockT,180,2022-02-15_08h47.49.164,orientation adjustment block,2021.2.3,MacIntel,60.0024001,,,,,,,
,,,,,,,,,,,,,,,,,,,,,,64.44444444,-50,20,75,14.44444444,64.44444444,64.44444444,-0.534388021,-0.40578125,1,0,0,0.7832,submitButton,42.3744856,-0.534388021,-0.40578125,0,0,0,1,35,95,34,1,50,69775,blockT,180,2022-02-15_08h47.49.164,orientation adjustment block,2021.2.3,MacIntel,60.0024001,,,,,,,
,,,,,,,,,,,,,,,,,,,,,,-70.55555556,53,20,75,-17.55555556,70.55555556,70.55555556,-0.534388021,-0.40578125,1,0,0,2.9333,submitButton,42.71815718,-0.534388021,-0.40578125,0,0,0,1,36,96,37,1,53,69775,blockT,180,2022-02-15_08h47.49.164,orientation adjustment block,2021.2.3,MacIntel,60.0024001,,,,,,,
,,,,,,,,,,,,,,,,,,,,,,30.55555556,-34,20,75,-3.444444444,30.55555556,30.55555556,-0.533841146,-0.403728299,1,0,0,0.384,submitButton,42.57161981,-0.533841146,-0.403728299,0,0,0,1,37,97,18,1,34,69775,blockT,180,2022-02-15_08h47.49.164,orientation adjustment block,2021.2.3,MacIntel,60.0024001,,,,,,,
,,,,,,,,,,,,,,,,,,,,,,26.66666667,28,20,75,54.66666667,26.66666667,26.66666667,-0.53358941,-0.403467882,1,0,0,0.3492,submitButton,42.38227513,-0.53358941,-0.403467882,0,0,0,1,38,98,12,1,28,69775,blockT,180,2022-02-15_08h47.49.164,orientation adjustment block,2021.2.3,MacIntel,60.0024001,,,,,,,
,,,,,,,,,,,,,,,,,,,,,,32.22222222,75,20,75,177.2222222,77.77777778,77.77777778,0.224674479,-0.280898437,1,0,0,1.3175,submitButton,42.79869281,-0.528172743,-0.40953559,0,0,0,1,39,99,59,1,75,69775,blockT,180,2022-02-15_08h47.49.164,orientation adjustment block,2021.2.3,MacIntel,60.0024001,,,,,,,
,,,,,,,,,,,,,,,,,,,,,,59.44444444,-55,20,75,4.444444444,59.44444444,59.44444444,-0.539301215,-0.416310764,1,0,0,0.7178,submitButton,42.99224806,-0.539301215,-0.416310764,0,0,0,1,40,100,39,1,55,69775,blockT,180,2022-02-15_08h47.49.164,orientation adjustment block,2021.2.3,MacIntel,60.0024001,,,,,,,
,,,,,,,,,,,,,,,,,,,,,,68.33333333,-57,20,75,11.33333333,68.33333333,68.33333333,-0.528302951,-0.420203993,1,0,0,5.5494,submitButton,43.2835249,-0.528302951,-0.420203993,0,0,0,1,41,101,41,1,57,69775,blockT,180,2022-02-15_08h47.49.164,orientation adjustment block,2021.2.3,MacIntel,60.0024001,,,,,,,
,,,,,,,,,,,,,,,,,,,,,,-31.66666667,-65,20,75,-96.66666667,31.66666667,31.66666667,-0.526692708,-0.41875434,1,0,0,0.4166,submitButton,43.15151515,-0.526692708,-0.41875434,0,0,0,1,42,102,49,1,65,69775,blockT,180,2022-02-15_08h47.49.164,orientation adjustment block,2021.2.3,MacIntel,60.0024001,,,,,,,
,,,,,,,,,,,,,,,,,,,,,,73.88888889,16,20,75,89.88888889,73.88888889,73.88888889,-0.526180556,-0.418480903,1,0,0,0.4333,submitButton,43.4968789,-0.526180556,-0.418480903,0,0,0,1,43,103,0,1,16,69775,blockT,180,2022-02-15_08h47.49.164,orientation adjustment block,2021.2.3,MacIntel,60.0024001,,,,,,,
,,,,,,,,,,,,,,,,,,,,,,62.22222222,61,20,75,64.22222222,3.222222222,3.222222222,0.382335069,-0.303940972,1,0,0,1.0994,submitButton,43.04938272,0.321154514,-0.398272569,1,0,0,1,44,104,45,1,61,69775,blockT,180,2022-02-15_08h47.49.164,orientation adjustment block,2021.2.3,MacIntel,60.0024001,continueButton,,,,,,
,,,,,,,,,,,,,,,,,,,,,,-49.44444444,39,20,75,-10.44444444,49.44444444,49.44444444,-0.52718316,-0.401992187,1,0,0,0.6499,submitButton,43.11965812,-0.52718316,-0.401992187,0,0,0,1,45,105,23,1,39,69775,blockT,180,2022-02-15_08h47.49.164,orientation adjustment block,2021.2.3,MacIntel,60.0024001,,,,,,,
,,,,,,,,,,,,,,,,,,,,,,22.22222222,66,20,75,61.22222222,4.777777778,4.777777778,0.371393229,-0.292378472,1,0,0,0.0505,submitButton,42.70289855,-0.518841146,-0.389743924,0,0,0,1,46,106,50,1,66,69775,blockT,180,2022-02-15_08h47.49.164,orientation adjustment block,2021.2.3,MacIntel,60.0024001,,,,,,,
,,,,,,,,,,,,,,,,,,,,,,-53.33333333,46,20,75,18.66666667,27.33333333,27.33333333,0.153988715,-0.296137153,1,0,0,0.3834,submitButton,42.53763441,-0.523068576,-0.401076389,0,0,0,1,47,107,30,1,46,69775,blockT,180,2022-02-15_08h47.49.164,orientation adjustment block,2021.2.3,MacIntel,60.0024001,,,,,,,
,,,,,,,,,,,,,,,,,,,,,,-49.44444444,-27,20,75,14.55555556,41.55555556,41.55555556,0.214296875,-0.292039931,1,0,0,0.3159,submitButton,42.52718676,-0.53343316,-0.407669271,0,0,0,1,48,108,11,1,27,69775,blockT,180,2022-02-15_08h47.49.164,orientation adjustment block,2021.2.3,MacIntel,60.0024001,,,,,,,
,,,,,,,,,,,,,,,,,,,,,,31.11111111,21,20,75,52.11111111,31.11111111,31.11111111,-0.533563368,-0.407669271,1,0,0,0.3996,submitButton,42.40701754,-0.534118924,-0.407669271,0,0,0,1,49,109,5,1,21,69775,blockT,180,2022-02-15_08h47.49.164,orientation adjustment block,2021.2.3,MacIntel,60.0024001,,,,,,,
,,,,,,,,,,,,,,,,,,,,,,-63.33333333,40,20,75,-23.33333333,63.33333333,63.33333333,-0.534118924,-0.407669271,1,0,0,0.6165,submitButton,42.625,-0.534118924,-0.407669271,0,0,0,1,50,110,24,1,40,69775,blockT,180,2022-02-15_08h47.49.164,orientation adjustment block,2021.2.3,MacIntel,60.0024001,,,,,,,
,,,,,,,,,,,,,,,,,,,,,,-49.44444444,38,20,75,-11.44444444,49.44444444,49.44444444,-0.534118924,-0.407669271,1,0,0,0.5826,submitButton,42.69530355,-0.534118924,-0.407669271,0,0,0,1,51,111,22,1,38,69775,blockT,180,2022-02-15_08h47.49.164,orientation adjustment block,2021.2.3,MacIntel,60.0024001,,,,,,,
,,,,,,,,,,,,,,,,,,,,,,31.66666667,71,20,75,197.6666667,53.33333333,53.33333333,0.144401042,-0.298554688,1,0,0,1.7994,submitButton,42.80385488,-0.510373264,-0.39609375,0,0,0,1,52,112,55,1,71,69775,blockT,180,2022-02-15_08h47.49.164,orientation adjustment block,2021.2.3,MacIntel,60.0024001,,,,,,,
,,,,,,,,,,,,,,,,,,,,,,68.88888889,25,20,75,156.8888889,48.11111111,48.11111111,0.186697049,-0.318077257,1,0,0,0.2667,submitButton,42.85746352,-0.545729167,-0.408880208,0,0,0,1,53,113,9,1,25,69775,blockT,180,2022-02-15_08h47.49.164,orientation adjustment block,2021.2.3,MacIntel,60.0024001,,,,,,,
,,,,,,,,,,,,,,,,,,,,,,50.55555556,-56,20,75,19.55555556,75.55555556,75.55555556,0.227907986,-0.271354167,1,0,0,0.1661,submitButton,43.18444444,-0.552243924,-0.404348958,0,0,0,1,54,114,40,1,56,69775,blockT,180,2022-02-15_08h47.49.164,orientation adjustment block,2021.2.3,MacIntel,60.0024001,,,,,,,
,,,,,,,,,,,,,,,,,,,,,,59.44444444,-54,20,75,5.444444444,59.44444444,59.44444444,-0.553849826,-0.426019965,1,0,0,0.6,submitButton,43.34543454,-0.550013021,-0.424826389,0,0,0,1,55,115,38,1,54,69775,blockT,180,2022-02-15_08h47.49.164,orientation adjustment block,2021.2.3,MacIntel,60.0024001,,,,,,,
,,,,,,,,,,,,,,,,,,,,,,-45,-19,20,75,15,34,34,0.215694444,-0.315516493,1,0,0,1.0482,submitButton,43.25381264,-0.546618924,-0.41109375,0,0,0,1,56,116,3,1,19,69775,blockT,180,2022-02-15_08h47.49.164,orientation adjustment block,2021.2.3,MacIntel,60.0024001,,,,,,,
,,,,,,,,,,,,,,,,,,,,,,-66.66666667,-62,20,75,-147.6666667,85.66666667,85.66666667,0.384969618,-0.319405382,1,0,0,1.167,submitButton,43.66558792,-0.54562066,-0.406631944,0,0,0,1,57,117,46,1,62,69775,blockT,180,2022-02-15_08h47.49.164,orientation adjustment block,2021.2.3,MacIntel,60.0024001,,,,,,,
,,,,,,,,,,,,,,,,,,,,,,68.33333333,17,20,75,56.33333333,39.33333333,39.33333333,0.396653646,-0.289561632,1,0,0,0.2007,submitButton,43.62393162,-0.427092014,-0.356427951,0,0,0,1,58,118,1,1,17,69775,blockT,180,2022-02-15_08h47.49.164,orientation adjustment block,2021.2.3,MacIntel,60.0024001,,,,,,,
,,,,,,,,,,,,,,,,,,,,,,26.66666667,-30,20,75,23.66666667,53.66666667,53.66666667,0.204227431,-0.308580729,1,0,0,0.3673,submitButton,43.71957672,0.36953125,-0.405269097,1,0,0,1,59,119,14,1,30,69775,blockT,180,2022-02-15_08h47.49.164,orientation adjustment block,2021.2.3,MacIntel,60.0024001,continueButton,,,,,,
,,,,,,,,,,,,,,,,,,,,,,-50.55555556,-50,20,75,20.44444444,70.44444444,70.44444444,0.208146701,-0.295082465,1,0,0,1.3835,submitButton,43.97169811,-0.325347222,-0.390451389,0,0,0,2,0,120,34,1,50,69775,blockT,180,2022-02-15_08h47.49.164,orientation adjustment block,2021.2.3,MacIntel,60.0024001,,,,,,,
,,,,,,,,,,,,,,,,,,,,,,33.33333333,-36,20,75,26.33333333,62.33333333,62.33333333,-0.509570312,-0.393472222,1,0,0,0.5007,submitButton,44.14330218,0.100329861,-0.288710937,0,0,0,2,1,121,20,1,36,69775,blockT,180,2022-02-15_08h47.49.164,orientation adjustment block,2021.2.3,MacIntel,60.0024001,,,,,,,
,,,,,,,,,,,,,,,,,,,,,,40,31,20,75,201,10,10,-0.546315104,-0.407894965,1,0,0,2.2667,submitButton,43.82716049,-0.492899306,-0.371263021,0,0,0,2,2,122,15,1,31,69775,blockT,180,2022-02-15_08h47.49.164,orientation adjustment block,2021.2.3,MacIntel,60.0024001,,,,,,,
,,,,,,,,,,,,,,,,,,,,,,31.11111111,47,20,75,181.1111111,45.88888889,45.88888889,-0.534262153,-0.389327257,1,0,0,2.783,submitButton,43.84607543,-0.531848958,-0.393454861,0,0,0,2,3,123,31,1,47,69775,blockT,180,2022-02-15_08h47.49.164,orientation adjustment block,2021.2.3,MacIntel,60.0024001,,,,,,,
,,,,,,,,,,,,,,,,,,,,,,-24.44444444,39,20,75,14.55555556,24.44444444,24.44444444,-0.538871528,-0.387960069,1,0,0,7.2323,submitButton,43.66969697,-0.388702257,-0.243741319,0,0,0,2,4,124,23,1,39,69775,blockT,180,2022-02-15_08h47.49.164,orientation adjustment block,2021.2.3,MacIntel,60.0024001,,,,,,,
,,,,,,,,,,,,,,,,,,,,,,-22.77777778,59,20,75,15.22222222,43.77777778,43.77777778,-0.547877604,-0.396840278,1,0,0,0.7668,submitButton,43.67067067,-0.547877604,-0.396840278,0,0,0,2,5,125,43,1,59,69775,blockT,180,2022-02-15_08h47.49.164,orientation adjustment block,2021.2.3,MacIntel,60.0024001,,,,,,,
,,,,,,,,,,,,,,,,,,,,,,30.55555556,61,20,75,58.55555556,2.444444444,2.444444444,0.400039062,-0.288081597,1,0,0,1.6325,submitButton,43.30257937,-0.53125434,-0.394913194,0,0,0,2,6,126,45,1,61,69775,blockT,180,2022-02-15_08h47.49.164,orientation adjustment block,2021.2.3,MacIntel,60.0024001,,,,,,,
,,,,,,,,,,,,,,,,,,,,,,-66.66666667,-67,20,75,-133.6666667,66.66666667,66.66666667,-0.527456597,-0.402947049,1,0,0,0.4335,submitButton,43.5093412,-0.527456597,-0.402947049,0,0,0,2,7,127,51,1,67,69775,blockT,180,2022-02-15_08h47.49.164,orientation adjustment block,2021.2.3,MacIntel,60.0024001,,,,,,,
,,,,,,,,,,,,,,,,,,,,,,-72.77777778,-74,20,75,-146.7777778,72.77777778,72.77777778,-0.527456597,-0.402947049,1,0,0,0.9668,submitButton,43.76608187,-0.527456597,-0.402947049,0,0,0,2,8,128,58,1,74,69775,blockT,180,2022-02-15_08h47.49.164,orientation adjustment block,2021.2.3,MacIntel,60.0024001,,,,,,,
,,,,,,,,,,,,,,,,,,,,,,68.33333333,-60,20,75,8.333333333,68.33333333,68.33333333,-0.527456597,-0.402947049,1,0,0,1.7503,submitButton,43.97971014,-0.527456597,-0.402947049,0,0,0,2,9,129,44,1,60,69775,blockT,180,2022-02-15_08h47.49.164,orientation adjustment block,2021.2.3,MacIntel,60.0024001,,,,,,,
,,,,,,,,,,,,,,,,,,,,,,46.66666667,69,20,75,191.6666667,57.33333333,57.33333333,0.221818576,-0.302825521,1,0,0,0.5673,submitButton,44.09482759,-0.524149306,-0.388385417,0,0,0,2,10,130,53,1,69,69775,blockT,180,2022-02-15_08h47.49.164,orientation adjustment block,2021.2.3,MacIntel,60.0024001,,,,,,,
,,,,,,,,,,,,,,,,,,,,,,58.88888889,21,20,75,51.88888889,30.88888889,30.88888889,0.402287326,-0.320251736,1,0,0,0.5344,submitButton,43.98195632,-0.565429688,-0.411102431,0,0,0,2,11,131,5,1,21,69775,blockT,180,2022-02-15_08h47.49.164,orientation adjustment block,2021.2.3,MacIntel,60.0024001,,,,,,,
,,,,,,,,,,,,,,,,,,,,,,-65.55555556,28,20,75,17.44444444,10.55555556,10.55555556,0.236749132,-0.286905382,1,0,0,0.3168,submitButton,43.69868173,-0.54296441,-0.40797309,0,0,0,2,12,132,12,1,28,69775,blockT,180,2022-02-15_08h47.49.164,orientation adjustment block,2021.2.3,MacIntel,60.0024001,,,,,,,
,,,,,,,,,,,,,,,,,,,,,,60.55555556,62,20,75,196.5555556,45.44444444,45.44444444,-0.542539062,-0.391167535,1,0,0,2.1661,submitButton,43.71335201,-0.542539062,-0.391167535,0,0,0,2,13,133,46,1,62,69775,blockT,180,2022-02-15_08h47.49.164,orientation adjustment block,2021.2.3,MacIntel,60.0024001,,,,,,,
,,,,,,,,,,,,,,,,,,,,,,-65.55555556,75,20,75,9.444444444,65.55555556,65.55555556,-0.536692708,-0.409092882,1,0,0,0.8997,submitButton,43.89537037,0.341579861,-0.397630208,1,0,0,2,14,134,59,1,75,69775,blockT,180,2022-02-15_08h47.49.164,orientation adjustment block,2021.2.3,MacIntel,60.0024001,continueButton,,,,,,
,,,,,,,,,,,,,,,,,,,,,,-26.66666667,52,20,75,25.33333333,26.66666667,26.66666667,-0.527582465,-0.407417535,1,0,0,4.066,submitButton,43.75298439,-0.527582465,-0.407417535,0,0,0,2,15,135,36,1,52,69775,blockT,180,2022-02-15_08h47.49.164,orientation adjustment block,2021.2.3,MacIntel,60.0024001,,,,,,,
,,,,,,,,,,,,,,,,,,,,,,23.88888889,54,20,75,52.88888889,1.111111111,1.111111111,0.410169271,-0.317734375,1,0,0,0.5663,submitButton,43.40346084,-0.519505208,-0.398016493,0,0,0,2,16,136,38,1,54,69775,blockT,180,2022-02-15_08h47.49.164,orientation adjustment block,2021.2.3,MacIntel,60.0024001,,,,,,,
,,,,,,,,,,,,,,,,,,,,,,-60,70,20,75,10,60,60,-0.519761285,-0.398016493,1,0,0,0.4168,submitButton,43.53839205,-0.519761285,-0.398016493,0,0,0,2,17,137,54,1,70,69775,blockT,180,2022-02-15_08h47.49.164,orientation adjustment block,2021.2.3,MacIntel,60.0024001,,,,,,,
,,,,,,,,,,,,,,,,,,,,,,-29.44444444,-65,20,75,-131.4444444,66.44444444,66.44444444,0.40140191,-0.298563368,1,0,0,0.3496,submitButton,43.72311828,-0.513177083,-0.401041667,0,0,0,2,18,138,49,1,65,69775,blockT,180,2022-02-15_08h47.49.164,orientation adjustment block,2021.2.3,MacIntel,60.0024001,,,,,,,
,,,,,,,,,,,,,,,,,,,,,,-52.77777778,16,20,75,64.22222222,48.22222222,48.22222222,0.211705729,-0.311432292,1,0,0,0.3998,submitButton,43.75911111,-0.550047743,-0.401727431,0,0,0,2,19,139,0,1,16,69775,blockT,180,2022-02-15_08h47.49.164,orientation adjustment block,2021.2.3,MacIntel,60.0024001,,,,,,,
,,,,,,,,,,,,,,,,,,,,,,71.11111111,26,20,75,97.11111111,71.11111111,71.11111111,-0.545520833,-0.409605035,1,0,0,1.0662,submitButton,43.97619048,-0.545520833,-0.409605035,0,0,0,2,20,140,10,1,26,69775,blockT,180,2022-02-15_08h47.49.164,orientation adjustment block,2021.2.3,MacIntel,60.0024001,,,,,,,
,,,,,,,,,,,,,,,,,,,,,,-42.77777778,17,20,75,26.22222222,9.222222222,9.222222222,0.188181424,-0.281163194,1,0,0,0.3166,submitButton,43.70253718,-0.520138889,-0.407842882,0,0,0,2,21,141,1,1,17,69775,blockT,180,2022-02-15_08h47.49.164,orientation adjustment block,2021.2.3,MacIntel,60.0024001,,,,,,,
,,,,,,,,,,,,,,,,,,,,,,-51.66666667,-24,20,75,16.33333333,40.33333333,40.33333333,0.183151042,-0.32983941,1,0,0,0.1672,submitButton,43.67621528,-0.502669271,-0.396744792,0,0,0,2,22,142,8,1,24,69775,blockT,180,2022-02-15_08h47.49.164,orientation adjustment block,2021.2.3,MacIntel,60.0024001,,,,,,,
,,,,,,,,,,,,,,,,,,,,,,-38.33333333,72,20,75,33.66666667,38.33333333,38.33333333,-0.543428819,-0.388980035,1,0,0,0.6334,submitButton,43.63479759,-0.439184028,-0.326753472,0,0,0,2,23,143,56,1,72,69775,blockT,180,2022-02-15_08h47.49.164,orientation adjustment block,2021.2.3,MacIntel,60.0024001,,,,,,,
,,,,,,,,,,,,,,,,,,,,,,42.77777778,-42,20,75,32.77777778,74.77777778,74.77777778,-0.524861111,-0.405633681,1,0,0,0.8832,submitButton,43.87435897,-0.524861111,-0.406744792,0,0,0,2,24,144,26,1,42,69775,blockT,180,2022-02-15_08h47.49.164,orientation adjustment block,2021.2.3,MacIntel,60.0024001,,,,,,,
,,,,,,,,,,,,,,,,,,,,,,41.11111111,48,20,75,208.1111111,19.88888889,19.88888889,0.211640625,-0.298936632,1,0,0,0.1161,submitButton,43.69126378,-0.54499566,-0.405681424,0,0,0,2,25,145,32,1,48,69775,blockT,180,2022-02-15_08h47.49.164,orientation adjustment block,2021.2.3,MacIntel,60.0024001,,,,,,,
,,,,,,,,,,,,,,,,,,,,,,-41.66666667,-55,20,75,-115.6666667,60.66666667,60.66666667,0.414361979,-0.301145833,1,0,0,0.1495,submitButton,43.81986532,0.061223958,-0.265763889,0,0,0,2,26,146,39,1,55,69775,blockT,180,2022-02-15_08h47.49.164,orientation adjustment block,2021.2.3,MacIntel,60.0024001,,,,,,,
,,,,,,,,,,,,,,,,,,,,,,32.22222222,51,20,75,83.22222222,32.22222222,32.22222222,-0.533085937,-0.396883681,1,0,0,0.4998,submitButton,43.732665,-0.533085937,-0.397439236,0,0,0,2,27,147,35,1,51,69775,blockT,180,2022-02-15_08h47.49.164,orientation adjustment block,2021.2.3,MacIntel,60.0024001,,,,,,,
,,,,,,,,,,,,,,,,,,,,,,-63.33333333,-37,20,75,-100.3333333,63.33333333,63.33333333,-0.533085937,-0.397439236,1,0,0,0.5168,submitButton,43.87893864,-0.533085937,-0.397439236,0,0,0,2,28,148,21,1,37,69775,blockT,180,2022-02-15_08h47.49.164,orientation adjustment block,2021.2.3,MacIntel,60.0024001,,,,,,,
,,,,,,,,,,,,,,,,,,,,,,-58.33333333,-29,20,75,-129.3333333,79.66666667,79.66666667,0.36546875,-0.291076389,1,0,0,0.5988,submitButton,44.14403292,0.353085938,-0.407634549,1,0,0,2,29,149,13,1,29,69775,blockT,180,2022-02-15_08h47.49.164,orientation adjustment block,2021.2.3,MacIntel,60.0024001,continueButton,,,,,,
,,,,,,,,,,,,,,,,,,,,,,63.88888889,23,20,75,54.88888889,31.88888889,31.88888889,0.463450521,-0.314427083,1,0,0,0.1336,submitButton,44.05392157,-0.208233507,-0.297890625,0,0,0,2,30,150,7,1,23,69775,blockT,180,2022-02-15_08h47.49.164,orientation adjustment block,2021.2.3,MacIntel,60.0024001,,,,,,,
,,,,,,,,,,,,,,,,,,,,,,-63.33333333,-73,20,75,-136.3333333,63.33333333,63.33333333,-0.526015625,-0.390542535,1,0,0,0.6341,submitButton,44.1946472,-0.527235243,-0.392039931,0,0,0,2,31,151,57,1,73,69775,blockT,180,2022-02-15_08h47.49.164,orientation adjustment block,2021.2.3,MacIntel,60.0024001,,,,,,,
,,,,,,,,,,,,,,,,,,,,,,-46.11111111,22,20,75,34.88888889,12.88888889,12.88888889,0.228485243,-0.312951389,1,0,0,0.1334,submitButton,43.96779388,-0.51609375,-0.403524306,0,0,0,2,32,152,6,1,22,69775,blockT,180,2022-02-15_08h47.49.164,orientation adjustment block,2021.2.3,MacIntel,60.0024001,,,,,,,
,,,,,,,,,,,,,,,,,,,,,,-68.88888889,32,20,75,25.11111111,6.888888889,6.888888889,0.245290799,-0.305282118,1,0,0,0.0669,submitButton,43.70103917,-0.529075521,-0.39859809,0,0,0,2,33,153,16,1,32,69775,blockT,180,2022-02-15_08h47.49.164,orientation adjustment block,2021.2.3,MacIntel,60.0024001,,,,,,,
,,,,,,,,,,,,,,,,,,,,,,-30,71,20,75,41,30,30,-0.54781684,-0.39656684,1,0,0,0.8335,submitButton,43.6031746,-0.54781684,-0.39656684,0,0,0,2,34,154,55,1,71,69775,blockT,180,2022-02-15_08h47.49.164,orientation adjustment block,2021.2.3,MacIntel,60.0024001,,,,,,,
,,,,,,,,,,,,,,,,,,,,,,35,18,20,75,53,35,35,-0.54781684,-0.39656684,1,0,0,0.4156,submitButton,43.54215918,-0.54781684,-0.39656684,0,0,0,2,35,155,2,1,18,69775,blockT,180,2022-02-15_08h47.49.164,orientation adjustment block,2021.2.3,MacIntel,60.0024001,,,,,,,
,,,,,,,,,,,,,,,,,,,,,,37.22222222,-33,20,75,4.222222222,37.22222222,37.22222222,-0.606002604,-0.422556424,1,0,0,0.7828,submitButton,43.49765258,-0.481063368,-0.394930556,0,0,0,2,36,156,17,1,33,69775,blockT,180,2022-02-15_08h47.49.164,orientation adjustment block,2021.2.3,MacIntel,60.0024001,,,,,,,
,,,,,,,,,,,,,,,,,,,,,,-25,45,20,75,20,25,25,-0.535434028,-0.394921875,1,0,0,0.5994,submitButton,43.36829837,-0.535989583,-0.394921875,0,0,0,2,37,157,29,1,45,69775,blockT,180,2022-02-15_08h47.49.164,orientation adjustment block,2021.2.3,MacIntel,60.0024001,,,,,,,
,,,,,,,,,,,,,,,,,,,,,,50,41,20,75,53,12,12,0.411940104,-0.303476562,1,0,0,0.184,submitButton,43.15046296,-0.55015191,-0.392092014,0,0,0,2,38,158,25,1,41,69775,blockT,180,2022-02-15_08h47.49.164,orientation adjustment block,2021.2.3,MacIntel,60.0024001,,,,,,,
,,,,,,,,,,,,,,,,,,,,,,-64.44444444,68,20,75,30.55555556,37.44444444,37.44444444,0.175677083,-0.319136285,1,0,0,0.533,submitButton,43.11111111,-0.521106771,-0.391006944,0,0,0,2,39,159,52,1,68,69775,blockT,180,2022-02-15_08h47.49.164,orientation adjustment block,2021.2.3,MacIntel,60.0024001,,,,,,,
,,,,,,,,,,,,,,,,,,,,,,-41.11111111,57,20,75,24.88888889,32.11111111,32.11111111,-0.523554688,-0.391666667,1,0,0,0.8164,submitButton,43.03576865,-0.522999132,-0.392222222,0,0,0,2,40,160,41,1,57,69775,blockT,180,2022-02-15_08h47.49.164,orientation adjustment block,2021.2.3,MacIntel,60.0024001,,,,,,,
,,,,,,,,,,,,,,,,,,,,,,-54.44444444,-34,20,75,-131.4444444,82.55555556,82.55555556,-0.557638889,-0.391315104,1,0,0,2.0318,submitButton,43.30461073,-0.557638889,-0.39187066,0,0,0,2,41,161,18,1,34,69775,blockT,180,2022-02-15_08h47.49.164,orientation adjustment block,2021.2.3,MacIntel,60.0024001,,,,,,,
,,,,,,,,,,,,,,,,,,,,,,-55,-58,20,75,-139,81,81,0.428927951,-0.307226563,1,0,0,0.2495,submitButton,43.55930931,-0.516744792,-0.400972222,0,0,0,2,42,162,42,1,58,69775,blockT,180,2022-02-15_08h47.49.164,orientation adjustment block,2021.2.3,MacIntel,60.0024001,,,,,,,
,,,,,,,,,,,,,,,,,,,,,,-63.33333333,56,20,75,24.66666667,31.33333333,31.33333333,0.189796007,-0.298263889,1,0,0,0.4335,submitButton,43.47725578,-0.516050347,-0.39828559,0,0,0,2,43,163,40,1,56,69775,blockT,180,2022-02-15_08h47.49.164,orientation adjustment block,2021.2.3,MacIntel,60.0024001,,,,,,,
,,,,,,,,,,,,,,,,,,,,,,67.22222222,66,20,75,217.2222222,28.77777778,28.77777778,0.194327257,-0.282200521,1,0,0,0.2505,submitButton,43.37925926,0.327174479,-0.406792535,1,0,0,2,44,164,50,1,66,69775,blockT,180,2022-02-15_08h47.49.164,orientation adjustment block,2021.2.3,MacIntel,60.0024001,continueButton,,,,,,
,,,,,,,,,,,,,,,,,,,,,,-42.22222222,-25,20,75,21.77777778,46.77777778,46.77777778,-0.520915799,-0.412573785,1,0,0,2.6671,submitButton,43.401766,-0.520915799,-0.411462674,0,0,0,2,45,165,9,1,25,69775,blockT,180,2022-02-15_08h47.49.164,orientation adjustment block,2021.2.3,MacIntel,60.0024001,,,,,,,
,,,,,,,,,,,,,,,,,,,,,,62.77777778,40,20,75,211.7777778,8.222222222,8.222222222,0.21078125,-0.288307292,1,0,0,41.0156,submitButton,43.17032164,-0.513637153,-0.416523437,0,0,0,2,46,166,24,1,40,69775,blockT,180,2022-02-15_08h47.49.164,orientation adjustment block,2021.2.3,MacIntel,60.0024001,,,,,,,
,,,,,,,,,,,,,,,,,,,,,,-56.11111111,-27,20,75,11.88888889,38.88888889,38.88888889,0.217252604,-0.301766493,1,0,0,3.6495,submitButton,43.14233842,-0.526497396,-0.398085937,0,0,0,2,47,167,11,1,27,69775,blockT,180,2022-02-15_08h47.49.164,orientation adjustment block,2021.2.3,MacIntel,60.0024001,,,,,,,
,,,,,,,,,,,,,,,,,,,,,,-54.44444444,-30,20,75,17.55555556,47.55555556,47.55555556,0.209131944,-0.30812066,1,0,0,0.0499,submitButton,43.17099567,-0.534748264,-0.396779514,0,0,0,2,48,168,14,1,30,69775,blockT,180,2022-02-15_08h47.49.164,orientation adjustment block,2021.2.3,MacIntel,60.0024001,,,,,,,
,,,,,,,,,,,,,,,,,,,,,,73.88888889,-20,20,75,53.88888889,73.88888889,73.88888889,-0.52687066,-0.402178819,1,0,0,0.6159,submitButton,43.36917563,-0.52687066,-0.402178819,0,0,0,2,49,169,4,1,20,69775,blockT,180,2022-02-15_08h47.49.164,orientation adjustment block,2021.2.3,MacIntel,60.0024001,,,,,,,
,,,,,,,,,,,,,,,,,,,,,,-72.22222222,43,20,75,35.77777778,7.222222222,7.222222222,0.184774306,-0.309765625,1,0,0,1.5155,submitButton,43.13746439,-0.517092014,-0.406844618,0,0,0,2,50,170,27,1,43,69775,blockT,180,2022-02-15_08h47.49.164,orientation adjustment block,2021.2.3,MacIntel,60.0024001,,,,,,,
,,,,,,,,,,,,,,,,,,,,,,-68.88888889,-38,20,75,-106.8888889,68.88888889,68.88888889,-0.536610243,-0.396814236,1,0,0,1.8966,submitButton,43.3014862,-0.537165799,-0.398480903,0,0,0,2,51,171,22,1,38,69775,blockT,180,2022-02-15_08h47.49.164,orientation adjustment block,2021.2.3,MacIntel,60.0024001,,,,,,,
,,,,,,,,,,,,,,,,,,,,,,-29.44444444,49,20,75,19.55555556,29.44444444,29.44444444,-0.520998264,-0.395750868,1,0,0,0.482,submitButton,43.2137834,-0.520998264,-0.396861979,0,0,0,2,52,172,33,1,49,69775,blockT,180,2022-02-15_08h47.49.164,orientation adjustment block,2021.2.3,MacIntel,60.0024001,,,,,,,
,,,,,,,,,,,,,,,,,,,,,,-57.77777778,-63,20,75,-120.7777778,57.77777778,57.77777778,-0.548524306,-0.402999132,1,0,0,11.316,submitButton,43.30538085,-0.549635417,-0.403554688,0,0,0,2,53,173,47,1,63,69775,blockT,180,2022-02-15_08h47.49.164,orientation adjustment block,2021.2.3,MacIntel,60.0024001,,,,,,,
,,,,,,,,,,,,,,,,,,,,,,-70.55555556,-53,20,75,-123.5555556,70.55555556,70.55555556,-0.534561632,-0.404483507,1,0,0,0.6172,submitButton,43.47569444,-0.534561632,-0.404483507,0,0,0,2,54,174,37,1,53,69775,blockT,180,2022-02-15_08h47.49.164,orientation adjustment block,2021.2.3,MacIntel,60.0024001,,,,,,,
,,,,,,,,,,,,,,,,,,,,,,40.55555556,-44,20,75,25.55555556,69.55555556,69.55555556,0.224157986,-0.334717882,1,0,0,0.1326,submitButton,43.63768116,-0.538116319,-0.420525174,0,0,0,2,55,175,28,1,44,69775,blockT,180,2022-02-15_08h47.49.164,orientation adjustment block,2021.2.3,MacIntel,60.0024001,,,,,,,
,,,,,,,,,,,,,,,,,,,,,,-23.33333333,-64,20,75,-145.3333333,81.33333333,81.33333333,0.394635417,-0.314071181,1,0,0,0.2166,submitButton,43.87037037,-0.504084201,-0.411367188,0,0,0,2,56,176,48,1,64,69775,blockT,180,2022-02-15_08h47.49.164,orientation adjustment block,2021.2.3,MacIntel,60.0024001,,,,,,,
,,,,,,,,,,,,,,,,,,,,,,-33.33333333,-46,20,75,28.66666667,74.66666667,74.66666667,0.214088542,-0.270195313,1,0,0,19.3667,submitButton,44.0593047,-0.363020833,-0.408858507,0,0,0,2,57,177,30,1,46,69775,blockT,180,2022-02-15_08h47.49.164,orientation adjustment block,2021.2.3,MacIntel,60.0024001,,,,,,,
,,,,,,,,,,,,,,,,,,,,,,41.66666667,-35,20,75,6.666666667,41.66666667,41.66666667,-0.556072049,-0.403897569,1,0,0,0.6161,submitButton,44.04471545,-0.554960937,-0.403897569,0,0,0,2,58,178,19,1,35,69775,blockT,180,2022-02-15_08h47.49.164,orientation adjustment block,2021.2.3,MacIntel,60.0024001,,,,,,,
,,,,,,,,,,,,,,,,,,,,,,68.88888889,19,20,75,51.88888889,32.88888889,32.88888889,0.396896701,-0.34046875,1,0,0,0.415,submitButton,43.97710438,-0.534418403,-0.397309028,0,0,0,2,59,179,3,1,19,69775,blockT,180,2022-02-15_08h47.49.164,orientation adjustment block,2021.2.3,MacIntel,60.0024001,,,,,,,
,,,,,,,,,,,,,,,,,,,,,,,,,,,,,,,,,,,,,,,,,,,,,,,,69775,blockT,180,2022-02-15_08h47.49.164,orientation adjustment block,2021.2.3,MacIntel,60.0024001,,0.275399306,-0.416380208,1,0,0,EndButtonTxt
