consentMouse1.x,consentMouse1.y,consentMouse1.leftButton,consentMouse1.midButton,consentMouse1.rightButton,consentMouse1.clicked_name,consent_Mouse.x,consent_Mouse.y,consent_Mouse.leftButton,consent_Mouse.midButton,consent_Mouse.rightButton,consent_Mouse.clicked_name,startMouse.x,startMouse.y,startMouse.leftButton,startMouse.midButton,startMouse.rightButton,startMouse_2.x,startMouse_2.y,startMouse_2.leftButton,startMouse_2.midButton,startMouse_2.rightButton,start_distance,fixedOri,minimalDistance,maxOri,this_ori,accuracy,presented_accuracy,submitMouse.x,submitMouse.y,submitMouse.leftButton,submitMouse.midButton,submitMouse.rightButton,submitMouse.time,submitMouse.clicked_name,block_accuracy,continueMouse.x,continueMouse.y,continueMouse.leftButton,continueMouse.midButton,continueMouse.rightButton,trials.thisRepN,trials.thisTrialN,trials.thisN,trials.thisIndex,trials.ran,startOri,participant,condition,nTrials,date,expName,psychopyVersion,OS,frameRate,continueMouse.clicked_name,EndButtonMouse.x,EndButtonMouse.y,EndButtonMouse.leftButton,EndButtonMouse.midButton,EndButtonMouse.rightButton,EndButtonMouse.clicked_name
0.392592725,-0.401851865,1,0,0,consent_button1,0.392592725,-0.401851865,1,0,0,consent_button,0.172222238,-0.241666678,1,0,0,0.096296311,-0.378703717,1,0,0,-35,-61,20,75,-89,28,18.2,0.221296313,-0.286111123,1,0,0,2.1988,submitButton,18.2,0.104629644,-0.038888897,0,0,0,0,0,0,45,1,61,67042,blockP,180,2022-02-18_13h40.47.785,orientation adjustment blockP,2021.2.3,Win32,60.04563468,,,,,,,
,,,,,,,,,,,,,,,,,,,,,,-50,-19,20,75,-91,72,64.8,0.402777797,-0.302777846,1,0,0,1.3824,submitButton,41.5,-0.139814804,-0.347222235,0,0,0,0,1,1,3,1,19,67042,blockP,180,2022-02-18_13h40.47.785,orientation adjustment blockP,2021.2.3,Win32,60.04563468,,,,,,,
,,,,,,,,,,,,,,,,,,,,,,-43.33333333,71,20,75,128.6666667,57.66666667,49.01666667,0.212037053,-0.283333345,1,0,0,0.3001,submitButton,44.00555556,-0.362962955,-0.398148162,0,0,0,0,2,2,55,1,71,67042,blockP,180,2022-02-18_13h40.47.785,orientation adjustment blockP,2021.2.3,Win32,60.04563468,,,,,,,
,,,,,,,,,,,,,,,,,,,,,,-65,-64,20,75,-40,24,15.6,0.221296313,-0.312037106,1,0,0,0.4622,submitButton,15.6,0.073148162,-0.20462964,0,0,0,0,3,3,48,1,64,67042,blockP,180,2022-02-18_13h40.47.785,orientation adjustment blockP,2021.2.3,Win32,60.04563468,,,,,,,
,,,,,,,,,,,,,,,,,,,,,,72.77777778,65,20,75,250.7777778,5.777777778,2.311111111,0.202777794,-0.27314816,1,0,0,2.3952,submitButton,8.955555556,0.048148219,-0.173148215,0,0,0,0,4,4,49,1,65,67042,blockP,180,2022-02-18_13h40.47.785,orientation adjustment blockP,2021.2.3,Win32,60.04563468,,,,,,,
,,,,,,,,,,,,,,,,,,,,,,-74.44444444,-59,20,75,-231.4444444,7.555555556,3.022222222,0.388888908,-0.285185197,1,0,0,0.1127,submitButton,6.977777778,-0.210185175,-0.406481495,0,0,0,0,5,5,43,1,59,67042,blockP,180,2022-02-18_13h40.47.785,orientation adjustment blockP,2021.2.3,Win32,60.04563468,,,,,,,
,,,,,,,,,,,,,,,,,,,,,,41.11111111,-70,20,75,104.1111111,5.888888889,2.355555556,-0.317592584,-0.418518589,1,0,0,3.5494,submitButton,2.355555556,-0.317592584,-0.418518589,0,0,0,0,6,6,54,1,70,67042,blockP,180,2022-02-18_13h40.47.785,orientation adjustment blockP,2021.2.3,Win32,60.04563468,,,,,,,
,,,,,,,,,,,,,,,,,,,,,,-63.88888889,55,20,75,74.11111111,19.11111111,12.42222222,-0.28425925,-0.401851865,1,0,0,2.4622,submitButton,7.388888889,-0.28425925,-0.401851865,0,0,0,0,7,7,39,1,55,67042,blockP,180,2022-02-18_13h40.47.785,orientation adjustment blockP,2021.2.3,Win32,60.04563468,,,,,,,
,,,,,,,,,,,,,,,,,,,,,,26.66666667,41,20,75,229.6666667,8.666666667,3.466666667,-0.333333325,-0.428703718,1,0,0,12.661,submitButton,6.081481481,0.205555572,-0.12037038,0,0,0,0,8,8,25,1,41,67042,blockP,180,2022-02-18_13h40.47.785,orientation adjustment blockP,2021.2.3,Win32,60.04563468,,,,,,,
,,,,,,,,,,,,,,,,,,,,,,47.22222222,33,20,75,216.2222222,3.222222222,1.288888889,-0.324999992,-0.394444458,1,0,0,3.5949,submitButton,1.288888889,-0.324999992,-0.394444458,0,0,0,0,9,9,17,1,33,67042,blockP,180,2022-02-18_13h40.47.785,orientation adjustment blockP,2021.2.3,Win32,60.04563468,,,,,,,
,,,,,,,,,,,,,,,,,,,,,,-51.11111111,-17,20,75,-24.11111111,7.111111111,2.844444444,-0.299074065,-0.39629631,1,0,0,0.8506,submitButton,2.066666667,-0.299074065,-0.39629631,0,0,0,0,10,10,1,1,17,67042,blockP,180,2022-02-18_13h40.47.785,orientation adjustment blockP,2021.2.3,Win32,60.04563468,,,,,,,
,,,,,,,,,,,,,,,,,,,,,,-75,38,20,75,48,10,4,0.207407424,-0.289814827,1,0,0,0.8788,submitButton,2.711111111,-0.31388888,-0.393518532,0,0,0,0,11,11,22,1,38,67042,blockP,180,2022-02-18_13h40.47.785,orientation adjustment blockP,2021.2.3,Win32,60.04563468,,,,,,,
,,,,,,,,,,,,,,,,,,,,,,47.77777778,-54,20,75,-49.22222222,4.777777778,1.911111111,0.412037056,-0.272222234,1,0,0,0.465,submitButton,1.911111111,-0.027777765,-0.331481494,0,0,0,0,12,12,38,1,54,67042,blockP,180,2022-02-18_13h40.47.785,orientation adjustment blockP,2021.2.3,Win32,60.04563468,,,,,,,
,,,,,,,,,,,,,,,,,,,,,,-32.22222222,23,20,75,46.77777778,23.77777778,15.45555556,-0.245370361,-0.39166668,1,0,0,2.4949,submitButton,8.683333333,-0.245370361,-0.39166668,0,0,0,0,13,13,7,1,23,67042,blockP,180,2022-02-18_13h40.47.785,orientation adjustment blockP,2021.2.3,Win32,60.04563468,,,,,,,
,,,,,,,,,,,,,,,,,,,,,,-35.55555556,39,20,75,44.44444444,5.444444444,2.177777778,-0.276851843,-0.402777791,1,0,0,2.362,submitButton,6.514814815,0.384259278,-0.419444458,1,0,0,0,14,14,23,1,39,67042,blockP,180,2022-02-18_13h40.47.785,orientation adjustment blockP,2021.2.3,Win32,60.04563468,continueButton,,,,,,
,,,,,,,,,,,,,,,,,,,,,,56.66666667,37,20,75,228.6666667,11.66666667,4.666666667,0.194444461,-0.321296365,1,0,0,2.1997,submitButton,4.666666667,0.094444459,-0.24351853,0,0,0,0,15,15,21,1,37,67042,blockP,180,2022-02-18_13h40.47.785,orientation adjustment blockP,2021.2.3,Win32,60.04563468,,,,,,,
,,,,,,,,,,,,,,,,,,,,,,-25,31,20,75,34,3,1.2,0.197222238,-0.299074086,1,0,0,0.05,submitButton,2.933333333,0.062962977,-0.285185197,0,0,0,0,16,16,15,1,31,67042,blockP,180,2022-02-18_13h40.47.785,orientation adjustment blockP,2021.2.3,Win32,60.04563468,,,,,,,
,,,,,,,,,,,,,,,,,,,,,,30.55555556,51,20,75,71.55555556,20.55555556,13.36111111,0.412962982,-0.329629642,1,0,0,0.3667,submitButton,6.409259259,-0.376851844,-0.397222236,0,0,0,0,17,17,35,1,51,67042,blockP,180,2022-02-18_13h40.47.785,orientation adjustment blockP,2021.2.3,Win32,60.04563468,,,,,,,
,,,,,,,,,,,,,,,,,,,,,,-28.33333333,-57,20,75,-47.33333333,9.666666667,3.866666667,-0.324999992,-0.429629643,1,0,0,1.0165,submitButton,5.773611111,0.094444459,-0.259259271,0,0,0,0,18,18,41,1,57,67042,blockP,180,2022-02-18_13h40.47.785,orientation adjustment blockP,2021.2.3,Win32,60.04563468,,,,,,,
,,,,,,,,,,,,,,,,,,,,,,-35,-53,20,75,-57,4,1.6,-0.338888881,-0.409259329,1,0,0,0.8168,submitButton,4.938888889,0.147222238,-0.265740809,0,0,0,0,19,19,37,1,53,67042,blockP,180,2022-02-18_13h40.47.785,orientation adjustment blockP,2021.2.3,Win32,60.04563468,,,,,,,
,,,,,,,,,,,,,,,,,,,,,,20,-56,20,75,-41,15,9.75,0.20370372,-0.329629642,1,0,0,0.7663,submitButton,5.740740741,0.119444459,-0.2638889,0,0,0,0,20,20,40,1,56,67042,blockP,180,2022-02-18_13h40.47.785,orientation adjustment blockP,2021.2.3,Win32,60.04563468,,,,,,,
,,,,,,,,,,,,,,,,,,,,,,23.33333333,69,20,75,80.33333333,11.33333333,4.533333333,0.402777797,-0.299074086,1,0,0,0.2828,submitButton,5.568253968,-0.320370362,-0.402777791,0,0,0,0,21,21,53,1,69,67042,blockP,180,2022-02-18_13h40.47.785,orientation adjustment blockP,2021.2.3,Win32,60.04563468,,,,,,,
,,,,,,,,,,,,,,,,,,,,,,-66.11111111,-29,20,75,-24.11111111,4.888888889,1.955555556,0.200000016,-0.287962975,1,0,0,2.0997,submitButton,5.116666667,-0.297222213,-0.399074087,0,0,0,0,22,22,13,1,29,67042,blockP,180,2022-02-18_13h40.47.785,orientation adjustment blockP,2021.2.3,Win32,60.04563468,,,,,,,
,,,,,,,,,,,,,,,,,,,,,,-27.77777778,-45,20,75,100.2222222,34.77777778,27.82222222,0.200925942,-0.289814827,1,0,0,0.6333,submitButton,7.639506173,0.067592607,-0.288888957,0,0,0,0,23,23,29,1,45,67042,blockP,180,2022-02-18_13h40.47.785,orientation adjustment blockP,2021.2.3,Win32,60.04563468,,,,,,,
,,,,,,,,,,,,,,,,,,,,,,45,-22,20,75,-20,2,0.8,0.412037056,-0.271296308,1,0,0,0.2668,submitButton,6.955555556,-0.012036967,-0.314814827,0,0,0,0,24,24,6,1,22,67042,blockP,180,2022-02-18_13h40.47.785,orientation adjustment blockP,2021.2.3,Win32,60.04563468,,,,,,,
,,,,,,,,,,,,,,,,,,,,,,26.66666667,-50,20,75,-47.33333333,2.666666667,1.066666667,0.410185205,-0.299074086,1,0,0,0.1664,submitButton,6.42020202,0.122222237,-0.279629698,0,0,0,0,25,25,34,1,50,67042,blockP,180,2022-02-18_13h40.47.785,orientation adjustment blockP,2021.2.3,Win32,60.04563468,,,,,,,
,,,,,,,,,,,,,,,,,,,,,,28.33333333,68,20,75,245.3333333,2.666666667,1.066666667,-0.385185178,-0.417592606,1,0,0,2.716,submitButton,5.974074074,0.043518589,-0.237037048,0,0,0,0,26,26,52,1,68,67042,blockP,180,2022-02-18_13h40.47.785,orientation adjustment blockP,2021.2.3,Win32,60.04563468,,,,,,,
,,,,,,,,,,,,,,,,,,,,,,-55,49,20,75,54,5,2,-0.178703637,-0.420370384,1,0,0,0.7831,submitButton,5.668376068,0.234259276,-0.254629641,0,0,0,0,27,27,33,1,49,67042,blockP,180,2022-02-18_13h40.47.785,orientation adjustment blockP,2021.2.3,Win32,60.04563468,,,,,,,
,,,,,,,,,,,,,,,,,,,,,,36.66666667,28,20,75,209.6666667,1.666666667,0.666666667,0.229629646,-0.303703716,1,0,0,1.9997,submitButton,5.311111111,0.191666683,-0.233333401,0,0,0,0,28,28,12,1,28,67042,blockP,180,2022-02-18_13h40.47.785,orientation adjustment blockP,2021.2.3,Win32,60.04563468,,,,,,,
,,,,,,,,,,,,,,,,,,,,,,-57.22222222,42,20,75,42.77777778,0.777777778,0.311111111,0.196296312,-0.302777846,1,0,0,0.7002,submitButton,4.977777778,0.412037056,-0.380555569,1,0,0,0,29,29,26,1,42,67042,blockP,180,2022-02-18_13h40.47.785,orientation adjustment blockP,2021.2.3,Win32,60.04563468,continueButton,,,,,,
,,,,,,,,,,,,,,,,,,,,,,46.11111111,-46,20,75,-43.88888889,2.111111111,0.844444444,0.400000019,-0.305555568,1,0,0,0.1,submitButton,4.719444444,0.05092594,-0.288888957,0,0,0,0,30,30,30,1,46,67042,blockP,180,2022-02-18_13h40.47.785,orientation adjustment blockP,2021.2.3,Win32,60.04563468,,,,,,,
,,,,,,,,,,,,,,,,,,,,,,33.88888889,44,20,75,219.8888889,4.111111111,1.644444444,-0.214814805,-0.39166668,1,0,0,2.2326,submitButton,4.538562092,0.141666682,-0.277777789,1,0,0,0,31,31,28,1,44,67042,blockP,180,2022-02-18_13h40.47.785,orientation adjustment blockP,2021.2.3,Win32,60.04563468,,,,,,,
,,,,,,,,,,,,,,,,,,,,,,43.33333333,-35,20,75,-43.66666667,8.666666667,3.466666667,0.412962982,-0.278703715,1,0,0,0.033,submitButton,4.479012346,-0.207407397,-0.42129631,0,0,0,0,32,32,19,1,35,67042,blockP,180,2022-02-18_13h40.47.785,orientation adjustment blockP,2021.2.3,Win32,60.04563468,,,,,,,
,,,,,,,,,,,,,,,,,,,,,,30,47,20,75,66,19,12.35,0.406481614,-0.295370382,1,0,0,0.2329,submitButton,4.893274854,0.129629645,-0.282407419,0,0,0,0,33,33,31,1,47,67042,blockP,180,2022-02-18_13h40.47.785,orientation adjustment blockP,2021.2.3,Win32,60.04563468,,,,,,,
,,,,,,,,,,,,,,,,,,,,,,68.88888889,21,20,75,37.88888889,16.88888889,10.97777778,0.383333465,-0.295370382,1,0,0,0.1828,submitButton,5.1975,-0.033333321,-0.348148161,0,0,0,0,34,34,5,1,21,67042,blockP,180,2022-02-18_13h40.47.785,orientation adjustment blockP,2021.2.3,Win32,60.04563468,,,,,,,
,,,,,,,,,,,,,,,,,,,,,,-52.22222222,-48,20,75,-231.2222222,3.222222222,1.288888889,-0.246296287,-0.392592606,1,0,0,22.8629,submitButton,5.011375661,0.106481496,-0.275925937,0,0,0,0,35,35,32,1,48,67042,blockP,180,2022-02-18_13h40.47.785,orientation adjustment blockP,2021.2.3,Win32,60.04563468,,,,,,,
,,,,,,,,,,,,,,,,,,,,,,27.77777778,18,20,75,45.77777778,27.77777778,18.05555556,-0.296296287,-0.401851865,1,0,0,10.5315,submitButton,5.604292929,-0.296296287,-0.401851865,0,0,0,0,36,36,2,1,18,67042,blockP,180,2022-02-18_13h40.47.785,orientation adjustment blockP,2021.2.3,Win32,60.04563468,,,,,,,
,,,,,,,,,,,,,,,,,,,,,,-63.33333333,75,20,75,75.66666667,0.666666667,0.266666667,-0.24999999,-0.402777791,1,0,0,25.9467,submitButton,5.372222222,-0.24999999,-0.402777791,0,0,0,0,37,37,59,1,75,67042,blockP,180,2022-02-18_13h40.47.785,orientation adjustment blockP,2021.2.3,Win32,60.04563468,,,,,,,
,,,,,,,,,,,,,,,,,,,,,,-39.44444444,-40,20,75,-31.44444444,8.555555556,3.422222222,0.211111128,-0.305555568,1,0,0,0.0835,submitButton,5.290972222,0.1101852,-0.261111179,0,0,0,0,38,38,24,1,40,67042,blockP,180,2022-02-18_13h40.47.785,orientation adjustment blockP,2021.2.3,Win32,60.04563468,,,,,,,
,,,,,,,,,,,,,,,,,,,,,,-27.22222222,74,20,75,86.77777778,12.77777778,5.111111111,-0.287037028,-0.38703705,1,0,0,1.2661,submitButton,5.283777778,0.012962976,-0.312037106,0,0,0,0,39,39,58,1,74,67042,blockP,180,2022-02-18_13h40.47.785,orientation adjustment blockP,2021.2.3,Win32,60.04563468,,,,,,,
,,,,,,,,,,,,,,,,,,,,,,-54.44444444,-27,20,75,-15.44444444,11.55555556,4.622222222,0.20833335,-0.275000068,1,0,0,0.6167,submitButton,5.258333333,-0.332407399,-0.401851865,0,0,0,0,40,40,11,1,27,67042,blockP,180,2022-02-18_13h40.47.785,orientation adjustment blockP,2021.2.3,Win32,60.04563468,,,,,,,
,,,,,,,,,,,,,,,,,,,,,,-30,67,20,75,77,10,4,-0.347222214,-0.383333346,1,0,0,24.7638,submitButton,5.211728395,0.200925942,-0.283333345,0,0,0,0,41,41,51,1,67,67042,blockP,180,2022-02-18_13h40.47.785,orientation adjustment blockP,2021.2.3,Win32,60.04563468,,,,,,,
,,,,,,,,,,,,,,,,,,,,,,-35.55555556,-60,20,75,-54.55555556,5.444444444,2.177777778,-0.194444434,-0.39629631,1,0,0,76.6734,submitButton,5.103373016,0.0296297,-0.311111123,0,0,0,0,42,42,44,1,60,67042,blockP,180,2022-02-18_13h40.47.785,orientation adjustment blockP,2021.2.3,Win32,60.04563468,,,,,,,
,,,,,,,,,,,,,,,,,,,,,,-57.77777778,-24,20,75,-25.77777778,1.777777778,0.711111111,0.212962979,-0.289814827,1,0,0,1.1664,submitButton,4.951915709,-0.094444433,-0.340740753,0,0,0,0,43,43,8,1,24,67042,blockP,180,2022-02-18_13h40.47.785,orientation adjustment blockP,2021.2.3,Win32,60.04563468,,,,,,,
,,,,,,,,,,,,,,,,,,,,,,50,-66,20,75,-70,4,1.6,0.417592612,-0.322222234,1,0,0,0.1661,submitButton,4.840185185,0.39537039,-0.390740811,1,0,0,0,44,44,50,1,66,67042,blockP,180,2022-02-18_13h40.47.785,orientation adjustment blockP,2021.2.3,Win32,60.04563468,continueButton,,,,,,
,,,,,,,,,,,,,,,,,,,,,,44.44444444,-30,20,75,-35.55555556,5.555555556,2.222222222,0.38611113,-0.312037106,1,0,0,0.1823,submitButton,4.755734767,0.238888906,-0.224074141,0,0,0,0,45,45,14,1,30,67042,blockP,180,2022-02-18_13h40.47.785,orientation adjustment blockP,2021.2.3,Win32,60.04563468,,,,,,,
,,,,,,,,,,,,,,,,,,,,,,-58.33333333,-52,20,75,-65.33333333,13.33333333,5.333333333,-0.225925916,-0.422222236,1,0,0,2.9827,submitButton,4.773784722,0.041666681,-0.262962974,0,0,0,0,46,46,36,1,52,67042,blockP,180,2022-02-18_13h40.47.785,orientation adjustment blockP,2021.2.3,Win32,60.04563468,,,,,,,
,,,,,,,,,,,,,,,,,,,,,,36.66666667,26,20,75,207.6666667,1.666666667,0.666666667,0.186111127,-0.297222234,1,0,0,2.1162,submitButton,4.649326599,0.037962977,-0.222222233,0,0,0,0,47,47,10,1,26,67042,blockP,180,2022-02-18_13h40.47.785,orientation adjustment blockP,2021.2.3,Win32,60.04563468,,,,,,,
,,,,,,,,,,,,,,,,,,,,,,-37.77777778,58,20,75,71.22222222,13.22222222,5.288888889,-0.173148137,-0.412037051,1,0,0,1.0169,submitButton,4.668137255,0.264814832,-0.23425927,0,0,0,0,48,48,42,1,58,67042,blockP,180,2022-02-18_13h40.47.785,orientation adjustment blockP,2021.2.3,Win32,60.04563468,,,,,,,
,,,,,,,,,,,,,,,,,,,,,,-41.66666667,62,20,75,71.33333333,9.333333333,3.733333333,-0.177777767,-0.4046297,1,0,0,1.0128,submitButton,4.641428571,-0.177777767,-0.4046297,0,0,0,0,49,49,46,1,62,67042,blockP,180,2022-02-18_13h40.47.785,orientation adjustment blockP,2021.2.3,Win32,60.04563468,,,,,,,
,,,,,,,,,,,,,,,,,,,,,,-25,43,20,75,57,14,5.6,-0.210185175,-0.406481495,1,0,0,0.5321,submitButton,4.668055556,-0.210185175,-0.406481495,0,0,0,0,50,50,27,1,43,67042,blockP,180,2022-02-18_13h40.47.785,orientation adjustment blockP,2021.2.3,Win32,60.04563468,,,,,,,
,,,,,,,,,,,,,,,,,,,,,,47.22222222,36,20,75,43.22222222,7.222222222,2.888888889,-0.227777768,-0.402777791,1,0,0,1.417,submitButton,4.61996997,0.193518535,-0.279629698,0,0,0,0,51,51,20,1,36,67042,blockP,180,2022-02-18_13h40.47.785,orientation adjustment blockP,2021.2.3,Win32,60.04563468,,,,,,,
,,,,,,,,,,,,,,,,,,,,,,-73.33333333,32,20,75,33.66666667,1.666666667,0.666666667,-0.199074064,-0.409259329,1,0,0,1.0342,submitButton,4.515935673,0.310185203,-0.262962974,0,0,0,0,52,52,16,1,32,67042,blockP,180,2022-02-18_13h40.47.785,orientation adjustment blockP,2021.2.3,Win32,60.04563468,,,,,,,
,,,,,,,,,,,,,,,,,,,,,,-21.11111111,72,20,75,74.88888889,2.888888889,1.155555556,-0.224999934,-0.385185198,1,0,0,0.6711,submitButton,4.42977208,0.205555572,-0.269444456,0,0,0,0,53,53,56,1,72,67042,blockP,180,2022-02-18_13h40.47.785,orientation adjustment blockP,2021.2.3,Win32,60.04563468,,,,,,,
,,,,,,,,,,,,,,,,,,,,,,-73.88888889,63,20,75,-120.8888889,3.888888889,1.555555556,0.357407426,-0.295370382,1,0,0,2.112,submitButton,4.357916667,0.254629647,-0.180555566,0,0,0,0,54,54,47,1,63,67042,blockP,180,2022-02-18_13h40.47.785,orientation adjustment blockP,2021.2.3,Win32,60.04563468,,,,,,,
,,,,,,,,,,,,,,,,,,,,,,21.11111111,-16,20,75,-29.88888889,13.88888889,5.555555556,0.463888909,-0.267592604,1,0,0,0.0168,submitButton,4.387127371,0.30925939,-0.266666678,0,0,0,0,55,55,0,1,16,67042,blockP,180,2022-02-18_13h40.47.785,orientation adjustment blockP,2021.2.3,Win32,60.04563468,,,,,,,
,,,,,,,,,,,,,,,,,,,,,,-43.33333333,-73,20,75,-80.33333333,7.333333333,2.933333333,-0.245370361,-0.423148218,1,0,0,1.3795,submitButton,4.352513228,0.179629646,-0.288888957,0,0,0,0,56,56,57,1,73,67042,blockP,180,2022-02-18_13h40.47.785,orientation adjustment blockP,2021.2.3,Win32,60.04563468,,,,,,,
,,,,,,,,,,,,,,,,,,,,,,27.22222222,25,20,75,28.22222222,3.222222222,1.288888889,-0.276851843,-0.393518532,1,0,0,11.6942,submitButton,4.28126615,-0.276851843,-0.393518532,0,0,0,0,57,57,9,1,25,67042,blockP,180,2022-02-18_13h40.47.785,orientation adjustment blockP,2021.2.3,Win32,60.04563468,,,,,,,
,,,,,,,,,,,,,,,,,,,,,,-46.66666667,20,20,75,23.33333333,3.333333333,1.333333333,-0.16574073,-0.413888959,1,0,0,1.7288,submitButton,4.214267677,0.430555575,-0.227777789,0,0,0,0,58,58,4,1,20,67042,blockP,180,2022-02-18_13h40.47.785,orientation adjustment blockP,2021.2.3,Win32,60.04563468,,,,,,,
,,,,,,,,,,,,,,,,,,,,,,-32.77777778,-34,20,75,-32.77777778,1.222222222,0.488888889,-0.174999989,-0.410185199,1,0,0,1.084,submitButton,4.131481481,0.481481502,-0.394444458,1,0,0,0,59,59,18,1,34,67042,blockP,180,2022-02-18_13h40.47.785,orientation adjustment blockP,2021.2.3,Win32,60.04563468,continueButton,,,,,,
,,,,,,,,,,,,,,,,,,,,,,-41.11111111,-61,20,75,-245.1111111,4.111111111,1.644444444,0.39074076,-0.302777846,1,0,0,0.8547,submitButton,4.077415459,0.376851871,-0.194444455,0,0,0,1,0,60,45,1,61,67042,blockP,180,2022-02-18_13h40.47.785,orientation adjustment blockP,2021.2.3,Win32,60.04563468,,,,,,,
,,,,,,,,,,,,,,,,,,,,,,31.11111111,75,20,75,249.1111111,5.888888889,2.355555556,-0.264814806,-0.392592606,1,0,0,3.3275,submitButton,4.040780142,0.179629646,-0.23796303,0,0,0,1,1,61,59,1,75,67042,blockP,180,2022-02-18_13h40.47.785,orientation adjustment blockP,2021.2.3,Win32,60.04563468,,,,,,,
,,,,,,,,,,,,,,,,,,,,,,-50.55555556,-49,20,75,-37.55555556,11.44444444,4.577777778,0.192592609,-0.305555568,1,0,0,1.2787,submitButton,4.051967593,0.36111113,-0.12037038,0,0,0,1,2,62,33,1,49,67042,blockP,180,2022-02-18_13h40.47.785,orientation adjustment blockP,2021.2.3,Win32,60.04563468,,,,,,,
,,,,,,,,,,,,,,,,,,,,,,-58.33333333,58,20,75,64.66666667,6.666666667,2.666666667,-0.388888881,-0.408333347,1,0,0,10.9939,submitButton,4.023696145,-0.388888881,-0.408333347,0,0,0,1,3,63,42,1,58,67042,blockP,180,2022-02-18_13h40.47.785,orientation adjustment blockP,2021.2.3,Win32,60.04563468,,,,,,,
,,,,,,,,,,,,,,,,,,,,,,21.66666667,46,20,75,45.66666667,0.333333333,0.133333333,0.412962982,-0.300000012,1,0,0,0.4333,submitButton,3.945888889,0.033333347,-0.283333345,0,0,0,1,4,64,30,1,46,67042,blockP,180,2022-02-18_13h40.47.785,orientation adjustment blockP,2021.2.3,Win32,60.04563468,,,,,,,
,,,,,,,,,,,,,,,,,,,,,,63.88888889,-64,20,75,-64.11111111,0.111111111,0.044444444,0.432407427,-0.311111123,1,0,0,0.2995,submitButton,3.869389978,0.362037056,-0.149074084,0,0,0,1,5,65,48,1,64,67042,blockP,180,2022-02-18_13h40.47.785,orientation adjustment blockP,2021.2.3,Win32,60.04563468,,,,,,,
,,,,,,,,,,,,,,,,,,,,,,50.55555556,22,20,75,42.55555556,20.55555556,13.36111111,0.443518651,-0.299074086,1,0,0,0.1623,submitButton,4.051923077,0.464814835,-0.167592603,0,0,0,1,6,66,6,1,22,67042,blockP,180,2022-02-18_13h40.47.785,orientation adjustment blockP,2021.2.3,Win32,60.04563468,,,,,,,
,,,,,,,,,,,,,,,,,,,,,,35.55555556,39,20,75,48.55555556,9.555555556,3.822222222,-0.227777768,-0.410185199,1,0,0,0.9835,submitButton,4.047589099,0.379629649,-0.285185197,0,0,0,1,7,67,23,1,39,67042,blockP,180,2022-02-18_13h40.47.785,orientation adjustment blockP,2021.2.3,Win32,60.04563468,,,,,,,
,,,,,,,,,,,,,,,,,,,,,,20,26,20,75,55,29,18.85,0.210185202,-0.282407419,1,0,0,0.116,submitButton,4.321707819,0.290740758,-0.212037048,0,0,0,1,8,68,10,1,26,67042,blockP,180,2022-02-18_13h40.47.785,orientation adjustment blockP,2021.2.3,Win32,60.04563468,,,,,,,
,,,,,,,,,,,,,,,,,,,,,,-45,-36,20,75,-26,10,4,0.205555572,-0.278703715,1,0,0,0.1293,submitButton,4.315858586,-0.203703693,-0.398148162,0,0,0,1,9,69,20,1,36,67042,blockP,180,2022-02-18_13h40.47.785,orientation adjustment blockP,2021.2.3,Win32,60.04563468,,,,,,,
,,,,,,,,,,,,,,,,,,,,,,22.22222222,-65,20,75,-111.7777778,46.77777778,37.42222222,0.432407427,-0.292592604,1,0,0,0.3293,submitButton,4.907043651,0.207407424,-0.198148159,0,0,0,1,10,70,49,1,65,67042,blockP,180,2022-02-18_13h40.47.785,orientation adjustment blockP,2021.2.3,Win32,60.04563468,,,,,,,
,,,,,,,,,,,,,,,,,,,,,,-26.11111111,-23,20,75,-27.11111111,4.111111111,1.644444444,-0.200925916,-0.425000014,1,0,0,0.7793,submitButton,4.849805068,0.26296298,-0.224074141,0,0,0,1,11,71,7,1,23,67042,blockP,180,2022-02-18_13h40.47.785,orientation adjustment blockP,2021.2.3,Win32,60.04563468,,,,,,,
,,,,,,,,,,,,,,,,,,,,,,43.88888889,17,20,75,13.88888889,3.111111111,1.244444444,-0.17037036,-0.392592606,1,0,0,1.6134,submitButton,4.787643678,0.286111129,-0.186111121,0,0,0,1,12,72,1,1,17,67042,blockP,180,2022-02-18_13h40.47.785,orientation adjustment blockP,2021.2.3,Win32,60.04563468,,,,,,,
,,,,,,,,,,,,,,,,,,,,,,-24.44444444,-70,20,75,-57.44444444,12.55555556,5.022222222,0.219444461,-0.296296308,1,0,0,1.0291,submitButton,4.791619586,0.083333348,-0.153703713,0,0,0,1,13,73,54,1,70,67042,blockP,180,2022-02-18_13h40.47.785,orientation adjustment blockP,2021.2.3,Win32,60.04563468,,,,,,,
,,,,,,,,,,,,,,,,,,,,,,74.44444444,33,20,75,25.44444444,7.555555556,3.022222222,0.389814834,-0.259259271,1,0,0,1.8619,submitButton,4.76212963,0.411111244,-0.400925939,1,0,0,1,14,74,17,1,33,67042,blockP,180,2022-02-18_13h40.47.785,orientation adjustment blockP,2021.2.3,Win32,60.04563468,continueButton,,,,,,
,,,,,,,,,,,,,,,,,,,,,,-44.44444444,19,20,75,75.55555556,56.55555556,48.07222222,0.230555572,-0.300000012,1,0,0,0.5548,submitButton,5.472131148,0.264814832,-0.259259271,0,0,0,1,15,75,3,1,19,67042,blockP,180,2022-02-18_13h40.47.785,orientation adjustment blockP,2021.2.3,Win32,60.04563468,,,,,,,
,,,,,,,,,,,,,,,,,,,,,,-60.55555556,-30,20,75,-19.55555556,10.44444444,4.177777778,-0.157407397,-0.398148162,1,0,0,1.6502,submitButton,5.45125448,0.20833335,-0.240740752,0,0,0,1,16,76,14,1,30,67042,blockP,180,2022-02-18_13h40.47.785,orientation adjustment blockP,2021.2.3,Win32,60.04563468,,,,,,,
,,,,,,,,,,,,,,,,,,,,,,40.55555556,-56,20,75,-73.44444444,17.44444444,11.33888889,0.382407426,-0.280555567,1,0,0,0.0332,submitButton,5.544708995,-0.221296286,-0.407407421,0,0,0,1,17,77,40,1,56,67042,blockP,180,2022-02-18_13h40.47.785,orientation adjustment blockP,2021.2.3,Win32,60.04563468,,,,,,,
,,,,,,,,,,,,,,,,,,,,,,36.66666667,35,20,75,30.66666667,4.333333333,1.733333333,0.453703724,-0.305555568,1,0,0,0.5996,submitButton,5.48515625,0.120370385,-0.232407418,0,0,0,1,18,78,19,1,35,67042,blockP,180,2022-02-18_13h40.47.785,orientation adjustment blockP,2021.2.3,Win32,60.04563468,,,,,,,
,,,,,,,,,,,,,,,,,,,,,,45.55555556,-43,20,75,-41.44444444,1.555555556,0.622222222,0.393518538,-0.295370382,1,0,0,0.0205,submitButton,5.41034188,0.342592611,-0.218518529,0,0,0,1,19,79,27,1,43,67042,blockP,180,2022-02-18_13h40.47.785,orientation adjustment blockP,2021.2.3,Win32,60.04563468,,,,,,,
,,,,,,,,,,,,,,,,,,,,,,44.44444444,63,20,75,54.44444444,8.555555556,3.422222222,-0.188888878,-0.399074087,1,0,0,1.6855,submitButton,5.380218855,0.314814833,-0.236111122,0,0,0,1,20,80,47,1,63,67042,blockP,180,2022-02-18_13h40.47.785,orientation adjustment blockP,2021.2.3,Win32,60.04563468,,,,,,,
,,,,,,,,,,,,,,,,,,,,,,-66.11111111,-73,20,75,-71.11111111,1.888888889,0.755555556,-0.246296287,-0.412962977,1,0,0,1.6954,submitButton,5.31119403,0.393518538,-0.226851863,0,0,0,1,21,81,57,1,73,67042,blockP,180,2022-02-18_13h40.47.785,orientation adjustment blockP,2021.2.3,Win32,60.04563468,,,,,,,
,,,,,,,,,,,,,,,,,,,,,,-63.88888889,-74,20,75,-73.88888889,0.111111111,0.044444444,0.402777797,-0.287962975,1,0,0,1.7956,submitButton,5.23374183,0.285185203,-0.313888901,0,0,0,1,22,82,58,1,74,67042,blockP,180,2022-02-18_13h40.47.785,orientation adjustment blockP,2021.2.3,Win32,60.04563468,,,,,,,
,,,,,,,,,,,,,,,,,,,,,,47.22222222,-54,20,75,-59.77777778,5.777777778,2.311111111,0.385185204,-0.306481493,1,0,0,1.7623,submitButton,5.191384863,0.341666798,-0.274074086,0,0,0,1,23,83,38,1,54,67042,blockP,180,2022-02-18_13h40.47.785,orientation adjustment blockP,2021.2.3,Win32,60.04563468,,,,,,,
,,,,,,,,,,,,,,,,,,,,,,31.11111111,-44,20,75,-62.88888889,18.88888889,12.27777778,0.402777797,-0.309259271,1,0,0,1.3122,submitButton,5.292619048,0.273148165,-0.291666678,0,0,0,1,24,84,28,1,44,67042,blockP,180,2022-02-18_13h40.47.785,orientation adjustment blockP,2021.2.3,Win32,60.04563468,,,,,,,
,,,,,,,,,,,,,,,,,,,,,,-41.66666667,-48,20,75,-42.66666667,5.333333333,2.133333333,-0.178703637,-0.39537044,1,0,0,1.1125,submitButton,5.248122066,0.281481499,-0.256481549,0,0,0,1,25,85,32,1,48,67042,blockP,180,2022-02-18_13h40.47.785,orientation adjustment blockP,2021.2.3,Win32,60.04563468,,,,,,,
,,,,,,,,,,,,,,,,,,,,,,63.33333333,-69,20,75,-66.66666667,2.333333333,0.933333333,0.369444576,-0.306481493,1,0,0,0.2456,submitButton,5.188194444,-0.232407398,-0.377777791,0,0,0,1,26,86,53,1,69,67042,blockP,180,2022-02-18_13h40.47.785,orientation adjustment blockP,2021.2.3,Win32,60.04563468,,,,,,,
,,,,,,,,,,,,,,,,,,,,,,-47.22222222,-38,20,75,-53.22222222,15.22222222,9.894444444,0.207407424,-0.319444457,1,0,0,0.6208,submitButton,5.252663623,-0.258333324,-0.385185198,0,0,0,1,27,87,22,1,38,67042,blockP,180,2022-02-18_13h40.47.785,orientation adjustment blockP,2021.2.3,Win32,60.04563468,,,,,,,
,,,,,,,,,,,,,,,,,,,,,,-42.22222222,68,20,75,71.77777778,3.777777778,1.511111111,-0.326851843,-0.390740811,1,0,0,72.6746,submitButton,5.202102102,-0.326851843,-0.390740811,0,0,0,1,28,88,52,1,68,67042,blockP,180,2022-02-18_13h40.47.785,orientation adjustment blockP,2021.2.3,Win32,60.04563468,,,,,,,
,,,,,,,,,,,,,,,,,,,,,,-65,-21,20,75,-206,5,2,0.141666682,-0.301851864,1,0,0,2.4998,submitButton,5.159407407,0.3564815,-0.397222236,1,0,0,1,29,89,5,1,21,67042,blockP,180,2022-02-18_13h40.47.785,orientation adjustment blockP,2021.2.3,Win32,60.04563468,continueButton,,,,,,
,,,,,,,,,,,,,,,,,,,,,,68.33333333,-40,20,75,28.33333333,68.33333333,58.08333333,-0.233333324,-0.401851865,1,0,0,1.2497,submitButton,5.855774854,0.217592609,-0.214814882,0,0,0,1,30,90,24,1,40,67042,blockP,180,2022-02-18_13h40.47.785,orientation adjustment blockP,2021.2.3,Win32,60.04563468,,,,,,,
,,,,,,,,,,,,,,,,,,,,,,-62.77777778,42,20,75,50.22222222,8.222222222,3.288888889,-0.339814807,-0.39166668,1,0,0,6.466,submitButton,5.822438672,-0.092592581,-0.282407419,0,0,0,1,31,91,26,1,42,67042,blockP,180,2022-02-18_13h40.47.785,orientation adjustment blockP,2021.2.3,Win32,60.04563468,,,,,,,
,,,,,,,,,,,,,,,,,,,,,,43.33333333,59,20,75,63.33333333,4.333333333,1.733333333,0.447222242,-0.308333345,1,0,0,0.2004,submitButton,5.770014245,0.198148164,-0.224074141,0,0,0,1,32,92,43,1,59,67042,blockP,180,2022-02-18_13h40.47.785,orientation adjustment blockP,2021.2.3,Win32,60.04563468,,,,,,,
,,,,,,,,,,,,,,,,,,,,,,70.55555556,47,20,75,228.5555556,1.555555556,0.622222222,-0.171296286,-0.417592606,1,0,0,1.9128,submitButton,5.704852321,0.220370387,-0.225000011,0,0,0,1,33,93,31,1,47,67042,blockP,180,2022-02-18_13h40.47.785,orientation adjustment blockP,2021.2.3,Win32,60.04563468,,,,,,,
,,,,,,,,,,,,,,,,,,,,,,-30.55555556,-62,20,75,-60.55555556,1.444444444,0.577777778,0.227777794,-0.286111123,1,0,0,0.5945,submitButton,5.640763889,0.347222241,-0.168518585,0,0,0,1,34,94,46,1,62,67042,blockP,180,2022-02-18_13h40.47.785,orientation adjustment blockP,2021.2.3,Win32,60.04563468,,,,,,,
,,,,,,,,,,,,,,,,,,,,,,33.88888889,-53,20,75,-47.11111111,5.888888889,2.355555556,0.387037056,-0.291666678,1,0,0,0.0836,submitButton,5.600205761,0.205555572,-0.27314816,0,0,0,1,35,95,37,1,53,67042,blockP,180,2022-02-18_13h40.47.785,orientation adjustment blockP,2021.2.3,Win32,60.04563468,,,,,,,
,,,,,,,,,,,,,,,,,,,,,,-23.88888889,71,20,75,69.11111111,1.888888889,0.755555556,0.133333349,-0.276851863,1,0,0,0.1122,submitButton,5.541124661,0.277777795,-0.248148159,0,0,0,1,36,96,55,1,71,67042,blockP,180,2022-02-18_13h40.47.785,orientation adjustment blockP,2021.2.3,Win32,60.04563468,,,,,,,
,,,,,,,,,,,,,,,,,,,,,,-57.77777778,34,20,75,37.22222222,3.222222222,1.288888889,-0.207407397,-0.409259329,1,0,0,4.3785,submitButton,5.489892905,0.027777791,-0.255555567,0,0,0,1,37,97,18,1,34,67042,blockP,180,2022-02-18_13h40.47.785,orientation adjustment blockP,2021.2.3,Win32,60.04563468,,,,,,,
,,,,,,,,,,,,,,,,,,,,,,-60.55555556,16,20,75,28.44444444,12.44444444,4.977777778,-0.186111101,-0.376851921,1,0,0,1.3955,submitButton,5.483796296,-0.186111101,-0.376851921,0,0,0,1,38,98,0,1,16,67042,blockP,180,2022-02-18_13h40.47.785,orientation adjustment blockP,2021.2.3,Win32,60.04563468,,,,,,,
,,,,,,,,,,,,,,,,,,,,,,-26.11111111,20,20,75,29.88888889,9.888888889,3.955555556,-0.153703693,-0.392592606,1,0,0,0.7788,submitButton,5.465816993,0.231481498,-0.285185197,0,0,0,1,39,99,4,1,20,67042,blockP,180,2022-02-18_13h40.47.785,orientation adjustment blockP,2021.2.3,Win32,60.04563468,,,,,,,
,,,,,,,,,,,,,,,,,,,,,,-72.22222222,-24,20,75,-213.2222222,9.222222222,3.688888889,-0.247222213,-0.407407421,1,0,0,2.1124,submitButton,5.445155039,0.262037054,-0.275925937,0,0,0,1,40,100,8,1,24,67042,blockP,180,2022-02-18_13h40.47.785,orientation adjustment blockP,2021.2.3,Win32,60.04563468,,,,,,,
,,,,,,,,,,,,,,,,,,,,,,32.22222222,57,20,75,63.22222222,6.222222222,2.488888889,0.389814834,-0.299074086,1,0,0,0.517,submitButton,5.411174968,0.232407424,-0.232407418,0,0,0,1,41,101,41,1,57,67042,blockP,180,2022-02-18_13h40.47.785,orientation adjustment blockP,2021.2.3,Win32,60.04563468,,,,,,,
,,,,,,,,,,,,,,,,,,,,,,38.33333333,27,20,75,43.33333333,16.33333333,10.61666667,0.417592612,-0.318518531,1,0,0,0.2622,submitButton,5.470328283,0.260185202,-0.271296308,0,0,0,1,42,102,11,1,27,67042,blockP,180,2022-02-18_13h40.47.785,orientation adjustment blockP,2021.2.3,Win32,60.04563468,,,,,,,
,,,,,,,,,,,,,,,,,,,,,,-74.44444444,-31,20,75,-49.44444444,18.44444444,11.98888889,0.206481498,-0.290740753,1,0,0,1.279,submitButton,5.543570537,0.338888907,-0.27314816,0,0,0,1,43,103,15,1,31,67042,blockP,180,2022-02-18_13h40.47.785,orientation adjustment blockP,2021.2.3,Win32,60.04563468,,,,,,,
,,,,,,,,,,,,,,,,,,,,,,-70,50,20,75,41,9,3.6,0.197222238,-0.301851864,1,0,0,0.1325,submitButton,5.521975309,0.340740759,-0.38703705,1,0,0,1,44,104,34,1,50,67042,blockP,180,2022-02-18_13h40.47.785,orientation adjustment blockP,2021.2.3,Win32,60.04563468,continueButton,,,,,,
,,,,,,,,,,,,,,,,,,,,,,-30,29,20,75,34,5,2,0.220370387,-0.286111123,1,0,0,2.4453,submitButton,5.483272283,0.29259261,-0.24722229,0,0,0,1,45,105,13,1,29,67042,blockP,180,2022-02-18_13h40.47.785,orientation adjustment blockP,2021.2.3,Win32,60.04563468,,,,,,,
,,,,,,,,,,,,,,,,,,,,,,-67.22222222,-55,20,75,-229.2222222,5.777777778,2.311111111,-0.125925915,-0.398148162,1,0,0,2.3835,submitButton,5.448792271,0.3814815,-0.250000011,0,0,0,1,46,106,39,1,55,67042,blockP,180,2022-02-18_13h40.47.785,orientation adjustment blockP,2021.2.3,Win32,60.04563468,,,,,,,
,,,,,,,,,,,,,,,,,,,,,,-23.88888889,-67,20,75,-57.88888889,9.111111111,3.644444444,-0.172222212,-0.4046297,1,0,0,0.9333,submitButton,5.429390681,0.400000019,-0.258333345,0,0,0,1,47,107,51,1,67,67042,blockP,180,2022-02-18_13h40.47.785,orientation adjustment blockP,2021.2.3,Win32,60.04563468,,,,,,,
,,,,,,,,,,,,,,,,,,,,,,21.11111111,28,20,75,35.11111111,7.111111111,2.844444444,0.359259278,-0.308333345,1,0,0,0.1287,submitButton,5.401891253,0.567592614,-0.169444454,0,0,0,1,48,108,12,1,28,67042,blockP,180,2022-02-18_13h40.47.785,orientation adjustment blockP,2021.2.3,Win32,60.04563468,,,,,,,
,,,,,,,,,,,,,,,,,,,,,,45.55555556,-66,20,75,-48.44444444,17.55555556,11.41111111,0.441666686,-0.301851864,1,0,0,0.2828,submitButton,5.465146199,0.156481497,-0.241666678,0,0,0,1,49,109,50,1,66,67042,blockP,180,2022-02-18_13h40.47.785,orientation adjustment blockP,2021.2.3,Win32,60.04563468,,,,,,,
,,,,,,,,,,,,,,,,,,,,,,54.44444444,32,20,75,214.4444444,2.444444444,0.977777778,0.220370387,-0.313888901,1,0,0,1.612,submitButton,5.418402778,0.127777793,-0.313888901,0,0,0,1,50,110,16,1,32,67042,blockP,180,2022-02-18_13h40.47.785,orientation adjustment blockP,2021.2.3,Win32,60.04563468,,,,,,,
,,,,,,,,,,,,,,,,,,,,,,27.77777778,25,20,75,30.77777778,5.777777778,2.311111111,0.393518538,-0.300925938,1,0,0,0.0999,submitButton,5.386368843,-0.162037026,-0.393518532,0,0,0,1,51,111,9,1,25,67042,blockP,180,2022-02-18_13h40.47.785,orientation adjustment blockP,2021.2.3,Win32,60.04563468,,,,,,,
,,,,,,,,,,,,,,,,,,,,,,-44.44444444,41,20,75,35.55555556,5.444444444,2.177777778,-0.155555488,-0.399074087,1,0,0,1.201,submitButton,5.353628118,-0.155555488,-0.399074087,0,0,0,1,52,112,25,1,41,67042,blockP,180,2022-02-18_13h40.47.785,orientation adjustment blockP,2021.2.3,Win32,60.04563468,,,,,,,
,,,,,,,,,,,,,,,,,,,,,,-30,-37,20,75,-36,1,0.4,-0.178703637,-0.394444458,1,0,0,1.2625,submitButton,5.30359147,-0.178703637,-0.394444458,0,0,0,1,53,113,21,1,37,67042,blockP,180,2022-02-18_13h40.47.785,orientation adjustment blockP,2021.2.3,Win32,60.04563468,,,,,,,
,,,,,,,,,,,,,,,,,,,,,,31.11111111,-72,20,75,-77.88888889,5.888888889,2.355555556,-0.262962954,-0.406481495,1,0,0,1.6008,submitButton,5.274111111,0.246296313,-0.253703715,0,0,0,1,54,114,56,1,72,67042,blockP,180,2022-02-18_13h40.47.785,orientation adjustment blockP,2021.2.3,Win32,60.04563468,,,,,,,
,,,,,,,,,,,,,,,,,,,,,,-62.22222222,-60,20,75,-56.22222222,3.777777778,1.511111111,-0.166666656,-0.397222236,1,0,0,1.2342,submitButton,5.236853685,0.078703718,-0.228703771,0,0,0,1,55,115,44,1,60,67042,blockP,180,2022-02-18_13h40.47.785,orientation adjustment blockP,2021.2.3,Win32,60.04563468,,,,,,,
,,,,,,,,,,,,,,,,,,,,,,58.33333333,18,20,75,21.33333333,3.333333333,1.333333333,-0.10648147,-0.382407421,1,0,0,1.3339,submitButton,5.198583878,0.288888906,-0.267592604,0,0,0,1,56,116,2,1,18,67042,blockP,180,2022-02-18_13h40.47.785,orientation adjustment blockP,2021.2.3,Win32,60.04563468,,,,,,,
,,,,,,,,,,,,,,,,,,,,,,-41.11111111,52,20,75,44.88888889,7.111111111,2.844444444,-0.251851842,-0.415740754,1,0,0,1.8289,submitButton,5.175728155,-0.251851842,-0.415740754,0,0,0,1,57,117,36,1,52,67042,blockP,180,2022-02-18_13h40.47.785,orientation adjustment blockP,2021.2.3,Win32,60.04563468,,,,,,,
,,,,,,,,,,,,,,,,,,,,,,-25,51,20,75,53,2,0.8,-0.187962896,-0.405555569,1,0,0,0.9169,submitButton,5.133653846,-0.187962896,-0.405555569,0,0,0,1,58,118,35,1,51,67042,blockP,180,2022-02-18_13h40.47.785,orientation adjustment blockP,2021.2.3,Win32,60.04563468,,,,,,,
,,,,,,,,,,,,,,,,,,,,,,-41.66666667,45,20,75,42.33333333,2.666666667,1.066666667,0.225000017,-0.306481493,1,0,0,1.2458,submitButton,5.094920635,0.371296315,-0.409259329,1,0,0,1,59,119,29,1,45,67042,blockP,180,2022-02-18_13h40.47.785,orientation adjustment blockP,2021.2.3,Win32,60.04563468,continueButton,,,,,,
,,,,,,,,,,,,,,,,,,,,,,-37.77777778,-61,20,75,-61.77777778,0.777777778,0.311111111,-0.181481471,-0.398148162,1,0,0,1.0998,submitButton,5.049790356,0.268518536,-0.256481549,0,0,0,2,0,120,45,1,61,67042,blockP,180,2022-02-18_13h40.47.785,orientation adjustment blockP,2021.2.3,Win32,60.04563468,,,,,,,
,,,,,,,,,,,,,,,,,,,,,,-50.55555556,38,20,75,51.44444444,13.44444444,5.377777778,0.167592608,-0.314814827,1,0,0,0.2509,submitButton,5.052855659,-0.177777767,-0.403703717,0,0,0,2,1,121,22,1,38,67042,blockP,180,2022-02-18_13h40.47.785,orientation adjustment blockP,2021.2.3,Win32,60.04563468,,,,,,,
,,,,,,,,,,,,,,,,,,,,,,-31.66666667,54,20,75,56.33333333,2.333333333,0.933333333,-0.197222155,-0.398148162,1,0,0,27.4421,submitButton,5.014711934,-0.197222155,-0.398148162,0,0,0,2,2,122,38,1,54,67042,blockP,180,2022-02-18_13h40.47.785,orientation adjustment blockP,2021.2.3,Win32,60.04563468,,,,,,,
,,,,,,,,,,,,,,,,,,,,,,-36.11111111,62,20,75,69.88888889,7.888888889,3.155555556,-0.187962896,-0.414814828,1,0,0,1.1995,submitButton,4.997655454,0.16944446,-0.275925937,0,0,0,2,3,123,46,1,62,67042,blockP,180,2022-02-18_13h40.47.785,orientation adjustment blockP,2021.2.3,Win32,60.04563468,,,,,,,
,,,,,,,,,,,,,,,,,,,,,,67.77777778,-16,20,75,-31.22222222,15.22222222,9.894444444,0.418518538,-0.306481493,1,0,0,0.3166,submitButton,5.042171717,0.248148165,-0.190740751,0,0,0,2,4,124,0,1,16,67042,blockP,180,2022-02-18_13h40.47.785,orientation adjustment blockP,2021.2.3,Win32,60.04563468,,,,,,,
,,,,,,,,,,,,,,,,,,,,,,-39.44444444,-39,20,75,-33.44444444,5.555555556,2.222222222,0.180555571,-0.316666735,1,0,0,0.2793,submitButton,5.016766767,0.256481499,-0.260185197,0,0,0,2,5,125,23,1,39,67042,blockP,180,2022-02-18_13h40.47.785,orientation adjustment blockP,2021.2.3,Win32,60.04563468,,,,,,,
,,,,,,,,,,,,,,,,,,,,,,47.77777778,-31,20,75,-36.22222222,5.222222222,2.088888889,-0.187962896,-0.426851866,1,0,0,1.5121,submitButton,4.990625,0.302777796,-0.219444512,0,0,0,2,6,126,15,1,31,67042,blockP,180,2022-02-18_13h40.47.785,orientation adjustment blockP,2021.2.3,Win32,60.04563468,,,,,,,
,,,,,,,,,,,,,,,,,,,,,,-71.66666667,58,20,75,59.33333333,1.333333333,0.533333333,-0.181481471,-0.415740754,1,0,0,1.7669,submitButton,4.951179941,0.235185202,-0.24722229,0,0,0,2,7,127,42,1,58,67042,blockP,180,2022-02-18_13h40.47.785,orientation adjustment blockP,2021.2.3,Win32,60.04563468,,,,,,,
,,,,,,,,,,,,,,,,,,,,,,44.44444444,26,20,75,25.44444444,0.555555556,0.222222222,-0.1611111,-0.39629631,1,0,0,1.2828,submitButton,4.909697856,-0.1611111,-0.39629631,0,0,0,2,8,128,10,1,26,67042,blockP,180,2022-02-18_13h40.47.785,orientation adjustment blockP,2021.2.3,Win32,60.04563468,,,,,,,
,,,,,,,,,,,,,,,,,,,,,,46.66666667,-73,20,75,-55.33333333,17.66666667,11.48333333,0.314814833,-0.308333345,1,0,0,0.216,submitButton,4.966859903,0.330555574,-0.174074084,0,0,0,2,9,129,57,1,73,67042,blockP,180,2022-02-18_13h40.47.785,orientation adjustment blockP,2021.2.3,Win32,60.04563468,,,,,,,
,,,,,,,,,,,,,,,,,,,,,,-57.22222222,-56,20,75,-69.22222222,13.22222222,5.288888889,-0.235185175,-0.403703717,1,0,0,4.5991,submitButton,4.969636015,0.238888906,-0.227777789,0,0,0,2,10,130,40,1,56,67042,blockP,180,2022-02-18_13h40.47.785,orientation adjustment blockP,2021.2.3,Win32,60.04563468,,,,,,,
,,,,,,,,,,,,,,,,,,,,,,43.33333333,34,20,75,54.33333333,20.33333333,13.21666667,0.398148167,-0.306481493,1,0,0,2.8995,submitButton,5.040123457,0.201851868,-0.270370438,0,0,0,2,11,131,18,1,34,67042,blockP,180,2022-02-18_13h40.47.785,orientation adjustment blockP,2021.2.3,Win32,60.04563468,,,,,,,
,,,,,,,,,,,,,,,,,,,,,,27.22222222,-74,20,75,57.22222222,48.77777778,39.02222222,-0.223148138,-0.382407421,1,0,0,2.033,submitButton,5.328107345,0.350000018,-0.262962974,0,0,0,2,12,132,58,1,74,67042,blockP,180,2022-02-18_13h40.47.785,orientation adjustment blockP,2021.2.3,Win32,60.04563468,,,,,,,
,,,,,,,,,,,,,,,,,,,,,,-22.77777778,46,20,75,34.22222222,11.77777778,4.711111111,0.201851868,-0.326851864,1,0,0,0.1164,submitButton,5.322922502,0.392592725,-0.190740751,0,0,0,2,13,133,30,1,46,67042,blockP,180,2022-02-18_13h40.47.785,orientation adjustment blockP,2021.2.3,Win32,60.04563468,,,,,,,
,,,,,,,,,,,,,,,,,,,,,,-20.55555556,32,20,75,43.44444444,11.44444444,4.577777778,0.183333349,-0.317592605,1,0,0,0.033,submitButton,5.316712963,0.461111131,-0.422222236,1,0,0,2,14,134,16,1,32,67042,blockP,180,2022-02-18_13h40.47.785,orientation adjustment blockP,2021.2.3,Win32,60.04563468,continueButton,,,,,,
,,,,,,,,,,,,,,,,,,,,,,58.33333333,18,20,75,236.3333333,38.33333333,30.66666667,-0.202777768,-0.462037051,1,0,0,2.7662,submitButton,5.526216713,-0.241666657,-0.41666668,0,0,0,2,15,135,2,1,18,67042,blockP,180,2022-02-18_13h40.47.785,orientation adjustment blockP,2021.2.3,Win32,60.04563468,,,,,,,
,,,,,,,,,,,,,,,,,,,,,,-48.33333333,-63,20,75,-51.33333333,11.66666667,4.666666667,-0.183333266,-0.39166668,1,0,0,1.5165,submitButton,5.51917122,0.252777795,-0.183333344,0,0,0,2,16,136,47,1,63,67042,blockP,180,2022-02-18_13h40.47.785,orientation adjustment blockP,2021.2.3,Win32,60.04563468,,,,,,,
,,,,,,,,,,,,,,,,,,,,,,66.11111111,-60,20,75,-64.88888889,4.888888889,1.955555556,-0.211111044,-0.42129631,1,0,0,1.6164,submitButton,5.490198735,0.038888959,-0.322222234,0,0,0,2,17,137,44,1,60,67042,blockP,180,2022-02-18_13h40.47.785,orientation adjustment blockP,2021.2.3,Win32,60.04563468,,,,,,,
,,,,,,,,,,,,,,,,,,,,,,25,-30,20,75,-33,3,1.2,-0.164814748,-0.400925939,1,0,0,1.266,submitButton,5.455600358,0.385185204,-0.225925937,0,0,0,2,18,138,14,1,30,67042,blockP,180,2022-02-18_13h40.47.785,orientation adjustment blockP,2021.2.3,Win32,60.04563468,,,,,,,
,,,,,,,,,,,,,,,,,,,,,,28.33333333,71,20,75,73.33333333,2.333333333,0.933333333,0.399074093,-0.298148217,1,0,0,0.3662,submitButton,5.419422222,0.138888904,-0.292592604,0,0,0,2,19,139,55,1,71,67042,blockP,180,2022-02-18_13h40.47.785,orientation adjustment blockP,2021.2.3,Win32,60.04563468,,,,,,,
,,,,,,,,,,,,,,,,,,,,,,58.88888889,50,20,75,221.8888889,8.111111111,3.244444444,-0.239814805,-0.393518532,1,0,0,2.2666,submitButton,5.402160494,0.317592611,-0.136111177,0,0,0,2,20,140,34,1,50,67042,blockP,180,2022-02-18_13h40.47.785,orientation adjustment blockP,2021.2.3,Win32,60.04563468,,,,,,,
,,,,,,,,,,,,,,,,,,,,,,56.66666667,-44,20,75,-48.33333333,4.333333333,1.733333333,-0.211111044,-0.412962977,1,0,0,2.3162,submitButton,5.373272091,-0.211111044,-0.412962977,0,0,0,2,21,141,28,1,44,67042,blockP,180,2022-02-18_13h40.47.785,orientation adjustment blockP,2021.2.3,Win32,60.04563468,,,,,,,
,,,,,,,,,,,,,,,,,,,,,,-64.44444444,45,20,75,54.55555556,9.555555556,3.822222222,-0.204629619,-0.382407421,1,0,0,2.1662,submitButton,5.361154514,0.201851868,-0.210185252,0,0,0,2,22,142,29,1,45,67042,blockP,180,2022-02-18_13h40.47.785,orientation adjustment blockP,2021.2.3,Win32,60.04563468,,,,,,,
,,,,,,,,,,,,,,,,,,,,,,-66.11111111,70,20,75,47.88888889,22.11111111,14.37222222,-0.173148137,-0.40000007,1,0,0,1.2826,submitButton,5.431007752,0.296296314,-0.158333343,0,0,0,2,23,143,54,1,70,67042,blockP,180,2022-02-18_13h40.47.785,orientation adjustment blockP,2021.2.3,Win32,60.04563468,,,,,,,
,,,,,,,,,,,,,,,,,,,,,,70,-27,20,75,-46,19,12.35,-0.172222212,-0.39537044,1,0,0,2.3494,submitButton,5.484230769,0.263888906,-0.217592603,0,0,0,2,24,144,11,1,27,67042,blockP,180,2022-02-18_13h40.47.785,orientation adjustment blockP,2021.2.3,Win32,60.04563468,,,,,,,
,,,,,,,,,,,,,,,,,,,,,,-32.77777778,66,20,75,64.22222222,1.777777778,0.711111111,-0.187037027,-0.367592662,1,0,0,0.3998,submitButton,5.447794741,0.200000016,-0.164814825,0,0,0,2,25,145,50,1,66,67042,blockP,180,2022-02-18_13h40.47.785,orientation adjustment blockP,2021.2.3,Win32,60.04563468,,,,,,,
,,,,,,,,,,,,,,,,,,,,,,-43.33333333,-36,20,75,-45.33333333,9.333333333,3.733333333,-0.177777767,-0.406481495,1,0,0,0.7997,submitButton,5.434806397,0.32222224,-0.246296307,0,0,0,2,26,146,20,1,36,67042,blockP,180,2022-02-18_13h40.47.785,orientation adjustment blockP,2021.2.3,Win32,60.04563468,,,,,,,
,,,,,,,,,,,,,,,,,,,,,,-43.88888889,40,20,75,50.11111111,10.11111111,4.044444444,0.210185202,-0.312037106,1,0,0,0.4159,submitButton,5.424352548,0.188888905,-0.223148159,0,0,0,2,27,147,24,1,40,67042,blockP,180,2022-02-18_13h40.47.785,orientation adjustment blockP,2021.2.3,Win32,60.04563468,,,,,,,
,,,,,,,,,,,,,,,,,,,,,,-52.77777778,59,20,75,63.22222222,4.222222222,1.688888889,0.214814831,-0.275925937,1,0,0,1.0496,submitButton,5.396475954,0.298148166,-0.130555565,0,0,0,2,28,148,43,1,59,67042,blockP,180,2022-02-18_13h40.47.785,orientation adjustment blockP,2021.2.3,Win32,60.04563468,,,,,,,
,,,,,,,,,,,,,,,,,,,,,,42.22222222,24,20,75,11.22222222,12.77777778,5.111111111,-0.149999989,-0.42592594,1,0,0,1.2833,submitButton,5.39436214,0.29259261,-0.392592606,1,0,0,2,29,149,8,1,24,67042,blockP,180,2022-02-18_13h40.47.785,orientation adjustment blockP,2021.2.3,Win32,60.04563468,continueButton,,,,,,
,,,,,,,,,,,,,,,,,,,,,,52.22222222,75,20,75,56.22222222,18.77777778,12.20555556,0.379629649,-0.302777846,1,0,0,0.3167,submitButton,5.444444444,0.076851866,-0.241666678,0,0,0,2,30,150,59,1,75,67042,blockP,180,2022-02-18_13h40.47.785,orientation adjustment blockP,2021.2.3,Win32,60.04563468,,,,,,,
,,,,,,,,,,,,,,,,,,,,,,-30.55555556,55,20,75,47.44444444,7.555555556,3.022222222,-0.198148138,-0.390740811,1,0,0,0.4665,submitButton,5.42676399,0.249074091,-0.250000011,0,0,0,2,31,151,39,1,55,67042,blockP,180,2022-02-18_13h40.47.785,orientation adjustment blockP,2021.2.3,Win32,60.04563468,,,,,,,
,,,,,,,,,,,,,,,,,,,,,,-58.88888889,25,20,75,41.11111111,16.11111111,10.47222222,0.179629646,-0.309259271,1,0,0,0.4501,submitButton,5.463325282,0.354629648,-0.121296306,0,0,0,2,32,152,9,1,25,67042,blockP,180,2022-02-18_13h40.47.785,orientation adjustment blockP,2021.2.3,Win32,60.04563468,,,,,,,
,,,,,,,,,,,,,,,,,,,,,,58.33333333,67,20,75,63.33333333,3.666666667,1.466666667,-0.143518507,-0.415740754,1,0,0,2.0666,submitButton,5.434572342,0.241666684,-0.265740809,0,0,0,2,33,153,51,1,67,67042,blockP,180,2022-02-18_13h40.47.785,orientation adjustment blockP,2021.2.3,Win32,60.04563468,,,,,,,
,,,,,,,,,,,,,,,,,,,,,,41.66666667,-65,20,75,-66.33333333,1.333333333,0.533333333,0.388888908,-0.297222234,1,0,0,0.0997,submitButton,5.399563492,0.195370387,-0.2138889,0,0,0,2,34,154,49,1,65,67042,blockP,180,2022-02-18_13h40.47.785,orientation adjustment blockP,2021.2.3,Win32,60.04563468,,,,,,,
,,,,,,,,,,,,,,,,,,,,,,34.44444444,72,20,75,72.44444444,0.444444444,0.177777778,-0.151851841,-0.398148162,1,0,0,1.367,submitButton,5.362529551,0.334259277,-0.156481491,0,0,0,2,35,155,56,1,72,67042,blockP,180,2022-02-18_13h40.47.785,orientation adjustment blockP,2021.2.3,Win32,60.04563468,,,,,,,
,,,,,,,,,,,,,,,,,,,,,,52.77777778,-69,20,75,-64.22222222,4.777777778,1.911111111,-0.116666655,-0.405555569,1,0,0,1.5498,submitButton,5.338223787,0.212037053,-0.319444457,0,0,0,2,36,156,53,1,69,67042,blockP,180,2022-02-18_13h40.47.785,orientation adjustment blockP,2021.2.3,Win32,60.04563468,,,,,,,
,,,,,,,,,,,,,,,,,,,,,,65.55555556,-23,20,75,-41.44444444,18.44444444,11.98888889,0.358333352,-0.309259271,1,0,0,3.3494,submitButton,5.384731935,0.138888904,-0.290740753,0,0,0,2,37,157,7,1,23,67042,blockP,180,2022-02-18_13h40.47.785,orientation adjustment blockP,2021.2.3,Win32,60.04563468,,,,,,,
,,,,,,,,,,,,,,,,,,,,,,20,-51,20,75,-61,10,4,-0.152777767,-0.388888902,1,0,0,1.0328,submitButton,5.375115741,0.239814832,-0.283333345,0,0,0,2,38,158,35,1,51,67042,blockP,180,2022-02-18_13h40.47.785,orientation adjustment blockP,2021.2.3,Win32,60.04563468,,,,,,,
,,,,,,,,,,,,,,,,,,,,,,-31.11111111,20,20,75,40.88888889,20.88888889,13.57777778,-0.174074007,-0.407407421,1,0,0,1.6502,submitButton,5.431685824,0.330555574,-0.231481492,0,0,0,2,39,159,4,1,20,67042,blockP,180,2022-02-18_13h40.47.785,orientation adjustment blockP,2021.2.3,Win32,60.04563468,,,,,,,
,,,,,,,,,,,,,,,,,,,,,,61.11111111,-43,20,75,-38.88888889,4.111111111,1.644444444,-0.118518451,-0.401851865,1,0,0,1.6499,submitButton,5.405745814,0.334259277,-0.264814826,0,0,0,2,40,160,27,1,43,67042,blockP,180,2022-02-18_13h40.47.785,orientation adjustment blockP,2021.2.3,Win32,60.04563468,,,,,,,
,,,,,,,,,,,,,,,,,,,,,,-29.44444444,-42,20,75,-205.4444444,16.55555556,10.76111111,0.400925945,-0.296296308,1,0,0,2.0499,submitButton,5.442176871,0.423148168,-0.196296363,0,0,0,2,41,161,26,1,42,67042,blockP,180,2022-02-18_13h40.47.785,orientation adjustment blockP,2021.2.3,Win32,60.04563468,,,,,,,
,,,,,,,,,,,,,,,,,,,,,,-32.77777778,-41,20,75,-37.77777778,3.222222222,1.288888889,0.217592609,-0.290740753,1,0,0,0.7004,submitButton,5.414114114,0.314814833,-0.228703771,0,0,0,2,42,162,25,1,41,67042,blockP,180,2022-02-18_13h40.47.785,orientation adjustment blockP,2021.2.3,Win32,60.04563468,,,,,,,
,,,,,,,,,,,,,,,,,,,,,,-42.77777778,47,20,75,42.22222222,4.777777778,1.911111111,-0.158333322,-0.39629631,1,0,0,0.9832,submitButton,5.390604027,0.373148167,-0.156481491,0,0,0,2,43,163,31,1,47,67042,blockP,180,2022-02-18_13h40.47.785,orientation adjustment blockP,2021.2.3,Win32,60.04563468,,,,,,,
,,,,,,,,,,,,,,,,,,,,,,-28.88888889,49,20,75,56.11111111,7.111111111,2.844444444,-0.147222211,-0.418518589,1,0,0,1.2995,submitButton,5.37362963,0.300000131,-0.401851865,1,0,0,2,44,164,33,1,49,67042,blockP,180,2022-02-18_13h40.47.785,orientation adjustment blockP,2021.2.3,Win32,60.04563468,continueButton,,,,,,
,,,,,,,,,,,,,,,,,,,,,,56.11111111,64,20,75,59.11111111,4.888888889,1.955555556,0.387037056,-0.312962975,1,0,0,0.0496,submitButton,5.350993377,0.204629646,-0.187037104,0,0,0,2,45,165,48,1,64,67042,blockP,180,2022-02-18_13h40.47.785,orientation adjustment blockP,2021.2.3,Win32,60.04563468,,,,,,,
,,,,,,,,,,,,,,,,,,,,,,71.66666667,-37,20,75,-37.33333333,0.333333333,0.133333333,0.213888905,-0.311111123,1,0,0,2.2332,submitButton,5.316666667,0.120370385,-0.262962974,0,0,0,2,46,166,21,1,37,67042,blockP,180,2022-02-18_13h40.47.785,orientation adjustment blockP,2021.2.3,Win32,60.04563468,,,,,,,
,,,,,,,,,,,,,,,,,,,,,,23.33333333,35,20,75,53.33333333,18.33333333,11.91666667,0.442592612,-0.295370382,1,0,0,0.1498,submitButton,5.359803922,0.276851869,-0.227777789,0,0,0,2,47,167,19,1,35,67042,blockP,180,2022-02-18_13h40.47.785,orientation adjustment blockP,2021.2.3,Win32,60.04563468,,,,,,,
,,,,,,,,,,,,,,,,,,,,,,-35.55555556,48,20,75,54.44444444,6.444444444,2.577777778,-0.175925915,-0.424074088,1,0,0,1.3168,submitButton,5.341738817,0.166666682,-0.141666676,0,0,0,2,48,168,32,1,48,67042,blockP,180,2022-02-18_13h40.47.785,orientation adjustment blockP,2021.2.3,Win32,60.04563468,,,,,,,
,,,,,,,,,,,,,,,,,,,,,,70.55555556,22,20,75,220.5555556,18.55555556,12.06111111,-0.184259249,-0.410185199,1,0,0,3.3246,submitButton,5.385089606,0.226851868,-0.237037048,0,0,0,2,49,169,6,1,22,67042,blockP,180,2022-02-18_13h40.47.785,orientation adjustment blockP,2021.2.3,Win32,60.04563468,,,,,,,
,,,,,,,,,,,,,,,,,,,,,,41.66666667,33,20,75,40.66666667,7.666666667,3.066666667,0.393518538,-0.300000012,1,0,0,0.073,submitButton,5.37022792,0.168518534,-0.284259327,0,0,0,2,50,170,17,1,33,67042,blockP,180,2022-02-18_13h40.47.785,orientation adjustment blockP,2021.2.3,Win32,60.04563468,,,,,,,
,,,,,,,,,,,,,,,,,,,,,,67.22222222,-52,20,75,-48.77777778,3.222222222,1.288888889,-0.173148137,-0.401851865,1,0,0,2.0499,submitButton,5.34423213,0.248148165,-0.169444454,0,0,0,2,51,171,36,1,52,67042,blockP,180,2022-02-18_13h40.47.785,orientation adjustment blockP,2021.2.3,Win32,60.04563468,,,,,,,
,,,,,,,,,,,,,,,,,,,,,,-72.77777778,-53,20,75,-233.7777778,0.777777778,0.311111111,-0.198148138,-0.386111181,1,0,0,3.2954,submitButton,5.312376934,0.148148164,-0.252777789,0,0,0,2,52,172,37,1,53,67042,blockP,180,2022-02-18_13h40.47.785,orientation adjustment blockP,2021.2.3,Win32,60.04563468,,,,,,,
,,,,,,,,,,,,,,,,,,,,,,-73.88888889,-17,20,75,-30.88888889,13.88888889,5.555555556,-0.1611111,-0.388888902,1,0,0,1.5166,submitButton,5.313906359,0.262037054,-0.167592603,0,0,0,2,53,173,1,1,17,67042,blockP,180,2022-02-18_13h40.47.785,orientation adjustment blockP,2021.2.3,Win32,60.04563468,,,,,,,
,,,,,,,,,,,,,,,,,,,,,,-22.22222222,19,20,75,32.77777778,13.77777778,5.511111111,-0.212037027,-0.407407421,1,0,0,1.3163,submitButton,5.315138889,0.249074091,-0.269444456,0,0,0,2,54,174,3,1,19,67042,blockP,180,2022-02-18_13h40.47.785,orientation adjustment blockP,2021.2.3,Win32,60.04563468,,,,,,,
,,,,,,,,,,,,,,,,,,,,,,47.22222222,-28,20,75,154.2222222,2.222222222,0.888888889,-0.135185174,-0.405555569,1,0,0,2.5171,submitButton,5.287646653,0.312037055,-0.232407418,0,0,0,2,55,175,12,1,28,67042,blockP,180,2022-02-18_13h40.47.785,orientation adjustment blockP,2021.2.3,Win32,60.04563468,,,,,,,
,,,,,,,,,,,,,,,,,,,,,,-21.66666667,29,20,75,24.33333333,4.666666667,1.866666667,0.227777794,-0.312037106,1,0,0,0.2463,submitButton,5.266529492,0.324074092,-0.181481492,0,0,0,2,56,176,13,1,29,67042,blockP,180,2022-02-18_13h40.47.785,orientation adjustment blockP,2021.2.3,Win32,60.04563468,,,,,,,
,,,,,,,,,,,,,,,,,,,,,,-58.33333333,-57,20,75,-31.33333333,25.66666667,16.68333333,-0.135185174,-0.412037051,1,0,0,1.6291,submitButton,5.336571234,0.150925941,-0.254629641,0,0,0,2,57,177,41,1,57,67042,blockP,180,2022-02-18_13h40.47.785,orientation adjustment blockP,2021.2.3,Win32,60.04563468,,,,,,,
,,,,,,,,,,,,,,,,,,,,,,43.88888889,68,20,75,55.88888889,12.11111111,4.844444444,-0.187037027,-0.40000007,1,0,0,1.7207,submitButton,5.333570461,-0.187037027,-0.40000007,0,0,0,2,58,178,52,1,68,67042,blockP,180,2022-02-18_13h40.47.785,orientation adjustment blockP,2021.2.3,Win32,60.04563468,,,,,,,
,,,,,,,,,,,,,,,,,,,,,,-67.77777778,-21,20,75,-25.77777778,4.777777778,1.911111111,0.150925941,-0.319444457,1,0,0,1.2467,submitButton,5.312828283,1.32455E-08,-0.350000013,0,0,0,2,59,179,5,1,21,67042,blockP,180,2022-02-18_13h40.47.785,orientation adjustment blockP,2021.2.3,Win32,60.04563468,,,,,,,
,,,,,,,,,,,,,,,,,,,,,,,,,,,,,,,,,,,,,,,,,,,,,,,,67042,blockP,180,2022-02-18_13h40.47.785,orientation adjustment blockP,2021.2.3,Win32,60.04563468,,0.363888908,-0.422222236,1,0,0,EndButtonTxt
