consentMouse1.x,consentMouse1.y,consentMouse1.leftButton,consentMouse1.midButton,consentMouse1.rightButton,consentMouse1.clicked_name,consent_Mouse.x,consent_Mouse.y,consent_Mouse.leftButton,consent_Mouse.midButton,consent_Mouse.rightButton,consent_Mouse.clicked_name,startMouse.x,startMouse.y,startMouse.leftButton,startMouse.midButton,startMouse.rightButton,startMouse_2.x,startMouse_2.y,startMouse_2.leftButton,startMouse_2.midButton,startMouse_2.rightButton,start_distance,fixedOri,minimalDistance,maxOri,this_ori,accuracy,presented_accuracy,submitMouse.x,submitMouse.y,submitMouse.leftButton,submitMouse.midButton,submitMouse.rightButton,submitMouse.time,submitMouse.clicked_name,block_accuracy,continueMouse.x,continueMouse.y,continueMouse.leftButton,continueMouse.midButton,continueMouse.rightButton,trials.thisRepN,trials.thisTrialN,trials.thisN,trials.thisIndex,trials.ran,startOri,participant,condition,nTrials,date,expName,psychopyVersion,OS,frameRate,continueMouse.clicked_name,EndButtonMouse.x,EndButtonMouse.y,EndButtonMouse.leftButton,EndButtonMouse.midButton,EndButtonMouse.rightButton,EndButtonMouse.clicked_name
0.378888889,-0.398888889,1,0,0,consent_button1,0.378888889,-0.398888889,1,0,0,consent_button,0.316666667,-0.274444444,1,0,0,-0.013333333,-0.376666667,1,0,0,-32.77777778,48,20,75,2.222222222,45.77777778,36.62222222,0.385555556,-0.304444444,1,0,0,4.58,submitButton,36.62222222,0.401111111,-0.347777778,0,0,0,0,0,0,32,1,48,67243,blockP,180,2022-02-11_13h20.39.633,orientation adjustment blockP,2021.2.3,MacIntel,50,,,,,,,
,,,,,,,,,,,,,,,,,,,,,,36.11111111,24,20,75,-16.88888889,40.88888889,32.71111111,0.4,-0.295555556,1,0,0,1.149,submitButton,34.66666667,0.328888889,-0.391111111,0,0,0,0,1,1,8,1,24,67243,blockP,180,2022-02-11_13h20.39.633,orientation adjustment blockP,2021.2.3,MacIntel,50,,,,,,,
,,,,,,,,,,,,,,,,,,,,,,-38.88888889,-63,20,75,-236.8888889,6.111111111,2.444444444,0.394444444,-0.298888889,1,0,0,0.166,submitButton,23.92592593,0.681111111,-0.278888889,0,0,0,0,2,2,47,1,63,67243,blockP,180,2022-02-11_13h20.39.633,orientation adjustment blockP,2021.2.3,MacIntel,50,,,,,,,
,,,,,,,,,,,,,,,,,,,,,,26.66666667,51,20,75,219.6666667,11.33333333,4.533333333,0.214444444,-0.3,1,0,0,0.099,submitButton,4.533333333,-0.204444444,-0.415555556,0,0,0,0,3,3,35,1,51,67243,blockP,180,2022-02-11_13h20.39.633,orientation adjustment blockP,2021.2.3,MacIntel,50,,,,,,,
,,,,,,,,,,,,,,,,,,,,,,48.88888889,41,20,75,215.8888889,5.111111111,2.044444444,0.194444444,-0.306666667,1,0,0,0.017,submitButton,3.288888889,-0.221111111,-0.401111111,0,0,0,0,4,4,25,1,41,67243,blockP,180,2022-02-11_13h20.39.633,orientation adjustment blockP,2021.2.3,MacIntel,50,,,,,,,
,,,,,,,,,,,,,,,,,,,,,,-58.88888889,-75,20,75,-204.8888889,50.11111111,42.59444444,-0.284444444,-0.406666667,1,0,0,3.032,submitButton,16.39074074,0.062222222,-0.351111111,0,0,0,0,5,5,59,1,75,67243,blockP,180,2022-02-11_13h20.39.633,orientation adjustment blockP,2021.2.3,MacIntel,50,,,,,,,
,,,,,,,,,,,,,,,,,,,,,,-61.66666667,-34,20,75,-51.66666667,17.66666667,11.48333333,-0.238888889,-0.386666667,1,0,0,1.383,submitButton,11.48333333,0.012222222,-0.373333333,0,0,0,0,6,6,18,1,34,67243,blockP,180,2022-02-11_13h20.39.633,orientation adjustment blockP,2021.2.3,MacIntel,50,,,,,,,
,,,,,,,,,,,,,,,,,,,,,,-44.44444444,36,20,75,27.55555556,8.444444444,3.377777778,-0.235555556,-0.404444444,1,0,0,1.133,submitButton,7.430555556,0.098888889,-0.348888889,0,0,0,0,7,7,20,1,36,67243,blockP,180,2022-02-11_13h20.39.633,orientation adjustment blockP,2021.2.3,MacIntel,50,,,,,,,
,,,,,,,,,,,,,,,,,,,,,,-38.88888889,30,20,75,22.11111111,7.888888889,3.155555556,0.182222222,-0.315555556,1,0,0,0.8,submitButton,6.005555556,-0.138888889,-0.4,0,0,0,0,8,8,14,1,30,67243,blockP,180,2022-02-11_13h20.39.633,orientation adjustment blockP,2021.2.3,MacIntel,50,,,,,,,
,,,,,,,,,,,,,,,,,,,,,,75,-67,20,75,-52,15,9.75,0.386666667,-0.283333333,1,0,0,0.817,submitButton,9.75,-0.225555556,-0.393333333,0,0,0,0,9,9,51,1,67,67243,blockP,180,2022-02-11_13h20.39.633,orientation adjustment blockP,2021.2.3,MacIntel,50,,,,,,,
,,,,,,,,,,,,,,,,,,,,,,70.55555556,-57,20,75,-35.44444444,21.55555556,14.01111111,0.416666667,-0.298888889,1,0,0,0.036,submitButton,11.88055556,-0.273333333,-0.406666667,0,0,0,0,10,10,41,1,57,67243,blockP,180,2022-02-11_13h20.39.633,orientation adjustment blockP,2021.2.3,MacIntel,50,,,,,,,
,,,,,,,,,,,,,,,,,,,,,,-37.22222222,33,20,75,23.77777778,9.222222222,3.688888889,0.183333333,-0.306666667,1,0,0,1.283,submitButton,9.15,-0.207777778,-0.405555556,0,0,0,0,11,11,17,1,33,67243,blockP,180,2022-02-11_13h20.39.633,orientation adjustment blockP,2021.2.3,MacIntel,50,,,,,,,
,,,,,,,,,,,,,,,,,,,,,,-25,70,20,75,76,6,2.4,0.19,-0.305555556,1,0,0,0.9,submitButton,2.4,-0.271111111,-0.396666667,0,0,0,0,12,12,54,1,70,67243,blockP,180,2022-02-11_13h20.39.633,orientation adjustment blockP,2021.2.3,MacIntel,50,,,,,,,
,,,,,,,,,,,,,,,,,,,,,,34.44444444,68,20,75,238.4444444,9.555555556,3.822222222,0.19,-0.285555556,1,0,0,2.604,submitButton,3.111111111,-0.276666667,-0.412222222,0,0,0,0,13,13,52,1,68,67243,blockP,180,2022-02-11_13h20.39.633,orientation adjustment blockP,2021.2.3,MacIntel,50,,,,,,,
,,,,,,,,,,,,,,,,,,,,,,41.11111111,-31,20,75,-13.88888889,17.11111111,11.12222222,0.431111111,-0.293333333,1,0,0,0.683,submitButton,5.781481481,0.302222222,-0.397777778,1,0,0,0,14,14,15,1,31,67243,blockP,180,2022-02-11_13h20.39.633,orientation adjustment blockP,2021.2.3,MacIntel,50,continueButton,,,,,,
,,,,,,,,,,,,,,,,,,,,,,-57.77777778,-18,20,75,-194.7777778,3.222222222,1.288888889,0.398888889,-0.301111111,1,0,0,2.065,submitButton,1.288888889,0.454444444,-0.415555556,0,0,0,0,15,15,2,1,18,67243,blockP,180,2022-02-11_13h20.39.633,orientation adjustment blockP,2021.2.3,MacIntel,50,,,,,,,
,,,,,,,,,,,,,,,,,,,,,,47.77777778,73,20,75,250.7777778,2.222222222,0.888888889,0.218888889,-0.315555556,1,0,0,0.117,submitButton,1.088888889,-0.231111111,-0.415555556,0,0,0,0,16,16,57,1,73,67243,blockP,180,2022-02-11_13h20.39.633,orientation adjustment blockP,2021.2.3,MacIntel,50,,,,,,,
,,,,,,,,,,,,,,,,,,,,,,51.66666667,-74,20,75,-57.33333333,16.66666667,10.83333333,-0.244444444,-0.41,1,0,0,1.616,submitButton,4.337037037,-0.243333333,-0.41,0,0,0,0,17,17,58,1,74,67243,blockP,180,2022-02-11_13h20.39.633,orientation adjustment blockP,2021.2.3,MacIntel,50,,,,,,,
,,,,,,,,,,,,,,,,,,,,,,35.55555556,47,20,75,228.5555556,1.555555556,0.622222222,0.213333333,-0.303333333,1,0,0,2.065,submitButton,3.408333333,-0.435555556,-0.414444444,0,0,0,0,18,18,31,1,47,67243,blockP,180,2022-02-11_13h20.39.633,orientation adjustment blockP,2021.2.3,MacIntel,50,,,,,,,
,,,,,,,,,,,,,,,,,,,,,,73.88888889,39,20,75,66.88888889,27.88888889,18.12777778,0.41,-0.268888889,1,0,0,0.883,submitButton,6.352222222,-0.392222222,-0.402222222,0,0,0,0,19,19,23,1,39,67243,blockP,180,2022-02-11_13h20.39.633,orientation adjustment blockP,2021.2.3,MacIntel,50,,,,,,,
,,,,,,,,,,,,,,,,,,,,,,-58.33333333,-27,20,75,-46.33333333,19.33333333,12.56666667,0.2,-0.322222222,1,0,0,0.694,submitButton,7.387962963,-0.18,-0.404444444,0,0,0,0,20,20,11,1,27,67243,blockP,180,2022-02-11_13h20.39.633,orientation adjustment blockP,2021.2.3,MacIntel,50,,,,,,,
,,,,,,,,,,,,,,,,,,,,,,61.11111111,19,20,75,36.11111111,17.11111111,11.12222222,0.396666667,-0.306666667,1,0,0,0.587,submitButton,7.921428571,-0.322222222,-0.421111111,0,0,0,0,21,21,3,1,19,67243,blockP,180,2022-02-11_13h20.39.633,orientation adjustment blockP,2021.2.3,MacIntel,50,,,,,,,
,,,,,,,,,,,,,,,,,,,,,,24.44444444,-72,20,75,-64.55555556,7.444444444,2.977777778,0.382222222,-0.306666667,1,0,0,0.682,submitButton,7.303472222,-0.28,-0.418888889,0,0,0,0,22,22,56,1,72,67243,blockP,180,2022-02-11_13h20.39.633,orientation adjustment blockP,2021.2.3,MacIntel,50,,,,,,,
,,,,,,,,,,,,,,,,,,,,,,26.11111111,52,20,75,72.11111111,20.11111111,13.07222222,0.407777778,-0.284444444,1,0,0,1.292,submitButton,7.944444444,-0.303333333,-0.4,0,0,0,0,23,23,36,1,52,67243,blockP,180,2022-02-11_13h20.39.633,orientation adjustment blockP,2021.2.3,MacIntel,50,,,,,,,
,,,,,,,,,,,,,,,,,,,,,,51.66666667,-16,20,75,146.6666667,17.33333333,11.26666667,0.196666667,-0.295555556,1,0,0,0.297,submitButton,8.276666667,-0.266666667,-0.407777778,0,0,0,0,24,24,0,1,16,67243,blockP,180,2022-02-11_13h20.39.633,orientation adjustment blockP,2021.2.3,MacIntel,50,,,,,,,
,,,,,,,,,,,,,,,,,,,,,,-41.11111111,-53,20,75,-236.1111111,3.111111111,1.244444444,0.387777778,-0.282222222,1,0,0,0.382,submitButton,7.637373737,-0.362222222,-0.421111111,0,0,0,0,25,25,37,1,53,67243,blockP,180,2022-02-11_13h20.39.633,orientation adjustment blockP,2021.2.3,MacIntel,50,,,,,,,
,,,,,,,,,,,,,,,,,,,,,,-67.77777778,-62,20,75,-30.77777778,31.22222222,24.97777778,0.187777778,-0.307777778,1,0,0,0.028,submitButton,9.082407407,-0.365555556,-0.424444444,0,0,0,0,26,26,46,1,62,67243,blockP,180,2022-02-11_13h20.39.633,orientation adjustment blockP,2021.2.3,MacIntel,50,,,,,,,
,,,,,,,,,,,,,,,,,,,,,,26.11111111,-46,20,75,-63.88888889,17.88888889,11.62777778,0.368888889,-0.283333333,1,0,0,0.415,submitButton,9.278205128,0.214444444,-0.394444444,0,0,0,0,27,27,30,1,46,67243,blockP,180,2022-02-11_13h20.39.633,orientation adjustment blockP,2021.2.3,MacIntel,50,,,,,,,
,,,,,,,,,,,,,,,,,,,,,,74.44444444,20,20,75,211.4444444,11.44444444,4.577777778,0.185555556,-0.305555556,1,0,0,1.916,submitButton,8.942460317,0.145555556,-0.357777778,0,0,0,0,28,28,4,1,20,67243,blockP,180,2022-02-11_13h20.39.633,orientation adjustment blockP,2021.2.3,MacIntel,50,,,,,,,
,,,,,,,,,,,,,,,,,,,,,,37.22222222,-65,20,75,108.2222222,6.777777778,2.711111111,0.374444444,-0.296666667,1,0,0,0.473,submitButton,8.527037037,0.374444444,-0.394444444,1,0,0,0,29,29,49,1,65,67243,blockP,180,2022-02-11_13h20.39.633,orientation adjustment blockP,2021.2.3,MacIntel,50,continueButton,,,,,,
,,,,,,,,,,,,,,,,,,,,,,27.77777778,49,20,75,60.77777778,11.77777778,4.711111111,0.404444444,-0.297777778,1,0,0,0.659,submitButton,8.288541667,0.197777778,-0.034444444,0,0,0,0,30,30,33,1,49,67243,blockP,180,2022-02-11_13h20.39.633,orientation adjustment blockP,2021.2.3,MacIntel,50,,,,,,,
,,,,,,,,,,,,,,,,,,,,,,42.77777778,-17,20,75,165.7777778,2.777777778,1.111111111,0.21,-0.291111111,1,0,0,0.109,submitButton,7.866339869,0.545555556,-0.092222222,0,0,0,0,31,31,1,1,17,67243,blockP,180,2022-02-11_13h20.39.633,orientation adjustment blockP,2021.2.3,MacIntel,50,,,,,,,
,,,,,,,,,,,,,,,,,,,,,,36.11111111,37,20,75,37.11111111,0.111111111,0.044444444,0.433333333,-0.298888889,1,0,0,0.017,submitButton,7.431790123,0.568888889,-0.243333333,0,0,0,0,32,32,21,1,37,67243,blockP,180,2022-02-11_13h20.39.633,orientation adjustment blockP,2021.2.3,MacIntel,50,,,,,,,
,,,,,,,,,,,,,,,,,,,,,,-72.77777778,-35,20,75,-200.7777778,14.22222222,5.688888889,0.415555556,-0.3,1,0,0,0.372,submitButton,7.34005848,0.374444444,-0.138888889,0,0,0,0,33,33,19,1,35,67243,blockP,180,2022-02-11_13h20.39.633,orientation adjustment blockP,2021.2.3,MacIntel,50,,,,,,,
,,,,,,,,,,,,,,,,,,,,,,-35,42,20,75,44,2,0.8,0.206666667,-0.281111111,1,0,0,0.4,submitButton,7.013055556,0.425555556,-0.123333333,0,0,0,0,34,34,26,1,42,67243,blockP,180,2022-02-11_13h20.39.633,orientation adjustment blockP,2021.2.3,MacIntel,50,,,,,,,
,,,,,,,,,,,,,,,,,,,,,,68.33333333,29,20,75,207.3333333,1.666666667,0.666666667,0.204444444,-0.286666667,1,0,0,1.733,submitButton,6.710846561,0.455555556,-0.176666667,0,0,0,0,35,35,13,1,29,67243,blockP,180,2022-02-11_13h20.39.633,orientation adjustment blockP,2021.2.3,MacIntel,50,,,,,,,
,,,,,,,,,,,,,,,,,,,,,,70.55555556,-71,20,75,-37.44444444,33.55555556,26.84444444,0.434444444,-0.287777778,1,0,0,0.139,submitButton,7.626010101,0.234444444,-0.293333333,0,0,0,0,36,36,55,1,71,67243,blockP,180,2022-02-11_13h20.39.633,orientation adjustment blockP,2021.2.3,MacIntel,50,,,,,,,
,,,,,,,,,,,,,,,,,,,,,,-72.77777778,-60,20,75,-49.77777778,10.22222222,4.088888889,0.208888889,-0.306666667,1,0,0,1.445,submitButton,7.472222222,0.373333333,-0.146666667,0,0,0,0,37,37,44,1,60,67243,blockP,180,2022-02-11_13h20.39.633,orientation adjustment blockP,2021.2.3,MacIntel,50,,,,,,,
,,,,,,,,,,,,,,,,,,,,,,-63.33333333,40,20,75,-133.3333333,6.666666667,2.666666667,0.402222222,-0.286666667,1,0,0,0.101,submitButton,7.271990741,0.242222222,-0.138888889,0,0,0,0,38,38,24,1,40,67243,blockP,180,2022-02-11_13h20.39.633,orientation adjustment blockP,2021.2.3,MacIntel,50,,,,,,,
,,,,,,,,,,,,,,,,,,,,,,-66.66666667,45,20,75,36.33333333,8.666666667,3.466666667,0.194444444,-0.301111111,1,0,0,0.017,submitButton,7.119777778,0.312222222,-0.217777778,0,0,0,0,39,39,29,1,45,67243,blockP,180,2022-02-11_13h20.39.633,orientation adjustment blockP,2021.2.3,MacIntel,50,,,,,,,
,,,,,,,,,,,,,,,,,,,,,,-32.22222222,43,20,75,39.77777778,3.222222222,1.288888889,-0.132222222,-0.401111111,1,0,0,1.566,submitButton,6.895512821,0.332222222,-0.304444444,0,0,0,0,40,40,27,1,43,67243,blockP,180,2022-02-11_13h20.39.633,orientation adjustment blockP,2021.2.3,MacIntel,50,,,,,,,
,,,,,,,,,,,,,,,,,,,,,,44.44444444,-58,20,75,-53.55555556,4.444444444,1.777777778,0.421111111,-0.305555556,1,0,0,1.198,submitButton,6.705967078,0.305555556,-0.354444444,0,0,0,0,41,41,42,1,58,67243,blockP,180,2022-02-11_13h20.39.633,orientation adjustment blockP,2021.2.3,MacIntel,50,,,,,,,
,,,,,,,,,,,,,,,,,,,,,,-63.33333333,-44,20,75,-58.33333333,14.33333333,5.733333333,0.187777778,-0.302222222,1,0,0,0.634,submitButton,6.671230159,0.384444444,-0.237777778,0,0,0,0,42,42,28,1,44,67243,blockP,180,2022-02-11_13h20.39.633,orientation adjustment blockP,2021.2.3,MacIntel,50,,,,,,,
,,,,,,,,,,,,,,,,,,,,,,32.77777778,-32,20,75,-42.22222222,10.22222222,4.088888889,0.415555556,-0.293333333,1,0,0,0.776,submitButton,6.582183908,-0.044444444,-0.311111111,0,0,0,0,43,43,16,1,32,67243,blockP,180,2022-02-11_13h20.39.633,orientation adjustment blockP,2021.2.3,MacIntel,50,,,,,,,
,,,,,,,,,,,,,,,,,,,,,,37.22222222,22,20,75,202.2222222,0.222222222,0.088888889,-0.244444444,-0.408888889,1,0,0,3.232,submitButton,6.365740741,0.231111111,-0.403333333,1,0,0,0,44,44,6,1,22,67243,blockP,180,2022-02-11_13h20.39.633,orientation adjustment blockP,2021.2.3,MacIntel,50,continueButton,,,,,,
,,,,,,,,,,,,,,,,,,,,,,47.22222222,25,20,75,47.22222222,22.22222222,14.44444444,0.397777778,-0.297777778,1,0,0,0.433,submitButton,6.626344086,0.131111111,-0.211111111,0,0,0,0,45,45,9,1,25,67243,blockP,180,2022-02-11_13h20.39.633,orientation adjustment blockP,2021.2.3,MacIntel,50,,,,,,,
,,,,,,,,,,,,,,,,,,,,,,63.33333333,-61,20,75,-39.66666667,21.33333333,13.86666667,-0.223333333,-0.405555556,1,0,0,1.666,submitButton,6.852604167,0.202222222,-0.146666667,0,0,0,0,46,46,45,1,61,67243,blockP,180,2022-02-11_13h20.39.633,orientation adjustment blockP,2021.2.3,MacIntel,50,,,,,,,
,,,,,,,,,,,,,,,,,,,,,,-30.55555556,-69,20,75,-229.5555556,19.44444444,12.63888889,0.4,-0.294444444,1,0,0,2.133,submitButton,7.027946128,0.353333333,-0.263333333,0,0,0,0,47,47,53,1,69,67243,blockP,180,2022-02-11_13h20.39.633,orientation adjustment blockP,2021.2.3,MacIntel,50,,,,,,,
,,,,,,,,,,,,,,,,,,,,,,66.66666667,-66,20,75,-44.33333333,21.66666667,14.08333333,0.405555556,-0.306666667,1,0,0,0.899,submitButton,7.235457516,0.312222222,-0.261111111,0,0,0,0,48,48,50,1,66,67243,blockP,180,2022-02-11_13h20.39.633,orientation adjustment blockP,2021.2.3,MacIntel,50,,,,,,,
,,,,,,,,,,,,,,,,,,,,,,-38.88888889,56,20,75,48.11111111,7.888888889,3.155555556,-0.22,-0.397777778,1,0,0,1.282,submitButton,7.118888889,0.282222222,-0.278888889,0,0,0,0,49,49,40,1,56,67243,blockP,180,2022-02-11_13h20.39.633,orientation adjustment blockP,2021.2.3,MacIntel,50,,,,,,,
,,,,,,,,,,,,,,,,,,,,,,-70,54,20,75,-27,81,72.9,0.411111111,-0.298888889,1,0,0,0.182,submitButton,8.946141975,0.343333333,-0.192222222,0,0,0,0,50,50,38,1,54,67243,blockP,180,2022-02-11_13h20.39.633,orientation adjustment blockP,2021.2.3,MacIntel,50,,,,,,,
,,,,,,,,,,,,,,,,,,,,,,35.55555556,50,20,75,54.55555556,4.555555556,1.822222222,0.41,-0.288888889,1,0,0,0.615,submitButton,8.753603604,0.423333333,-0.088888889,0,0,0,0,51,51,34,1,50,67243,blockP,180,2022-02-11_13h20.39.633,orientation adjustment blockP,2021.2.3,MacIntel,50,,,,,,,
,,,,,,,,,,,,,,,,,,,,,,42.77777778,38,20,75,215.7777778,2.222222222,0.888888889,0.205555556,-0.284444444,1,0,0,0.101,submitButton,8.546637427,0.35,-0.255555556,0,0,0,0,52,52,22,1,38,67243,blockP,180,2022-02-11_13h20.39.633,orientation adjustment blockP,2021.2.3,MacIntel,50,,,,,,,
,,,,,,,,,,,,,,,,,,,,,,20,-23,20,75,-28,5,2,0.434444444,-0.303333333,1,0,0,0.15,submitButton,8.378774929,0.566666667,-0.03,0,0,0,0,53,53,7,1,23,67243,blockP,180,2022-02-11_13h20.39.633,orientation adjustment blockP,2021.2.3,MacIntel,50,,,,,,,
,,,,,,,,,,,,,,,,,,,,,,62.77777778,-64,20,75,-49.22222222,14.77777778,5.911111111,0.394444444,-0.31,1,0,0,0.401,submitButton,8.317083333,0.351111111,-0.226666667,0,0,0,0,54,54,48,1,64,67243,blockP,180,2022-02-11_13h20.39.633,orientation adjustment blockP,2021.2.3,MacIntel,50,,,,,,,
,,,,,,,,,,,,,,,,,,,,,,-41.11111111,28,20,75,22.88888889,5.111111111,2.044444444,-0.148888889,-0.401111111,1,0,0,1.067,submitButton,8.164092141,0.264444444,-0.217777778,0,0,0,0,55,55,12,1,28,67243,blockP,180,2022-02-11_13h20.39.633,orientation adjustment blockP,2021.2.3,MacIntel,50,,,,,,,
,,,,,,,,,,,,,,,,,,,,,,-41.11111111,-55,20,75,-212.1111111,22.88888889,14.87777778,0.39,-0.287777778,1,0,0,1.549,submitButton,8.323941799,0.245555556,-0.325555556,0,0,0,0,56,56,39,1,55,67243,blockP,180,2022-02-11_13h20.39.633,orientation adjustment blockP,2021.2.3,MacIntel,50,,,,,,,
,,,,,,,,,,,,,,,,,,,,,,72.22222222,26,20,75,211.2222222,5.222222222,2.088888889,0.167777778,-0.3,1,0,0,1.981,submitButton,8.178940568,0.456666667,-0.227777778,0,0,0,0,57,57,10,1,26,67243,blockP,180,2022-02-11_13h20.39.633,orientation adjustment blockP,2021.2.3,MacIntel,50,,,,,,,
,,,,,,,,,,,,,,,,,,,,,,40.55555556,-59,20,75,-39.44444444,19.55555556,12.71111111,0.215555556,-0.295555556,1,0,0,1.5,submitButton,8.281944444,0.455555556,-0.164444444,0,0,0,0,58,58,43,1,59,67243,blockP,180,2022-02-11_13h20.39.633,orientation adjustment blockP,2021.2.3,MacIntel,50,,,,,,,
,,,,,,,,,,,,,,,,,,,,,,-53.88888889,-21,20,75,-26.88888889,5.888888889,2.355555556,0.181111111,-0.286666667,1,0,0,1.016,submitButton,8.150246914,0.268888889,-0.406666667,1,0,0,0,59,59,5,1,21,67243,blockP,180,2022-02-11_13h20.39.633,orientation adjustment blockP,2021.2.3,MacIntel,50,continueButton,,,,,,
,,,,,,,,,,,,,,,,,,,,,,21.66666667,42,20,75,57.66666667,15.66666667,10.18333333,0.397777778,-0.312222222,1,0,0,0.283,submitButton,8.194444444,0.362222222,-0.244444444,0,0,0,1,0,60,26,1,42,67243,blockP,180,2022-02-11_13h20.39.633,orientation adjustment blockP,2021.2.3,MacIntel,50,,,,,,,
,,,,,,,,,,,,,,,,,,,,,,61.11111111,27,20,75,49.11111111,22.11111111,14.37222222,-0.22,-0.412222222,1,0,0,1.756,submitButton,8.325886525,0.255555556,-0.352222222,0,0,0,1,1,61,11,1,27,67243,blockP,180,2022-02-11_13h20.39.633,orientation adjustment blockP,2021.2.3,MacIntel,50,,,,,,,
,,,,,,,,,,,,,,,,,,,,,,58.33333333,55,20,75,212.3333333,22.66666667,14.73333333,-0.23,-0.408888889,1,0,0,2.373,submitButton,8.459375,0.521111111,-0.301111111,0,0,0,1,2,62,39,1,55,67243,blockP,180,2022-02-11_13h20.39.633,orientation adjustment blockP,2021.2.3,MacIntel,50,,,,,,,
,,,,,,,,,,,,,,,,,,,,,,-58.33333333,-65,20,75,-214.3333333,30.66666667,24.53333333,0.423333333,-0.301111111,1,0,0,0.516,submitButton,8.787414966,0.432222222,-0.261111111,0,0,0,1,3,63,49,1,65,67243,blockP,180,2022-02-11_13h20.39.633,orientation adjustment blockP,2021.2.3,MacIntel,50,,,,,,,
,,,,,,,,,,,,,,,,,,,,,,-63.33333333,-19,20,75,-36.33333333,17.33333333,11.26666667,0.181111111,-0.306666667,1,0,0,1.199,submitButton,8.837,0.273333333,-0.326666667,0,0,0,1,4,64,3,1,19,67243,blockP,180,2022-02-11_13h20.39.633,orientation adjustment blockP,2021.2.3,MacIntel,50,,,,,,,
,,,,,,,,,,,,,,,,,,,,,,-59.44444444,16,20,75,30.55555556,14.55555556,5.822222222,-0.235555556,-0.41,1,0,0,1.283,submitButton,8.77788671,0.302222222,-0.365555556,0,0,0,1,5,65,0,1,16,67243,blockP,180,2022-02-11_13h20.39.633,orientation adjustment blockP,2021.2.3,MacIntel,50,,,,,,,
,,,,,,,,,,,,,,,,,,,,,,-23.33333333,34,20,75,32.66666667,1.333333333,0.533333333,-0.206666667,-0.4,1,0,0,0.599,submitButton,8.619337607,0.372222222,-0.127777778,0,0,0,1,6,66,18,1,34,67243,blockP,180,2022-02-11_13h20.39.633,orientation adjustment blockP,2021.2.3,MacIntel,50,,,,,,,
,,,,,,,,,,,,,,,,,,,,,,57.77777778,-52,20,75,-25.22222222,26.77777778,17.40555556,-0.128888889,-0.41,1,0,0,1.067,submitButton,8.785115304,0.278888889,-0.315555556,0,0,0,1,7,67,36,1,52,67243,blockP,180,2022-02-11_13h20.39.633,orientation adjustment blockP,2021.2.3,MacIntel,50,,,,,,,
,,,,,,,,,,,,,,,,,,,,,,71.11111111,54,20,75,214.1111111,19.88888889,12.92777778,-0.22,-0.402222222,1,0,0,1.781,submitButton,8.861831276,0.306666667,-0.264444444,0,0,0,1,8,68,38,1,54,67243,blockP,180,2022-02-11_13h20.39.633,orientation adjustment blockP,2021.2.3,MacIntel,50,,,,,,,
,,,,,,,,,,,,,,,,,,,,,,-26.66666667,-30,20,75,-31.66666667,1.666666667,0.666666667,0.195555556,-0.301111111,1,0,0,0.066,submitButton,8.712828283,0.503333333,-0.162222222,0,0,0,1,9,69,14,1,30,67243,blockP,180,2022-02-11_13h20.39.633,orientation adjustment blockP,2021.2.3,MacIntel,50,,,,,,,
,,,,,,,,,,,,,,,,,,,,,,73.88888889,-46,20,75,-20.11111111,25.88888889,16.82777778,-0.172222222,-0.403333333,1,0,0,1.515,submitButton,8.857738095,0.264444444,-0.268888889,0,0,0,1,10,70,30,1,46,67243,blockP,180,2022-02-11_13h20.39.633,orientation adjustment blockP,2021.2.3,MacIntel,50,,,,,,,
,,,,,,,,,,,,,,,,,,,,,,71.66666667,-67,20,75,-56.33333333,10.66666667,4.266666667,0.386666667,-0.294444444,1,0,0,1.124,submitButton,8.777192982,0.227777778,-0.251111111,0,0,0,1,11,71,51,1,67,67243,blockP,180,2022-02-11_13h20.39.633,orientation adjustment blockP,2021.2.3,MacIntel,50,,,,,,,
,,,,,,,,,,,,,,,,,,,,,,-25,58,20,75,65,7,2.8,0.198888889,-0.307777778,1,0,0,0.549,submitButton,8.674137931,0.447777778,-0.246666667,0,0,0,1,12,72,42,1,58,67243,blockP,180,2022-02-11_13h20.39.633,orientation adjustment blockP,2021.2.3,MacIntel,50,,,,,,,
,,,,,,,,,,,,,,,,,,,,,,23.33333333,43,20,75,59.33333333,16.33333333,10.61666667,-0.303333333,-0.414444444,1,0,0,1.533,submitButton,8.707062147,0.593333333,-0.19,0,0,0,1,13,73,27,1,43,67243,blockP,180,2022-02-11_13h20.39.633,orientation adjustment blockP,2021.2.3,MacIntel,50,,,,,,,
,,,,,,,,,,,,,,,,,,,,,,37.77777778,75,20,75,242.7777778,12.22222222,4.888888889,0.178888889,-0.293333333,1,0,0,1.949,submitButton,8.643425926,0.308888889,-0.406666667,1,0,0,1,14,74,59,1,75,67243,blockP,180,2022-02-11_13h20.39.633,orientation adjustment blockP,2021.2.3,MacIntel,50,continueButton,,,,,,
,,,,,,,,,,,,,,,,,,,,,,57.22222222,18,20,75,24.22222222,6.222222222,2.488888889,0.393333333,-0.295555556,1,0,0,0.784,submitButton,8.542531876,0.437777778,-0.296666667,0,0,0,1,15,75,2,1,18,67243,blockP,180,2022-02-11_13h20.39.633,orientation adjustment blockP,2021.2.3,MacIntel,50,,,,,,,
,,,,,,,,,,,,,,,,,,,,,,53.33333333,57,20,75,218.3333333,18.66666667,12.13333333,-0.26,-0.397777778,1,0,0,2.482,submitButton,8.600448029,0.745555556,-0.116666667,0,0,0,1,16,76,41,1,57,67243,blockP,180,2022-02-11_13h20.39.633,orientation adjustment blockP,2021.2.3,MacIntel,50,,,,,,,
,,,,,,,,,,,,,,,,,,,,,,56.66666667,74,20,75,66.66666667,7.333333333,2.933333333,0.415555556,-0.314444444,1,0,0,0.2,submitButton,8.510493827,0.262222222,-0.345555556,0,0,0,1,17,77,58,1,74,67243,blockP,180,2022-02-11_13h20.39.633,orientation adjustment blockP,2021.2.3,MacIntel,50,,,,,,,
,,,,,,,,,,,,,,,,,,,,,,-22.22222222,24,20,75,27.77777778,3.777777778,1.511111111,0.177777778,-0.284444444,1,0,0,0.034,submitButton,8.401128472,0.407777778,-0.332222222,0,0,0,1,18,78,8,1,24,67243,blockP,180,2022-02-11_13h20.39.633,orientation adjustment blockP,2021.2.3,MacIntel,50,,,,,,,
,,,,,,,,,,,,,,,,,,,,,,68.88888889,-26,20,75,-20.11111111,5.888888889,2.355555556,0.443333333,-0.29,1,0,0,1.282,submitButton,8.308119658,0.388888889,-0.29,0,0,0,1,19,79,10,1,26,67243,blockP,180,2022-02-11_13h20.39.633,orientation adjustment blockP,2021.2.3,MacIntel,50,,,,,,,
,,,,,,,,,,,,,,,,,,,,,,42.22222222,22,20,75,32.22222222,10.22222222,4.088888889,0.365555556,-0.281111111,1,0,0,0.118,submitButton,8.244191919,0.355555556,-0.278888889,0,0,0,1,20,80,6,1,22,67243,blockP,180,2022-02-11_13h20.39.633,orientation adjustment blockP,2021.2.3,MacIntel,50,,,,,,,
,,,,,,,,,,,,,,,,,,,,,,32.22222222,60,20,75,59.22222222,0.777777778,0.311111111,0.433333333,-0.277777778,1,0,0,0.683,submitButton,8.125787728,0.185555556,-0.397777778,0,0,0,1,21,81,44,1,60,67243,blockP,180,2022-02-11_13h20.39.633,orientation adjustment blockP,2021.2.3,MacIntel,50,,,,,,,
,,,,,,,,,,,,,,,,,,,,,,39.44444444,-37,20,75,-22.55555556,14.44444444,5.777777778,-0.258888889,-0.394444444,1,0,0,1.067,submitButton,8.09125817,0.356666667,-0.342222222,0,0,0,1,22,82,21,1,37,67243,blockP,180,2022-02-11_13h20.39.633,orientation adjustment blockP,2021.2.3,MacIntel,50,,,,,,,
,,,,,,,,,,,,,,,,,,,,,,27.77777778,-41,20,75,-36.22222222,4.777777778,1.911111111,-0.198888889,-0.424444444,1,0,0,0.9,submitButton,8.001690821,0.18,-0.361111111,0,0,0,1,23,83,25,1,41,67243,blockP,180,2022-02-11_13h20.39.633,orientation adjustment blockP,2021.2.3,MacIntel,50,,,,,,,
,,,,,,,,,,,,,,,,,,,,,,69.44444444,35,20,75,48.44444444,13.44444444,5.377777778,0.413333333,-0.285555556,1,0,0,1.766,submitButton,7.964206349,0.281111111,-0.407777778,0,0,0,1,24,84,19,1,35,67243,blockP,180,2022-02-11_13h20.39.633,orientation adjustment blockP,2021.2.3,MacIntel,50,,,,,,,
,,,,,,,,,,,,,,,,,,,,,,-21.66666667,38,20,75,27.33333333,10.66666667,4.266666667,0.198888889,-0.295555556,1,0,0,0.166,submitButton,7.912128326,0.267777778,-0.364444444,0,0,0,1,25,85,22,1,38,67243,blockP,180,2022-02-11_13h20.39.633,orientation adjustment blockP,2021.2.3,MacIntel,50,,,,,,,
,,,,,,,,,,,,,,,,,,,,,,-38.88888889,-31,20,75,-214.8888889,3.888888889,1.555555556,0.376666667,-0.29,1,0,0,2.265,submitButton,7.823842593,0.152222222,-0.432222222,0,0,0,1,26,86,15,1,31,67243,blockP,180,2022-02-11_13h20.39.633,orientation adjustment blockP,2021.2.3,MacIntel,50,,,,,,,
,,,,,,,,,,,,,,,,,,,,,,45,-25,20,75,-27,2,0.8,0.37,-0.318888889,1,0,0,0.167,submitButton,7.727625571,0.205555556,-0.313333333,0,0,0,1,27,87,9,1,25,67243,blockP,180,2022-02-11_13h20.39.633,orientation adjustment blockP,2021.2.3,MacIntel,50,,,,,,,
,,,,,,,,,,,,,,,,,,,,,,22.22222222,66,20,75,250.2222222,4.222222222,1.688888889,0.185555556,-0.283333333,1,0,0,2.697,submitButton,7.646021021,0.221111111,-0.333333333,0,0,0,1,28,88,50,1,66,67243,blockP,180,2022-02-11_13h20.39.633,orientation adjustment blockP,2021.2.3,MacIntel,50,,,,,,,
,,,,,,,,,,,,,,,,,,,,,,41.66666667,56,20,75,54.66666667,1.333333333,0.533333333,0.39,-0.316666667,1,0,0,0.051,submitButton,7.551185185,0.336666667,-0.4,1,0,0,1,29,89,40,1,56,67243,blockP,180,2022-02-11_13h20.39.633,orientation adjustment blockP,2021.2.3,MacIntel,50,continueButton,,,,,,
,,,,,,,,,,,,,,,,,,,,,,-22.77777778,-23,20,75,-38.77777778,15.77777778,10.25555556,0.212222222,-0.296666667,1,0,0,0.883,submitButton,7.586769006,0.6,-0.338888889,0,0,0,1,30,90,7,1,23,67243,blockP,180,2022-02-11_13h20.39.633,orientation adjustment blockP,2021.2.3,MacIntel,50,,,,,,,
,,,,,,,,,,,,,,,,,,,,,,61.11111111,-20,20,75,-12.88888889,7.111111111,2.844444444,0.388888889,-0.298888889,1,0,0,1.017,submitButton,7.525180375,0.358888889,-0.39,0,0,0,1,31,91,4,1,20,67243,blockP,180,2022-02-11_13h20.39.633,orientation adjustment blockP,2021.2.3,MacIntel,50,,,,,,,
,,,,,,,,,,,,,,,,,,,,,,-55,-59,20,75,-230,9,3.6,0.395555556,-0.296666667,1,0,0,1.383,submitButton,7.47485755,0.49,-0.333333333,0,0,0,1,32,92,43,1,59,67243,blockP,180,2022-02-11_13h20.39.633,orientation adjustment blockP,2021.2.3,MacIntel,50,,,,,,,
,,,,,,,,,,,,,,,,,,,,,,-26.11111111,-49,20,75,-55.11111111,6.111111111,2.444444444,0.167777778,-0.295555556,1,0,0,0.35,submitButton,7.411181435,0.588888889,-0.178888889,0,0,0,1,33,93,33,1,49,67243,blockP,180,2022-02-11_13h20.39.633,orientation adjustment blockP,2021.2.3,MacIntel,50,,,,,,,
,,,,,,,,,,,,,,,,,,,,,,62.77777778,-28,20,75,-30.22222222,2.222222222,0.888888889,0.427777778,-0.277777778,1,0,0,0.032,submitButton,7.329652778,0.33,-0.254444444,0,0,0,1,34,94,12,1,28,67243,blockP,180,2022-02-11_13h20.39.633,orientation adjustment blockP,2021.2.3,MacIntel,50,,,,,,,
,,,,,,,,,,,,,,,,,,,,,,55.55555556,-73,20,75,-58.44444444,14.55555556,5.822222222,-0.221111111,-0.422222222,1,0,0,1.134,submitButton,7.311042524,0.324444444,-0.297777778,0,0,0,1,35,95,57,1,73,67243,blockP,180,2022-02-11_13h20.39.633,orientation adjustment blockP,2021.2.3,MacIntel,50,,,,,,,
,,,,,,,,,,,,,,,,,,,,,,-52.22222222,-21,20,75,-39.22222222,18.22222222,11.84444444,0.174444444,-0.293333333,1,0,0,0.1,submitButton,7.366327913,0.204444444,-0.295555556,0,0,0,1,36,96,5,1,21,67243,blockP,180,2022-02-11_13h20.39.633,orientation adjustment blockP,2021.2.3,MacIntel,50,,,,,,,
,,,,,,,,,,,,,,,,,,,,,,-20.55555556,17,20,75,-3.555555556,20.55555556,13.36111111,-0.236666667,-0.411111111,1,0,0,1.584,submitButton,7.438554217,0.376666667,-0.314444444,0,0,0,1,37,97,1,1,17,67243,blockP,180,2022-02-11_13h20.39.633,orientation adjustment blockP,2021.2.3,MacIntel,50,,,,,,,
,,,,,,,,,,,,,,,,,,,,,,-51.66666667,-63,20,75,-242.6666667,0.333333333,0.133333333,-0.183333333,-0.402222222,1,0,0,2.365,submitButton,7.351587302,0.22,-0.295555556,0,0,0,1,38,98,47,1,63,67243,blockP,180,2022-02-11_13h20.39.633,orientation adjustment blockP,2021.2.3,MacIntel,50,,,,,,,
,,,,,,,,,,,,,,,,,,,,,,36.66666667,36,20,75,61.66666667,25.66666667,16.68333333,0.392222222,-0.314444444,1,0,0,0.2,submitButton,7.461372549,0.287777778,-0.3,0,0,0,1,39,99,20,1,36,67243,blockP,180,2022-02-11_13h20.39.633,orientation adjustment blockP,2021.2.3,MacIntel,50,,,,,,,
,,,,,,,,,,,,,,,,,,,,,,-51.66666667,48,20,75,48.33333333,0.333333333,0.133333333,-0.227777778,-0.413333333,1,0,0,1.232,submitButton,7.376162791,0.203333333,-0.36,0,0,0,1,40,100,32,1,48,67243,blockP,180,2022-02-11_13h20.39.633,orientation adjustment blockP,2021.2.3,MacIntel,50,,,,,,,
,,,,,,,,,,,,,,,,,,,,,,45.55555556,-70,20,75,-64.44444444,5.555555556,2.222222222,0.38,-0.317777778,1,0,0,0.2,submitButton,7.316922095,0.157777778,-0.423333333,0,0,0,1,41,101,54,1,70,67243,blockP,180,2022-02-11_13h20.39.633,orientation adjustment blockP,2021.2.3,MacIntel,50,,,,,,,
,,,,,,,,,,,,,,,,,,,,,,52.77777778,39,20,75,225.7777778,6.777777778,2.711111111,-0.262222222,-0.428888889,1,0,0,2.549,submitButton,7.264583333,0.14,-0.343333333,0,0,0,1,42,102,23,1,39,67243,blockP,180,2022-02-11_13h20.39.633,orientation adjustment blockP,2021.2.3,MacIntel,50,,,,,,,
,,,,,,,,,,,,,,,,,,,,,,33.88888889,-29,20,75,-22.11111111,6.888888889,2.755555556,-0.166666667,-0.412222222,1,0,0,0.815,submitButton,7.2139201,0.204444444,-0.352222222,0,0,0,1,43,103,13,1,29,67243,blockP,180,2022-02-11_13h20.39.633,orientation adjustment blockP,2021.2.3,MacIntel,50,,,,,,,
,,,,,,,,,,,,,,,,,,,,,,65.55555556,62,20,75,231.5555556,10.44444444,4.177777778,-0.182222222,-0.407777778,1,0,0,2.434,submitButton,7.180185185,0.32,-0.405555556,1,0,0,1,44,104,46,1,62,67243,blockP,180,2022-02-11_13h20.39.633,orientation adjustment blockP,2021.2.3,MacIntel,50,continueButton,,,,,,
,,,,,,,,,,,,,,,,,,,,,,-46.11111111,44,20,75,32.88888889,11.11111111,4.444444444,-0.2,-0.405555556,1,0,0,2.11,submitButton,7.1501221,0.581111111,-0.148888889,0,0,0,1,45,105,28,1,44,67243,blockP,180,2022-02-11_13h20.39.633,orientation adjustment blockP,2021.2.3,MacIntel,50,,,,,,,
,,,,,,,,,,,,,,,,,,,,,,-71.66666667,-68,20,75,-236.6666667,11.33333333,4.533333333,0.432222222,-0.295555556,1,0,0,1.208,submitButton,7.121678744,0.501111111,-0.208888889,0,0,0,1,46,106,52,1,68,67243,blockP,180,2022-02-11_13h20.39.633,orientation adjustment blockP,2021.2.3,MacIntel,50,,,,,,,
,,,,,,,,,,,,,,,,,,,,,,-41.66666667,-51,20,75,-231.6666667,0.666666667,0.266666667,0.436666667,-0.282222222,1,0,0,1.715,submitButton,7.047968937,0.425555556,-0.366666667,0,0,0,1,47,107,35,1,51,67243,blockP,180,2022-02-11_13h20.39.633,orientation adjustment blockP,2021.2.3,MacIntel,50,,,,,,,
,,,,,,,,,,,,,,,,,,,,,,-30,-40,20,75,-55,15,9.75,0.193333333,-0.302222222,1,0,0,0.283,submitButton,7.076713948,0.403333333,-0.285555556,0,0,0,1,48,108,24,1,40,67243,blockP,180,2022-02-11_13h20.39.633,orientation adjustment blockP,2021.2.3,MacIntel,50,,,,,,,
,,,,,,,,,,,,,,,,,,,,,,26.66666667,-64,20,75,-47.33333333,16.66666667,10.83333333,0.417777778,-0.296666667,1,0,0,0.1,submitButton,7.11625731,0.241111111,-0.291111111,0,0,0,1,49,109,48,1,64,67243,blockP,180,2022-02-11_13h20.39.633,orientation adjustment blockP,2021.2.3,MacIntel,50,,,,,,,
,,,,,,,,,,,,,,,,,,,,,,-58.33333333,47,20,75,35.66666667,11.33333333,4.533333333,-0.208888889,-0.401111111,1,0,0,0.916,submitButton,7.089351852,0.417777778,-0.244444444,0,0,0,1,50,110,31,1,47,67243,blockP,180,2022-02-11_13h20.39.633,orientation adjustment blockP,2021.2.3,MacIntel,50,,,,,,,
,,,,,,,,,,,,,,,,,,,,,,60,72,20,75,236,16,10.4,0.176666667,-0.298888889,1,0,0,0.083,submitButton,7.123482245,0.443333333,-0.372222222,0,0,0,1,51,111,56,1,72,67243,blockP,180,2022-02-11_13h20.39.633,orientation adjustment blockP,2021.2.3,MacIntel,50,,,,,,,
,,,,,,,,,,,,,,,,,,,,,,34.44444444,71,20,75,59.44444444,11.55555556,4.622222222,0.433333333,-0.311111111,1,0,0,0.034,submitButton,7.097959184,0.34,-0.336666667,0,0,0,1,52,112,55,1,71,67243,blockP,180,2022-02-11_13h20.39.633,orientation adjustment blockP,2021.2.3,MacIntel,50,,,,,,,
,,,,,,,,,,,,,,,,,,,,,,-56.66666667,32,20,75,28.33333333,3.666666667,1.466666667,-0.203333333,-0.391111111,1,0,0,1.466,submitButton,7.041077441,0.168888889,-0.3,0,0,0,1,53,113,16,1,32,67243,blockP,180,2022-02-11_13h20.39.633,orientation adjustment blockP,2021.2.3,MacIntel,50,,,,,,,
,,,,,,,,,,,,,,,,,,,,,,32.22222222,53,20,75,245.2222222,12.22222222,4.888888889,0.216666667,-0.276666667,1,0,0,2.399,submitButton,7.019555556,0.482222222,-0.342222222,0,0,0,1,54,114,37,1,53,67243,blockP,180,2022-02-11_13h20.39.633,orientation adjustment blockP,2021.2.3,MacIntel,50,,,,,,,
,,,,,,,,,,,,,,,,,,,,,,-26.66666667,61,20,75,62.33333333,1.333333333,0.533333333,-0.166666667,-0.405555556,1,0,0,1.215,submitButton,6.955335534,0.453333333,-0.216666667,0,0,0,1,55,115,45,1,61,67243,blockP,180,2022-02-11_13h20.39.633,orientation adjustment blockP,2021.2.3,MacIntel,50,,,,,,,
,,,,,,,,,,,,,,,,,,,,,,22.22222222,-33,20,75,-34.77777778,1.777777778,0.711111111,-0.161111111,-0.406666667,1,0,0,0.716,submitButton,6.894117647,0.351111111,-0.201111111,0,0,0,1,56,116,17,1,33,67243,blockP,180,2022-02-11_13h20.39.633,orientation adjustment blockP,2021.2.3,MacIntel,50,,,,,,,
,,,,,,,,,,,,,,,,,,,,,,-65,-45,20,75,-213,12,4.8,0.353333333,-0.261111111,1,0,0,1.4,submitButton,6.873786408,0.304444444,-0.328888889,0,0,0,1,57,117,29,1,45,67243,blockP,180,2022-02-11_13h20.39.633,orientation adjustment blockP,2021.2.3,MacIntel,50,,,,,,,
,,,,,,,,,,,,,,,,,,,,,,-38.33333333,-50,20,75,-219.3333333,10.66666667,4.266666667,-0.196666667,-0.388888889,1,0,0,2.415,submitButton,6.848717949,0.521111111,-0.202222222,0,0,0,1,58,118,34,1,50,67243,blockP,180,2022-02-11_13h20.39.633,orientation adjustment blockP,2021.2.3,MacIntel,50,,,,,,,
,,,,,,,,,,,,,,,,,,,,,,-70.55555556,-69,20,75,-238.5555556,10.44444444,4.177777778,-0.272222222,-0.414444444,1,0,0,1.94,submitButton,6.823280423,0.356666667,-0.405555556,1,0,0,1,59,119,53,1,69,67243,blockP,180,2022-02-11_13h20.39.633,orientation adjustment blockP,2021.2.3,MacIntel,50,continueButton,,,,,,
,,,,,,,,,,,,,,,,,,,,,,75,-25,20,75,-31,6,2.4,0.413333333,-0.303333333,1,0,0,4.562,submitButton,6.781551363,0.601111111,-0.304444444,0,0,0,2,0,120,9,1,25,67243,blockP,180,2022-02-11_13h20.39.633,orientation adjustment blockP,2021.2.3,MacIntel,50,,,,,,,
,,,,,,,,,,,,,,,,,,,,,,-56.66666667,-75,20,75,-232.6666667,22.33333333,14.51666667,0.416666667,-0.285555556,1,0,0,0.367,submitButton,6.85384216,0.48,-0.101111111,0,0,0,2,1,121,59,1,75,67243,blockP,180,2022-02-11_13h20.39.633,orientation adjustment blockP,2021.2.3,MacIntel,50,,,,,,,
,,,,,,,,,,,,,,,,,,,,,,-47.22222222,52,20,75,41.77777778,10.22222222,4.088888889,-0.183333333,-0.391111111,1,0,0,0.817,submitButton,6.828240741,0.498888889,-0.234444444,0,0,0,2,2,122,36,1,52,67243,blockP,180,2022-02-11_13h20.39.633,orientation adjustment blockP,2021.2.3,MacIntel,50,,,,,,,
,,,,,,,,,,,,,,,,,,,,,,-45,33,20,75,26,7,2.8,-0.148888889,-0.392222222,1,0,0,1.4,submitButton,6.791284404,0.253333333,-0.266666667,0,0,0,2,3,123,17,1,33,67243,blockP,180,2022-02-11_13h20.39.633,orientation adjustment blockP,2021.2.3,MacIntel,50,,,,,,,
,,,,,,,,,,,,,,,,,,,,,,42.77777778,-24,20,75,-24.22222222,0.222222222,0.088888889,-0.208888889,-0.395555556,1,0,0,1.015,submitButton,6.730353535,0.302222222,-0.203333333,0,0,0,2,4,124,8,1,24,67243,blockP,180,2022-02-11_13h20.39.633,orientation adjustment blockP,2021.2.3,MacIntel,50,,,,,,,
,,,,,,,,,,,,,,,,,,,,,,-65,-36,20,75,-205,11,4.4,-0.158888889,-0.39,1,0,0,2.082,submitButton,6.709359359,0.332222222,-0.257777778,0,0,0,2,5,125,20,1,36,67243,blockP,180,2022-02-11_13h20.39.633,orientation adjustment blockP,2021.2.3,MacIntel,50,,,,,,,
,,,,,,,,,,,,,,,,,,,,,,33.33333333,39,20,75,209.3333333,9.666666667,3.866666667,-0.213333333,-0.397777778,1,0,0,2.832,submitButton,6.683978175,0.213333333,-0.187777778,0,0,0,2,6,126,23,1,39,67243,blockP,180,2022-02-11_13h20.39.633,orientation adjustment blockP,2021.2.3,MacIntel,50,,,,,,,
,,,,,,,,,,,,,,,,,,,,,,48.88888889,-45,20,75,-41.11111111,3.888888889,1.555555556,-0.228888889,-0.411111111,1,0,0,1.079,submitButton,6.638593904,0.452222222,-0.125555556,0,0,0,2,7,127,29,1,45,67243,blockP,180,2022-02-11_13h20.39.633,orientation adjustment blockP,2021.2.3,MacIntel,50,,,,,,,
,,,,,,,,,,,,,,,,,,,,,,53.33333333,-38,20,75,-21.66666667,16.33333333,10.61666667,-0.19,-0.398888889,1,0,0,1.299,submitButton,6.673489279,0.242222222,-0.186666667,0,0,0,2,8,128,22,1,38,67243,blockP,180,2022-02-11_13h20.39.633,orientation adjustment blockP,2021.2.3,MacIntel,50,,,,,,,
,,,,,,,,,,,,,,,,,,,,,,44.44444444,-21,20,75,-25.55555556,4.555555556,1.822222222,-0.233333333,-0.415555556,1,0,0,1.048,submitButton,6.631304348,0.136666667,-0.35,0,0,0,2,9,129,5,1,21,67243,blockP,180,2022-02-11_13h20.39.633,orientation adjustment blockP,2021.2.3,MacIntel,50,,,,,,,
,,,,,,,,,,,,,,,,,,,,,,-50.55555556,-48,20,75,-221.5555556,6.444444444,2.577777778,0.378888889,-0.302222222,1,0,0,1.832,submitButton,6.596360153,0.215555556,-0.207777778,0,0,0,2,10,130,32,1,48,67243,blockP,180,2022-02-11_13h20.39.633,orientation adjustment blockP,2021.2.3,MacIntel,50,,,,,,,
,,,,,,,,,,,,,,,,,,,,,,23.33333333,30,20,75,36.33333333,6.333333333,2.533333333,0.397777778,-0.296666667,1,0,0,0.45,submitButton,6.561633428,0.183333333,-0.295555556,0,0,0,2,11,131,14,1,30,67243,blockP,180,2022-02-11_13h20.39.633,orientation adjustment blockP,2021.2.3,MacIntel,50,,,,,,,
,,,,,,,,,,,,,,,,,,,,,,40.55555556,68,20,75,69.55555556,1.555555556,0.622222222,0.433333333,-0.324444444,1,0,0,0.035,submitButton,6.511299435,0.033333333,-0.351111111,0,0,0,2,12,132,52,1,68,67243,blockP,180,2022-02-11_13h20.39.633,orientation adjustment blockP,2021.2.3,MacIntel,50,,,,,,,
,,,,,,,,,,,,,,,,,,,,,,-57.22222222,-58,20,75,-75.22222222,17.22222222,11.19444444,0.202222222,-0.3,1,0,0,0.433,submitButton,6.550653595,0.187777778,-0.34,0,0,0,2,13,133,42,1,58,67243,blockP,180,2022-02-11_13h20.39.633,orientation adjustment blockP,2021.2.3,MacIntel,50,,,,,,,
,,,,,,,,,,,,,,,,,,,,,,58.33333333,-34,20,75,128.3333333,17.66666667,11.48333333,0.148888889,-0.302222222,1,0,0,0.016,submitButton,6.591759259,0.476666667,-0.398888889,1,0,0,2,14,134,18,1,34,67243,blockP,180,2022-02-11_13h20.39.633,orientation adjustment blockP,2021.2.3,MacIntel,50,continueButton,,,,,,
,,,,,,,,,,,,,,,,,,,,,,-34.44444444,-54,20,75,-55.44444444,1.444444444,0.577777778,0.194444444,-0.28,1,0,0,0.282,submitButton,6.542056933,0.536666667,-0.286666667,0,0,0,2,15,135,38,1,54,67243,blockP,180,2022-02-11_13h20.39.633,orientation adjustment blockP,2021.2.3,MacIntel,50,,,,,,,
,,,,,,,,,,,,,,,,,,,,,,21.66666667,-50,20,75,-44.33333333,5.666666667,2.266666667,0.426666667,-0.308888889,1,0,0,0.114,submitButton,6.50701275,0.411111111,-0.327777778,0,0,0,2,16,136,34,1,50,67243,blockP,180,2022-02-11_13h20.39.633,orientation adjustment blockP,2021.2.3,MacIntel,50,,,,,,,
,,,,,,,,,,,,,,,,,,,,,,-37.22222222,-47,20,75,-62.22222222,15.22222222,9.894444444,0.223333333,-0.302222222,1,0,0,0.151,submitButton,6.534552846,0.367777778,-0.267777778,0,0,0,2,17,137,31,1,47,67243,blockP,180,2022-02-11_13h20.39.633,orientation adjustment blockP,2021.2.3,MacIntel,50,,,,,,,
,,,,,,,,,,,,,,,,,,,,,,28.33333333,-49,20,75,-46.66666667,2.333333333,0.933333333,-0.252222222,-0.43,1,0,0,1.266,submitButton,6.48938172,0.512222222,-0.247777778,0,0,0,2,18,138,33,1,49,67243,blockP,180,2022-02-11_13h20.39.633,orientation adjustment blockP,2021.2.3,MacIntel,50,,,,,,,
,,,,,,,,,,,,,,,,,,,,,,55,-64,20,75,-45,19,12.35,-0.143333333,-0.384444444,1,0,0,0.883,submitButton,6.536266667,0.42,-0.268888889,0,0,0,2,19,139,48,1,64,67243,blockP,180,2022-02-11_13h20.39.633,orientation adjustment blockP,2021.2.3,MacIntel,50,,,,,,,
,,,,,,,,,,,,,,,,,,,,,,72.22222222,23,20,75,201.2222222,1.777777778,0.711111111,-0.224444444,-0.401111111,1,0,0,2.266,submitButton,6.490035273,0.32,-0.352222222,0,0,0,2,20,140,7,1,23,67243,blockP,180,2022-02-11_13h20.39.633,orientation adjustment blockP,2021.2.3,MacIntel,50,,,,,,,
,,,,,,,,,,,,,,,,,,,,,,-56.11111111,-46,20,75,-214.1111111,11.88888889,4.755555556,0.45,-0.307777778,1,0,0,0.028,submitButton,6.476377953,0.414444444,-0.315555556,0,0,0,2,21,141,30,1,46,67243,blockP,180,2022-02-11_13h20.39.633,orientation adjustment blockP,2021.2.3,MacIntel,50,,,,,,,
,,,,,,,,,,,,,,,,,,,,,,-48.33333333,-73,20,75,-241.3333333,11.66666667,4.666666667,0.442222222,-0.302222222,1,0,0,2.115,submitButton,6.462239583,0.322222222,-0.312222222,0,0,0,2,22,142,57,1,73,67243,blockP,180,2022-02-11_13h20.39.633,orientation adjustment blockP,2021.2.3,MacIntel,50,,,,,,,
,,,,,,,,,,,,,,,,,,,,,,-42.77777778,31,20,75,23.22222222,7.777777778,3.111111111,0.183333333,-0.294444444,1,0,0,0.133,submitButton,6.436261843,0.336666667,-0.306666667,0,0,0,2,23,143,15,1,31,67243,blockP,180,2022-02-11_13h20.39.633,orientation adjustment blockP,2021.2.3,MacIntel,50,,,,,,,
,,,,,,,,,,,,,,,,,,,,,,-27.22222222,-22,20,75,-29.22222222,7.222222222,2.888888889,0.188888889,-0.282222222,1,0,0,0.37,submitButton,6.408974359,0.464444444,-0.137777778,0,0,0,2,24,144,6,1,22,67243,blockP,180,2022-02-11_13h20.39.633,orientation adjustment blockP,2021.2.3,MacIntel,50,,,,,,,
,,,,,,,,,,,,,,,,,,,,,,-56.11111111,-42,20,75,-206.1111111,15.88888889,10.32777778,0.426666667,-0.291111111,1,0,0,1.815,submitButton,6.438888889,0.451111111,-0.226666667,0,0,0,2,25,145,26,1,42,67243,blockP,180,2022-02-11_13h20.39.633,orientation adjustment blockP,2021.2.3,MacIntel,50,,,,,,,
,,,,,,,,,,,,,,,,,,,,,,-50.55555556,26,20,75,28.44444444,2.444444444,0.977777778,-0.176666667,-0.41,1,0,0,1.129,submitButton,6.397516835,-0.176666667,-0.41,0,0,0,2,26,146,10,1,26,67243,blockP,180,2022-02-11_13h20.39.633,orientation adjustment blockP,2021.2.3,MacIntel,50,,,,,,,
,,,,,,,,,,,,,,,,,,,,,,-25,-35,20,75,-60,25,16.25,-0.226666667,-0.404444444,1,0,0,2.032,submitButton,6.471595656,-0.227777778,-0.404444444,0,0,0,2,27,147,19,1,35,67243,blockP,180,2022-02-11_13h20.39.633,orientation adjustment blockP,2021.2.3,MacIntel,50,,,,,,,
,,,,,,,,,,,,,,,,,,,,,,-34.44444444,67,20,75,42.55555556,24.44444444,15.88888889,0.217777778,-0.303333333,1,0,0,4.38,submitButton,6.541873964,0.526666667,-0.141111111,0,0,0,2,28,148,51,1,67,67243,blockP,180,2022-02-11_13h20.39.633,orientation adjustment blockP,2021.2.3,MacIntel,50,,,,,,,
,,,,,,,,,,,,,,,,,,,,,,64.44444444,29,20,75,43.44444444,14.44444444,5.777777778,-0.171111111,-0.407777778,1,0,0,1.498,submitButton,6.536213992,0.491111111,-0.413333333,1,0,0,2,29,149,13,1,29,67243,blockP,180,2022-02-11_13h20.39.633,orientation adjustment blockP,2021.2.3,MacIntel,50,continueButton,,,,,,
,,,,,,,,,,,,,,,,,,,,,,-44.44444444,-27,20,75,-58.44444444,31.44444444,25.15555556,0.422222222,-0.294444444,1,0,0,1.251,submitButton,6.673120915,0.662222222,-0.327777778,0,0,0,2,30,150,11,1,27,67243,blockP,180,2022-02-11_13h20.39.633,orientation adjustment blockP,2021.2.3,MacIntel,50,,,,,,,
,,,,,,,,,,,,,,,,,,,,,,33.88888889,65,20,75,59.88888889,5.111111111,2.044444444,-0.158888889,-0.404444444,1,0,0,1.198,submitButton,6.639334955,0.475555556,-0.097777778,0,0,0,2,31,151,49,1,65,67243,blockP,180,2022-02-11_13h20.39.633,orientation adjustment blockP,2021.2.3,MacIntel,50,,,,,,,
,,,,,,,,,,,,,,,,,,,,,,-53.33333333,56,20,75,40.66666667,15.33333333,9.966666667,-0.247777778,-0.398888889,1,0,0,1.133,submitButton,6.663446055,-0.247777778,-0.398888889,0,0,0,2,32,152,40,1,56,67243,blockP,180,2022-02-11_13h20.39.633,orientation adjustment blockP,2021.2.3,MacIntel,50,,,,,,,
,,,,,,,,,,,,,,,,,,,,,,65.55555556,-60,20,75,-31.44444444,28.55555556,18.56111111,-0.227777778,-0.401111111,1,0,0,1.199,submitButton,6.749040767,0.748888889,-0.147777778,0,0,0,2,33,153,44,1,60,67243,blockP,180,2022-02-11_13h20.39.633,orientation adjustment blockP,2021.2.3,MacIntel,50,,,,,,,
,,,,,,,,,,,,,,,,,,,,,,55,16,20,75,36,20,13,-0.146666667,-0.401111111,1,0,0,1.149,submitButton,6.793690476,0.364444444,-0.18,0,0,0,2,34,154,0,1,16,67243,blockP,180,2022-02-11_13h20.39.633,orientation adjustment blockP,2021.2.3,MacIntel,50,,,,,,,
,,,,,,,,,,,,,,,,,,,,,,-31.66666667,-17,20,75,-7.666666667,9.333333333,3.733333333,0.17,-0.306666667,1,0,0,0.45,submitButton,6.771985816,0.455555556,-0.197777778,0,0,0,2,35,155,1,1,17,67243,blockP,180,2022-02-11_13h20.39.633,orientation adjustment blockP,2021.2.3,MacIntel,50,,,,,,,
,,,,,,,,,,,,,,,,,,,,,,46.66666667,53,20,75,224.6666667,8.333333333,3.333333333,-0.218888889,-0.404444444,1,0,0,2.516,submitButton,6.747769953,0.31,-0.213333333,0,0,0,2,36,156,37,1,53,67243,blockP,180,2022-02-11_13h20.39.633,orientation adjustment blockP,2021.2.3,MacIntel,50,,,,,,,
,,,,,,,,,,,,,,,,,,,,,,-50,74,20,75,69,5,2,-0.146666667,-0.424444444,1,0,0,1.049,submitButton,6.714568765,0.26,-0.262222222,0,0,0,2,37,157,58,1,74,67243,blockP,180,2022-02-11_13h20.39.633,orientation adjustment blockP,2021.2.3,MacIntel,50,,,,,,,
,,,,,,,,,,,,,,,,,,,,,,27.77777778,-44,20,75,-43.22222222,0.777777778,0.311111111,-0.2,-0.376666667,1,0,0,0.616,submitButton,6.670100309,0.331111111,-0.243333333,0,0,0,2,38,158,28,1,44,67243,blockP,180,2022-02-11_13h20.39.633,orientation adjustment blockP,2021.2.3,MacIntel,50,,,,,,,
,,,,,,,,,,,,,,,,,,,,,,35.55555556,-37,20,75,-27.44444444,9.555555556,3.822222222,-0.185555556,-0.418888889,1,0,0,0.784,submitButton,6.65045977,0.341111111,-0.273333333,0,0,0,2,39,159,21,1,37,67243,blockP,180,2022-02-11_13h20.39.633,orientation adjustment blockP,2021.2.3,MacIntel,50,,,,,,,
,,,,,,,,,,,,,,,,,,,,,,-23.33333333,-72,20,75,-69.33333333,2.666666667,1.066666667,0.188888889,-0.298888889,1,0,0,0.133,submitButton,6.612214612,0.284444444,-0.341111111,0,0,0,2,40,160,56,1,72,67243,blockP,180,2022-02-11_13h20.39.633,orientation adjustment blockP,2021.2.3,MacIntel,50,,,,,,,
,,,,,,,,,,,,,,,,,,,,,,-39.44444444,66,20,75,56.55555556,9.444444444,3.777777778,-0.21,-0.385555556,1,0,0,0.666,submitButton,6.592932729,0.247777778,-0.316666667,0,0,0,2,41,161,50,1,66,67243,blockP,180,2022-02-11_13h20.39.633,orientation adjustment blockP,2021.2.3,MacIntel,50,,,,,,,
,,,,,,,,,,,,,,,,,,,,,,-71.66666667,-62,20,75,-215.6666667,26.33333333,17.11666667,-0.212222222,-0.425555556,1,0,0,1.481,submitButton,6.664039039,0.251111111,-0.311111111,0,0,0,2,42,162,46,1,62,67243,blockP,180,2022-02-11_13h20.39.633,orientation adjustment blockP,2021.2.3,MacIntel,50,,,,,,,
,,,,,,,,,,,,,,,,,,,,,,68.88888889,-61,20,75,-41.11111111,19.88888889,12.92777778,0.392222222,-0.313333333,1,0,0,0.399,submitButton,6.706077554,0.298888889,-0.23,0,0,0,2,43,163,45,1,61,67243,blockP,180,2022-02-11_13h20.39.633,orientation adjustment blockP,2021.2.3,MacIntel,50,,,,,,,
,,,,,,,,,,,,,,,,,,,,,,-41.66666667,-71,20,75,-220.6666667,30.33333333,24.26666667,0.394444444,-0.286666667,1,0,0,1.549,submitButton,6.823148148,0.337777778,-0.407777778,1,0,0,2,44,164,55,1,71,67243,blockP,180,2022-02-11_13h20.39.633,orientation adjustment blockP,2021.2.3,MacIntel,50,continueButton,,,,,,
,,,,,,,,,,,,,,,,,,,,,,-28.88888889,-20,20,75,-22.88888889,2.888888889,1.155555556,-0.103333333,-0.405555556,1,0,0,0.799,submitButton,6.785614422,0.305555556,-0.383333333,0,0,0,2,45,165,4,1,20,67243,blockP,180,2022-02-11_13h20.39.633,orientation adjustment blockP,2021.2.3,MacIntel,50,,,,,,,
,,,,,,,,,,,,,,,,,,,,,,-44.44444444,69,20,75,53.55555556,15.44444444,10.03888889,-0.266666667,-0.407777778,1,0,0,0.717,submitButton,6.807017544,0.192222222,-0.385555556,0,0,0,2,46,166,53,1,69,67243,blockP,180,2022-02-11_13h20.39.633,orientation adjustment blockP,2021.2.3,MacIntel,50,,,,,,,
,,,,,,,,,,,,,,,,,,,,,,24.44444444,19,20,75,25.44444444,6.444444444,2.577777778,-0.186666667,-0.432222222,1,0,0,0.651,submitButton,6.779375454,0.145555556,-0.33,0,0,0,2,47,167,3,1,19,67243,blockP,180,2022-02-11_13h20.39.633,orientation adjustment blockP,2021.2.3,MacIntel,50,,,,,,,
,,,,,,,,,,,,,,,,,,,,,,35.55555556,32,20,75,44.55555556,12.55555556,5.022222222,-0.215555556,-0.395555556,1,0,0,0.616,submitButton,6.767965368,0.301111111,-0.196666667,0,0,0,2,48,168,16,1,32,67243,blockP,180,2022-02-11_13h20.39.633,orientation adjustment blockP,2021.2.3,MacIntel,50,,,,,,,
,,,,,,,,,,,,,,,,,,,,,,63.88888889,63,20,75,213.8888889,29.11111111,18.92222222,-0.178888889,-0.413333333,1,0,0,1.883,submitButton,6.846379928,0.226666667,-0.214444444,0,0,0,2,49,169,47,1,63,67243,blockP,180,2022-02-11_13h20.39.633,orientation adjustment blockP,2021.2.3,MacIntel,50,,,,,,,
,,,,,,,,,,,,,,,,,,,,,,59.44444444,59,20,75,220.4444444,18.55555556,12.06111111,0.163333333,-0.298888889,1,0,0,2.349,submitButton,6.879807692,0.277777778,-0.272222222,0,0,0,2,50,170,43,1,59,67243,blockP,180,2022-02-11_13h20.39.633,orientation adjustment blockP,2021.2.3,MacIntel,50,,,,,,,
,,,,,,,,,,,,,,,,,,,,,,-60,-55,20,75,-220,15,9.75,0.402222222,-0.297777778,1,0,0,1.401,submitButton,6.898089172,0.285555556,-0.331111111,0,0,0,2,51,171,39,1,55,67243,blockP,180,2022-02-11_13h20.39.633,orientation adjustment blockP,2021.2.3,MacIntel,50,,,,,,,
,,,,,,,,,,,,,,,,,,,,,,36.66666667,70,20,75,239.6666667,10.33333333,4.133333333,0.228888889,-0.293333333,1,0,0,2.216,submitButton,6.880590717,0.113333333,-0.326666667,0,0,0,2,52,172,54,1,70,67243,blockP,180,2022-02-11_13h20.39.633,orientation adjustment blockP,2021.2.3,MacIntel,50,,,,,,,
,,,,,,,,,,,,,,,,,,,,,,-37.22222222,-40,20,75,-57.22222222,17.22222222,11.19444444,0.263333333,-0.278888889,1,0,0,0.183,submitButton,6.907721873,0.114444444,-0.313333333,0,0,0,2,53,173,24,1,40,67243,blockP,180,2022-02-11_13h20.39.633,orientation adjustment blockP,2021.2.3,MacIntel,50,,,,,,,
,,,,,,,,,,,,,,,,,,,,,,-46.66666667,43,20,75,39.33333333,3.666666667,1.466666667,-0.193333333,-0.441111111,1,0,0,0.946,submitButton,6.873715278,0.185555556,-0.248888889,0,0,0,2,54,174,27,1,43,67243,blockP,180,2022-02-11_13h20.39.633,orientation adjustment blockP,2021.2.3,MacIntel,50,,,,,,,
,,,,,,,,,,,,,,,,,,,,,,33.88888889,41,20,75,208.8888889,12.11111111,4.844444444,0.193333333,-0.284444444,1,0,0,2.149,submitButton,6.861111111,0.131111111,-0.275555556,0,0,0,2,55,175,25,1,41,67243,blockP,180,2022-02-11_13h20.39.633,orientation adjustment blockP,2021.2.3,MacIntel,50,,,,,,,
,,,,,,,,,,,,,,,,,,,,,,-58.88888889,-51,20,75,-215.8888889,15.11111111,9.822222222,0.384444444,-0.267777778,1,0,0,1.165,submitButton,6.879389575,0.293333333,-0.293333333,0,0,0,2,56,176,35,1,51,67243,blockP,180,2022-02-11_13h20.39.633,orientation adjustment blockP,2021.2.3,MacIntel,50,,,,,,,
,,,,,,,,,,,,,,,,,,,,,,59.44444444,18,20,75,26.44444444,8.444444444,3.377777778,-0.144444444,-0.388888889,1,0,0,1.332,submitButton,6.857907294,0.327777778,-0.267777778,0,0,0,2,57,177,2,1,18,67243,blockP,180,2022-02-11_13h20.39.633,orientation adjustment blockP,2021.2.3,MacIntel,50,,,,,,,
,,,,,,,,,,,,,,,,,,,,,,-64.44444444,57,20,75,45.55555556,11.44444444,4.577777778,0.383333333,-0.296666667,1,0,0,1.516,submitButton,6.844004065,0.2,-0.281111111,0,0,0,2,58,178,41,1,57,67243,blockP,180,2022-02-11_13h20.39.633,orientation adjustment blockP,2021.2.3,MacIntel,50,,,,,,,
,,,,,,,,,,,,,,,,,,,,,,33.33333333,-28,20,75,-17.66666667,10.33333333,4.133333333,0.358888889,-0.291111111,1,0,0,0.083,submitButton,6.827575758,0.224444444,-0.357777778,0,0,0,2,59,179,12,1,28,67243,blockP,180,2022-02-11_13h20.39.633,orientation adjustment blockP,2021.2.3,MacIntel,50,,,,,,,
,,,,,,,,,,,,,,,,,,,,,,,,,,,,,,,,,,,,,,,,,,,,,,,,67243,blockP,180,2022-02-11_13h20.39.633,orientation adjustment blockP,2021.2.3,MacIntel,50,,0.272222222,-0.406666667,1,0,0,EndButtonTxt
