consentMouse1.x,consentMouse1.y,consentMouse1.leftButton,consentMouse1.midButton,consentMouse1.rightButton,consentMouse1.clicked_name,consent_Mouse.x,consent_Mouse.y,consent_Mouse.leftButton,consent_Mouse.midButton,consent_Mouse.rightButton,consent_Mouse.clicked_name,startMouse.x,startMouse.y,startMouse.leftButton,startMouse.midButton,startMouse.rightButton,startMouse_2.x,startMouse_2.y,startMouse_2.leftButton,startMouse_2.midButton,startMouse_2.rightButton,start_distance,fixedOri,minimalDistance,maxOri,this_ori,accuracy,presented_accuracy,submitMouse.x,submitMouse.y,submitMouse.leftButton,submitMouse.midButton,submitMouse.rightButton,submitMouse.time,submitMouse.clicked_name,block_accuracy,continueMouse.x,continueMouse.y,continueMouse.leftButton,continueMouse.midButton,continueMouse.rightButton,trials.thisRepN,trials.thisTrialN,trials.thisN,trials.thisIndex,trials.ran,startOri,participant,condition,nTrials,date,expName,psychopyVersion,OS,frameRate,continueMouse.clicked_name,EndButtonMouse.x,EndButtonMouse.y,EndButtonMouse.leftButton,EndButtonMouse.midButton,EndButtonMouse.rightButton,EndButtonMouse.clicked_name
0.31851865,-0.39629631,1,0,0,consent_button1,0.358333352,-0.403703717,1,0,0,consent_button,0.296296314,-0.311111123,1,0,0,0.296296314,-0.311111123,1,0,0,-67.77777778,-23,20,75,-90.77777778,67.77777778,57.61111111,-0.19074073,-0.392592606,1,0,0,4.8359,submitButton,57.61111111,-0.19074073,-0.392592606,0,0,0,0,0,0,97,1,23,67321,blockP,180,2022-02-10_12h20.56.786,orientation adjustment blockP,2021.2.3,Win32,59.86231667,,,,,,,
,,,,,,,,,,,,,,,,,,,,,,-53.88888889,-36,20,75,-217.8888889,1.888888889,0.755555556,0.417592612,-0.293518587,1,0,0,0.0836,submitButton,29.18333333,-0.225925916,-0.408333347,0,0,0,0,1,1,110,1,36,67321,blockP,180,2022-02-10_12h20.56.786,orientation adjustment blockP,2021.2.3,Win32,59.86231667,,,,,,,
,,,,,,,,,,,,,,,,,,,,,,-52.77777778,-43,20,75,-57.77777778,14.77777778,5.911111111,0.214814831,-0.283333345,1,0,0,0.583,submitButton,21.42592593,-0.282407398,-0.4046297,0,0,0,0,2,2,117,1,43,67321,blockP,180,2022-02-10_12h20.56.786,orientation adjustment blockP,2021.2.3,Win32,59.86231667,,,,,,,
,,,,,,,,,,,,,,,,,,,,,,-53.33333333,74,20,75,41.66666667,32.33333333,25.86666667,0.367592611,-0.308333345,1,0,0,1.7508,submitButton,25.86666667,-0.272222213,-0.4046297,0,0,0,0,3,3,73,1,74,67321,blockP,180,2022-02-10_12h20.56.786,orientation adjustment blockP,2021.2.3,Win32,59.86231667,,,,,,,
,,,,,,,,,,,,,,,,,,,,,,53.88888889,27,20,75,42.88888889,15.88888889,10.32777778,0.403703723,-0.26851853,1,0,0,0.0113,submitButton,18.09722222,-0.236111101,-0.393518532,0,0,0,0,4,4,26,1,27,67321,blockP,180,2022-02-10_12h20.56.786,orientation adjustment blockP,2021.2.3,Win32,59.86231667,,,,,,,
,,,,,,,,,,,,,,,,,,,,,,26.11111111,15,20,75,16.11111111,1.111111111,0.444444444,0.408333353,-0.291666678,1,0,0,0.0716,submitButton,12.21296296,0.183333349,-0.372222292,0,0,0,0,5,5,14,1,15,67321,blockP,180,2022-02-10_12h20.56.786,orientation adjustment blockP,2021.2.3,Win32,59.86231667,,,,,,,
,,,,,,,,,,,,,,,,,,,,,,-74.44444444,-16,20,75,-194.4444444,1.555555556,0.622222222,0.399074093,-0.300000012,1,0,0,0.5561,submitButton,0.622222222,-0.262036971,-0.39629631,0,0,0,0,6,6,90,1,16,67321,blockP,180,2022-02-10_12h20.56.786,orientation adjustment blockP,2021.2.3,Win32,59.86231667,,,,,,,
,,,,,,,,,,,,,,,,,,,,,,-32.22222222,-40,20,75,-43.22222222,3.222222222,1.288888889,0.220370387,-0.303703716,1,0,0,0.2835,submitButton,0.955555556,-0.224999934,-0.409259329,0,0,0,0,7,7,114,1,40,67321,blockP,180,2022-02-10_12h20.56.786,orientation adjustment blockP,2021.2.3,Win32,59.86231667,,,,,,,
,,,,,,,,,,,,,,,,,,,,,,75,-63,20,75,-75,12,4.8,-0.185185175,-0.40000007,1,0,0,2.085,submitButton,2.237037037,-0.185185175,-0.40000007,0,0,0,0,8,8,137,1,63,67321,blockP,180,2022-02-10_12h20.56.786,orientation adjustment blockP,2021.2.3,Win32,59.86231667,,,,,,,
,,,,,,,,,,,,,,,,,,,,,,-50.55555556,7,20,75,12.44444444,5.444444444,2.177777778,0.257407424,-0.325000012,1,0,0,1.2508,submitButton,2.177777778,-0.189814804,-0.412037051,0,0,0,0,9,9,6,1,7,67321,blockP,180,2022-02-10_12h20.56.786,orientation adjustment blockP,2021.2.3,Win32,59.86231667,,,,,,,
,,,,,,,,,,,,,,,,,,,,,,32.22222222,31,20,75,199.2222222,11.77777778,4.711111111,-0.19999999,-0.388888902,1,0,0,3.2513,submitButton,3.444444444,-0.19999999,-0.388888902,0,0,0,0,10,10,105,1,31,67321,blockP,180,2022-02-10_12h20.56.786,orientation adjustment blockP,2021.2.3,Win32,59.86231667,,,,,,,
,,,,,,,,,,,,,,,,,,,,,,26.11111111,-19,20,75,-20.88888889,1.888888889,0.755555556,-0.169444377,-0.406481495,1,0,0,1.1496,submitButton,2.548148148,0.217592609,-0.405555569,0,0,0,0,11,11,93,1,19,67321,blockP,180,2022-02-10_12h20.56.786,orientation adjustment blockP,2021.2.3,Win32,59.86231667,,,,,,,
,,,,,,,,,,,,,,,,,,,,,,54.44444444,30,20,75,200.4444444,9.555555556,3.822222222,0.201851868,-0.312037106,1,0,0,1.7342,submitButton,3.822222222,-0.220370304,-0.392592606,0,0,0,0,12,12,29,1,30,67321,blockP,180,2022-02-10_12h20.56.786,orientation adjustment blockP,2021.2.3,Win32,59.86231667,,,,,,,
,,,,,,,,,,,,,,,,,,,,,,66.66666667,17,20,75,32.66666667,15.66666667,10.18333333,0.419444464,-0.283333345,1,0,0,1.0171,submitButton,7.002777778,-0.211111044,-0.393518532,0,0,0,0,13,13,16,1,17,67321,blockP,180,2022-02-10_12h20.56.786,orientation adjustment blockP,2021.2.3,Win32,59.86231667,,,,,,,
,,,,,,,,,,,,,,,,,,,,,,-48.88888889,-90,20,75,-84.88888889,5.111111111,2.044444444,0.207407424,-0.32314816,1,0,0,0.8841,submitButton,5.35,0.315740759,-0.39537044,1,0,0,0,14,14,89,1,90,67321,blockP,180,2022-02-10_12h20.56.786,orientation adjustment blockP,2021.2.3,Win32,59.86231667,continueButton,,,,,,
,,,,,,,,,,,,,,,,,,,,,,-42.77777778,-16,20,75,-31.77777778,15.77777778,10.25555556,0.220370387,-0.316666735,1,0,0,0.0496,submitButton,10.25555556,-0.25925925,-0.405555569,0,0,0,0,15,15,15,1,16,67321,blockP,180,2022-02-10_12h20.56.786,orientation adjustment blockP,2021.2.3,Win32,59.86231667,,,,,,,
,,,,,,,,,,,,,,,,,,,,,,-36.11111111,13,20,75,13.88888889,0.888888889,0.355555556,0.221296313,-0.312962975,1,0,0,0.7002,submitButton,5.305555556,-0.255555546,-0.400925939,0,0,0,0,16,16,12,1,13,67321,blockP,180,2022-02-10_12h20.56.786,orientation adjustment blockP,2021.2.3,Win32,59.86231667,,,,,,,
,,,,,,,,,,,,,,,,,,,,,,-27.22222222,75,20,75,21.77777778,53.22222222,45.23888889,0.414814834,-0.322222234,1,0,0,9.003,submitButton,18.61666667,-0.380555548,-0.401851865,0,0,0,0,17,17,149,1,75,67321,blockP,180,2022-02-10_12h20.56.786,orientation adjustment blockP,2021.2.3,Win32,59.86231667,,,,,,,
,,,,,,,,,,,,,,,,,,,,,,-37.22222222,-58,20,75,-70.22222222,12.22222222,4.888888889,0.207407424,-0.302777846,1,0,0,0.4667,submitButton,15.18472222,-0.298148139,-0.392592606,0,0,0,0,18,18,132,1,58,67321,blockP,180,2022-02-10_12h20.56.786,orientation adjustment blockP,2021.2.3,Win32,59.86231667,,,,,,,
,,,,,,,,,,,,,,,,,,,,,,-61.11111111,-29,20,75,-40.11111111,11.11111111,4.444444444,0.186111127,-0.318518531,1,0,0,0.1169,submitButton,13.03666667,-0.141666599,-0.411111125,0,0,0,0,19,19,28,1,29,67321,blockP,180,2022-02-10_12h20.56.786,orientation adjustment blockP,2021.2.3,Win32,59.86231667,,,,,,,
,,,,,,,,,,,,,,,,,,,,,,50,17,20,75,33,16,10.4,0.411111244,-0.295370382,1,0,0,0.1328,submitButton,12.59722222,-0.353703696,-0.387962976,0,0,0,0,20,20,91,1,17,67321,blockP,180,2022-02-10_12h20.56.786,orientation adjustment blockP,2021.2.3,Win32,59.86231667,,,,,,,
,,,,,,,,,,,,,,,,,,,,,,-58.88888889,38,20,75,23.11111111,14.88888889,5.955555556,-0.238888823,-0.399074087,1,0,0,1.2836,submitButton,11.6484127,-0.238888823,-0.399074087,0,0,0,0,21,21,37,1,38,67321,blockP,180,2022-02-10_12h20.56.786,orientation adjustment blockP,2021.2.3,Win32,59.86231667,,,,,,,
,,,,,,,,,,,,,,,,,,,,,,-44.44444444,-56,20,75,-43.44444444,12.55555556,5.022222222,0.213888905,-0.280555567,1,0,0,0.9497,submitButton,10.82013889,0.165740756,-0.386111181,0,0,0,0,22,22,55,1,56,67321,blockP,180,2022-02-10_12h20.56.786,orientation adjustment blockP,2021.2.3,Win32,59.86231667,,,,,,,
,,,,,,,,,,,,,,,,,,,,,,63.88888889,71,20,75,212.8888889,38.11111111,30.48888889,-0.255555546,-0.389814828,1,0,0,2.2135,submitButton,13.00555556,-0.255555546,-0.389814828,0,0,0,0,23,23,145,1,71,67321,blockP,180,2022-02-10_12h20.56.786,orientation adjustment blockP,2021.2.3,Win32,59.86231667,,,,,,,
,,,,,,,,,,,,,,,,,,,,,,20.55555556,-34,20,75,-32.44444444,1.555555556,0.622222222,-0.208333323,-0.400925939,1,0,0,0.6503,submitButton,11.76722222,-0.208333323,-0.400925939,0,0,0,0,24,24,33,1,34,67321,blockP,180,2022-02-10_12h20.56.786,orientation adjustment blockP,2021.2.3,Win32,59.86231667,,,,,,,
,,,,,,,,,,,,,,,,,,,,,,70,60,20,75,220,20,13,0.190740757,-0.287037049,1,0,0,1.2506,submitButton,11.87929293,0.037962977,-0.317592605,0,0,0,0,25,25,59,1,60,67321,blockP,180,2022-02-10_12h20.56.786,orientation adjustment blockP,2021.2.3,Win32,59.86231667,,,,,,,
,,,,,,,,,,,,,,,,,,,,,,46.66666667,-5,20,75,-10.33333333,5.333333333,2.133333333,-0.192592526,-0.375000013,1,0,0,0.9171,submitButton,11.06712963,-0.192592526,-0.375000013,0,0,0,0,26,26,4,1,5,67321,blockP,180,2022-02-10_12h20.56.786,orientation adjustment blockP,2021.2.3,Win32,59.86231667,,,,,,,
,,,,,,,,,,,,,,,,,,,,,,-42.22222222,49,20,75,31.77777778,17.22222222,11.19444444,-0.185185175,-0.419444458,1,0,0,0.9839,submitButton,11.07692308,0.307407425,-0.215740751,0,0,0,0,27,27,123,1,49,67321,blockP,180,2022-02-10_12h20.56.786,orientation adjustment blockP,2021.2.3,Win32,59.86231667,,,,,,,
,,,,,,,,,,,,,,,,,,,,,,-53.33333333,11,20,75,9.666666667,1.333333333,0.533333333,-0.110185174,-0.40000007,1,0,0,1.2841,submitButton,10.32380952,-0.110185174,-0.40000007,0,0,0,0,28,28,10,1,11,67321,blockP,180,2022-02-10_12h20.56.786,orientation adjustment blockP,2021.2.3,Win32,59.86231667,,,,,,,
,,,,,,,,,,,,,,,,,,,,,,40.55555556,22,20,75,20.55555556,1.444444444,0.577777778,0.407407427,-0.300925938,1,0,0,0.1998,submitButton,9.674074074,0.30462976,-0.40000007,1,0,0,0,29,29,21,1,22,67321,blockP,180,2022-02-10_12h20.56.786,orientation adjustment blockP,2021.2.3,Win32,59.86231667,continueButton,,,,,,
,,,,,,,,,,,,,,,,,,,,,,73.88888889,6,20,75,5.888888889,0.111111111,0.044444444,-0.149074063,-0.400925939,1,0,0,1.5008,submitButton,9.072222222,0.323148279,-0.385185198,0,0,0,0,30,30,5,1,6,67321,blockP,180,2022-02-10_12h20.56.786,orientation adjustment blockP,2021.2.3,Win32,59.86231667,,,,,,,
,,,,,,,,,,,,,,,,,,,,,,53.88888889,55,20,75,254.8888889,19.88888889,12.92777778,0.20370372,-0.295370382,1,0,0,2.9528,submitButton,9.299019608,-0.308333325,-0.376851921,0,0,0,0,31,31,129,1,55,67321,blockP,180,2022-02-10_12h20.56.786,orientation adjustment blockP,2021.2.3,Win32,59.86231667,,,,,,,
,,,,,,,,,,,,,,,,,,,,,,-41.66666667,12,20,75,7.333333333,4.666666667,1.866666667,-0.10185184,-0.375925939,1,0,0,0.9341,submitButton,8.886111111,-0.10185184,-0.375925939,0,0,0,0,32,32,11,1,12,67321,blockP,180,2022-02-10_12h20.56.786,orientation adjustment blockP,2021.2.3,Win32,59.86231667,,,,,,,
,,,,,,,,,,,,,,,,,,,,,,-42.22222222,-18,20,75,-23.22222222,5.222222222,2.088888889,0.162037053,-0.297222234,1,0,0,0.5323,submitButton,8.528362573,-0.278703695,-0.39629631,0,0,0,0,33,33,92,1,18,67321,blockP,180,2022-02-10_12h20.56.786,orientation adjustment blockP,2021.2.3,Win32,59.86231667,,,,,,,
,,,,,,,,,,,,,,,,,,,,,,-58.33333333,-25,20,75,-27.33333333,2.333333333,0.933333333,0.215740757,-0.298148217,1,0,0,0.7341,submitButton,8.148611111,-0.212962953,-0.415740754,0,0,0,0,34,34,24,1,25,67321,blockP,180,2022-02-10_12h20.56.786,orientation adjustment blockP,2021.2.3,Win32,59.86231667,,,,,,,
,,,,,,,,,,,,,,,,,,,,,,-68.88888889,-35,20,75,-203.8888889,11.11111111,4.444444444,-0.314814806,-0.364814828,1,0,0,2.4507,submitButton,7.972222222,-0.31388888,-0.402777791,0,0,0,0,35,35,109,1,35,67321,blockP,180,2022-02-10_12h20.56.786,orientation adjustment blockP,2021.2.3,Win32,59.86231667,,,,,,,
,,,,,,,,,,,,,,,,,,,,,,48.33333333,-61,20,75,-77.66666667,16.66666667,10.83333333,0.413888908,-0.331481494,1,0,0,1.9346,submitButton,8.102272727,-0.202777768,-0.412037051,0,0,0,0,36,36,60,1,61,67321,blockP,180,2022-02-10_12h20.56.786,orientation adjustment blockP,2021.2.3,Win32,59.86231667,,,,,,,
,,,,,,,,,,,,,,,,,,,,,,61.66666667,23,20,75,31.66666667,8.666666667,3.466666667,-0.138888878,-0.405555569,1,0,0,1.2176,submitButton,7.900724638,-0.138888878,-0.405555569,0,0,0,0,37,37,22,1,23,67321,blockP,180,2022-02-10_12h20.56.786,orientation adjustment blockP,2021.2.3,Win32,59.86231667,,,,,,,
,,,,,,,,,,,,,,,,,,,,,,57.22222222,-51,20,75,-51.77777778,0.777777778,0.311111111,0.437962983,-0.292592604,1,0,0,1.5508,submitButton,7.584490741,-0.239814805,-0.386111181,0,0,0,0,38,38,50,1,51,67321,blockP,180,2022-02-10_12h20.56.786,orientation adjustment blockP,2021.2.3,Win32,59.86231667,,,,,,,
,,,,,,,,,,,,,,,,,,,,,,61.11111111,62,20,75,225.1111111,16.88888889,10.97777778,-0.115740729,-0.403703717,1,0,0,2.1849,submitButton,7.720222222,0.003703717,-0.399074087,0,0,0,0,39,39,61,1,62,67321,blockP,180,2022-02-10_12h20.56.786,orientation adjustment blockP,2021.2.3,Win32,59.86231667,,,,,,,
,,,,,,,,,,,,,,,,,,,,,,35,-42,20,75,-38,4,1.6,0.254629647,-0.299074086,1,0,0,0.8795,submitButton,7.48482906,-0.237962953,-0.419444458,0,0,0,0,40,40,116,1,42,67321,blockP,180,2022-02-10_12h20.56.786,orientation adjustment blockP,2021.2.3,Win32,59.86231667,,,,,,,
,,,,,,,,,,,,,,,,,,,,,,57.22222222,49,20,75,220.2222222,8.777777778,3.511111111,0.212962979,-0.306481493,1,0,0,1.7627,submitButton,7.337654321,-0.205555545,-0.401851865,0,0,0,0,41,41,48,1,49,67321,blockP,180,2022-02-10_12h20.56.786,orientation adjustment blockP,2021.2.3,Win32,59.86231667,,,,,,,
,,,,,,,,,,,,,,,,,,,,,,-23.33333333,58,20,75,-36.33333333,85.66666667,77.1,0.407407427,-0.281481493,1,0,0,0.6833,submitButton,9.829166667,-0.214814805,-0.387962976,0,0,0,0,42,42,57,1,58,67321,blockP,180,2022-02-10_12h20.56.786,orientation adjustment blockP,2021.2.3,Win32,59.86231667,,,,,,,
,,,,,,,,,,,,,,,,,,,,,,28.88888889,4,20,75,14.88888889,10.88888889,4.355555556,0.369444576,-0.312962975,1,0,0,0.3624,submitButton,9.640421456,-0.326851843,-0.41666668,0,0,0,0,43,43,3,1,4,67321,blockP,180,2022-02-10_12h20.56.786,orientation adjustment blockP,2021.2.3,Win32,59.86231667,,,,,,,
,,,,,,,,,,,,,,,,,,,,,,71.66666667,24,20,75,111.6666667,87.66666667,78.9,0.204629646,-0.272222234,1,0,0,0.6501,submitButton,11.94907407,0.32685187,-0.405555569,1,0,0,0,44,44,23,1,24,67321,blockP,180,2022-02-10_12h20.56.786,orientation adjustment blockP,2021.2.3,Win32,59.86231667,continueButton,,,,,,
,,,,,,,,,,,,,,,,,,,,,,37.22222222,-59,20,75,-45.77777778,13.22222222,5.288888889,0.372222241,-0.291666678,1,0,0,0.3337,submitButton,11.73422939,-0.147222211,-0.39629631,0,0,0,0,45,45,58,1,59,67321,blockP,180,2022-02-10_12h20.56.786,orientation adjustment blockP,2021.2.3,Win32,59.86231667,,,,,,,
,,,,,,,,,,,,,,,,,,,,,,-39.44444444,-18,20,75,-26.44444444,8.444444444,3.377777778,-0.1611111,-0.425000014,1,0,0,0.9676,submitButton,11.47309028,-0.1611111,-0.425000014,0,0,0,0,46,46,17,1,18,67321,blockP,180,2022-02-10_12h20.56.786,orientation adjustment blockP,2021.2.3,Win32,59.86231667,,,,,,,
,,,,,,,,,,,,,,,,,,,,,,37.22222222,66,20,75,248.2222222,2.222222222,0.888888889,0.186111127,-0.299074086,1,0,0,2.2345,submitButton,11.1523569,-0.150925858,-0.385185198,0,0,0,0,47,47,140,1,66,67321,blockP,180,2022-02-10_12h20.56.786,orientation adjustment blockP,2021.2.3,Win32,59.86231667,,,,,,,
,,,,,,,,,,,,,,,,,,,,,,-48.33333333,-35,20,75,-57.33333333,22.33333333,14.51666667,0.189814831,-0.317592605,1,0,0,0.4337,submitButton,11.25130719,-0.209259249,-0.398148162,0,0,0,0,48,48,34,1,35,67321,blockP,180,2022-02-10_12h20.56.786,orientation adjustment blockP,2021.2.3,Win32,59.86231667,,,,,,,
,,,,,,,,,,,,,,,,,,,,,,34.44444444,-38,20,75,49.44444444,87.44444444,78.7,0.194444461,-0.302777846,1,0,0,0.3163,submitButton,13.1784127,0.209259276,-0.23425927,0,0,0,0,49,49,112,1,38,67321,blockP,180,2022-02-10_12h20.56.786,orientation adjustment blockP,2021.2.3,Win32,59.86231667,,,,,,,
,,,,,,,,,,,,,,,,,,,,,,-65,-65,20,75,-236,9,3.6,0.416666686,-0.283333345,1,0,0,0.183,submitButton,12.91234568,-0.1361111,-0.393518532,0,0,0,0,50,50,64,1,65,67321,blockP,180,2022-02-10_12h20.56.786,orientation adjustment blockP,2021.2.3,Win32,59.86231667,,,,,,,
,,,,,,,,,,,,,,,,,,,,,,20.55555556,-82,20,75,-80.44444444,1.555555556,0.622222222,0.162037053,-0.300925938,1,0,0,0.7171,submitButton,12.58018018,-0.224999934,-0.406481495,0,0,0,0,51,51,81,1,82,67321,blockP,180,2022-02-10_12h20.56.786,orientation adjustment blockP,2021.2.3,Win32,59.86231667,,,,,,,
,,,,,,,,,,,,,,,,,,,,,,-60.55555556,-81,20,75,-82.55555556,1.555555556,0.622222222,0.183333349,-0.305555568,1,0,0,0.0165,submitButton,12.26549708,-0.227777768,-0.407407421,0,0,0,0,52,52,80,1,81,67321,blockP,180,2022-02-10_12h20.56.786,orientation adjustment blockP,2021.2.3,Win32,59.86231667,,,,,,,
,,,,,,,,,,,,,,,,,,,,,,48.88888889,21,20,75,30.88888889,9.888888889,3.955555556,0.421296316,-0.297222234,1,0,0,0.0994,submitButton,12.05242165,-0.325925918,-0.39537044,0,0,0,0,53,53,95,1,21,67321,blockP,180,2022-02-10_12h20.56.786,orientation adjustment blockP,2021.2.3,Win32,59.86231667,,,,,,,
,,,,,,,,,,,,,,,,,,,,,,-65.55555556,19,20,75,14.44444444,4.555555556,1.822222222,-0.189814804,-0.401851865,1,0,0,2.0337,submitButton,11.79666667,-0.191666656,-0.401851865,0,0,0,0,54,54,18,1,19,67321,blockP,180,2022-02-10_12h20.56.786,orientation adjustment blockP,2021.2.3,Win32,59.86231667,,,,,,,
,,,,,,,,,,,,,,,,,,,,,,-47.77777778,-36,20,75,-43.77777778,7.777777778,3.111111111,-0.237037027,-0.4046297,1,0,0,1.2504,submitButton,11.58482385,-0.237037027,-0.4046297,0,0,0,0,55,55,35,1,36,67321,blockP,180,2022-02-10_12h20.56.786,orientation adjustment blockP,2021.2.3,Win32,59.86231667,,,,,,,
,,,,,,,,,,,,,,,,,,,,,,39.44444444,50,20,75,212.4444444,17.55555556,11.41111111,-0.129629618,-0.376851921,1,0,0,2.8347,submitButton,11.58068783,-0.129629618,-0.376851921,0,0,0,0,56,56,124,1,50,67321,blockP,180,2022-02-10_12h20.56.786,orientation adjustment blockP,2021.2.3,Win32,59.86231667,,,,,,,
,,,,,,,,,,,,,,,,,,,,,,68.88888889,-10,20,75,151.8888889,18.11111111,11.77222222,0.229629646,-0.294444456,1,0,0,1.4172,submitButton,11.58514212,-0.191666656,-0.394444458,0,0,0,0,57,57,9,1,10,67321,blockP,180,2022-02-10_12h20.56.786,orientation adjustment blockP,2021.2.3,Win32,59.86231667,,,,,,,
,,,,,,,,,,,,,,,,,,,,,,-33.88888889,71,20,75,66.11111111,4.888888889,1.955555556,-0.166666656,-0.40000007,1,0,0,0.8795,submitButton,11.36628788,-0.166666656,-0.40000007,0,0,0,0,58,58,70,1,71,67321,blockP,180,2022-02-10_12h20.56.786,orientation adjustment blockP,2021.2.3,Win32,59.86231667,,,,,,,
,,,,,,,,,,,,,,,,,,,,,,-53.33333333,63,20,75,61.66666667,1.333333333,0.533333333,-0.175925915,-0.459259274,1,0,0,0.8283,submitButton,11.12555556,0.277777795,-0.410185199,1,0,0,0,59,59,62,1,63,67321,blockP,180,2022-02-10_12h20.56.786,orientation adjustment blockP,2021.2.3,Win32,59.86231667,continueButton,,,,,,
,,,,,,,,,,,,,,,,,,,,,,23.33333333,-3,20,75,-19.66666667,16.66666667,10.83333333,-0.310185177,-0.409259329,1,0,0,1.1461,submitButton,11.1192029,-0.043518506,-0.38703705,0,0,0,0,60,60,2,1,3,67321,blockP,180,2022-02-10_12h20.56.786,orientation adjustment blockP,2021.2.3,Win32,59.86231667,,,,,,,
,,,,,,,,,,,,,,,,,,,,,,33.33333333,-69,20,75,-77.66666667,8.666666667,3.466666667,-0.315740732,-0.414814828,1,0,0,1.2347,submitButton,10.95638298,-0.315740732,-0.414814828,0,0,0,0,61,61,143,1,69,67321,blockP,180,2022-02-10_12h20.56.786,orientation adjustment blockP,2021.2.3,Win32,59.86231667,,,,,,,
,,,,,,,,,,,,,,,,,,,,,,-69.44444444,75,20,75,61.55555556,13.44444444,5.377777778,0.201851868,-0.300000012,1,0,0,1.4837,submitButton,10.84016204,-0.147222211,-0.398148162,0,0,0,0,62,62,74,1,75,67321,blockP,180,2022-02-10_12h20.56.786,orientation adjustment blockP,2021.2.3,Win32,59.86231667,,,,,,,
,,,,,,,,,,,,,,,,,,,,,,61.11111111,61,20,75,240.1111111,0.888888889,0.355555556,-0.216666657,-0.403703717,1,0,0,2.1837,submitButton,10.62619048,-0.216666657,-0.403703717,0,0,0,0,63,63,135,1,61,67321,blockP,180,2022-02-10_12h20.56.786,orientation adjustment blockP,2021.2.3,Win32,59.86231667,,,,,,,
,,,,,,,,,,,,,,,,,,,,,,71.11111111,-46,20,75,-25.88888889,20.11111111,13.07222222,-0.152777767,-0.381481551,1,0,0,1.0846,submitButton,10.67511111,0.450925946,-0.259259271,0,0,0,0,64,64,45,1,46,67321,blockP,180,2022-02-10_12h20.56.786,orientation adjustment blockP,2021.2.3,Win32,59.86231667,,,,,,,
,,,,,,,,,,,,,,,,,,,,,,29.44444444,28,20,75,234.4444444,26.44444444,17.18888889,0.247222239,-0.325925995,1,0,0,0.0497,submitButton,10.80283224,0.259259276,-0.370370383,0,0,0,0,65,65,27,1,28,67321,blockP,180,2022-02-10_12h20.56.786,orientation adjustment blockP,2021.2.3,Win32,59.86231667,,,,,,,
,,,,,,,,,,,,,,,,,,,,,,47.22222222,43,20,75,66.22222222,23.22222222,15.09444444,0.432407427,-0.321296365,1,0,0,0.5342,submitButton,10.88536325,-0.19999999,-0.39629631,0,0,0,0,66,66,42,1,43,67321,blockP,180,2022-02-10_12h20.56.786,orientation adjustment blockP,2021.2.3,Win32,59.86231667,,,,,,,
,,,,,,,,,,,,,,,,,,,,,,52.77777778,-9,20,75,-20.22222222,11.22222222,4.488888889,0.437037057,-0.276851863,1,0,0,0.0998,submitButton,10.76467505,-0.253703694,-0.40000007,0,0,0,0,67,67,8,1,9,67321,blockP,180,2022-02-10_12h20.56.786,orientation adjustment blockP,2021.2.3,Win32,59.86231667,,,,,,,
,,,,,,,,,,,,,,,,,,,,,,-68.33333333,-33,20,75,-33.33333333,0.333333333,0.133333333,0.176851868,-0.297222234,1,0,0,0.116,submitButton,10.56779835,-0.224999934,-0.381481551,0,0,0,0,68,68,107,1,33,67321,blockP,180,2022-02-10_12h20.56.786,orientation adjustment blockP,2021.2.3,Win32,59.86231667,,,,,,,
,,,,,,,,,,,,,,,,,,,,,,26.11111111,29,20,75,29.11111111,0.111111111,0.044444444,0.387963095,-0.276851863,1,0,0,1.2564,submitButton,10.37646465,-0.315740732,-0.394444458,0,0,0,0,69,69,103,1,29,67321,blockP,180,2022-02-10_12h20.56.786,orientation adjustment blockP,2021.2.3,Win32,59.86231667,,,,,,,
,,,,,,,,,,,,,,,,,,,,,,60.55555556,-40,20,75,-26.44444444,13.55555556,5.422222222,0.423148168,-0.293518587,1,0,0,0.367,submitButton,10.28799603,-0.252777712,-0.402777791,0,0,0,0,70,70,39,1,40,67321,blockP,180,2022-02-10_12h20.56.786,orientation adjustment blockP,2021.2.3,Win32,59.86231667,,,,,,,
,,,,,,,,,,,,,,,,,,,,,,21.66666667,-64,20,75,16.66666667,80.66666667,72.6,0.239814832,-0.289814827,1,0,0,0.263,submitButton,11.38118908,-0.178703637,-0.389814828,0,0,0,0,71,71,138,1,64,67321,blockP,180,2022-02-10_12h20.56.786,orientation adjustment blockP,2021.2.3,Win32,59.86231667,,,,,,,
,,,,,,,,,,,,,,,,,,,,,,72.77777778,62,20,75,274.7777778,32.77777778,26.22222222,0.176851868,-0.283333345,1,0,0,0.1499,submitButton,11.63706897,-0.241666657,-0.399074087,0,0,0,0,72,72,136,1,62,67321,blockP,180,2022-02-10_12h20.56.786,orientation adjustment blockP,2021.2.3,Win32,59.86231667,,,,,,,
,,,,,,,,,,,,,,,,,,,,,,-57.77777778,-8,20,75,-18.77777778,10.77777778,4.311111111,0.195370387,-0.301851864,1,0,0,0.8672,submitButton,11.51290019,-0.225925916,-0.410185199,0,0,0,0,73,73,7,1,8,67321,blockP,180,2022-02-10_12h20.56.786,orientation adjustment blockP,2021.2.3,Win32,59.86231667,,,,,,,
,,,,,,,,,,,,,,,,,,,,,,-33.33333333,-83,20,75,-72.33333333,10.66666667,4.266666667,0.204629646,-0.294444456,1,0,0,0.383,submitButton,11.39212963,0.264814832,-0.412037051,1,0,0,0,74,74,82,1,83,67321,blockP,180,2022-02-10_12h20.56.786,orientation adjustment blockP,2021.2.3,Win32,59.86231667,continueButton,,,,,,
,,,,,,,,,,,,,,,,,,,,,,33.33333333,-53,20,75,-104.6666667,51.66666667,43.91666667,0.413888908,-0.300925938,1,0,0,0.5667,submitButton,11.92531876,0.286111129,-0.296296308,0,0,0,0,75,75,52,1,53,67321,blockP,180,2022-02-10_12h20.56.786,orientation adjustment blockP,2021.2.3,Win32,59.86231667,,,,,,,
,,,,,,,,,,,,,,,,,,,,,,61.11111111,-41,20,75,-30.88888889,10.11111111,4.044444444,-0.260185176,-0.401851865,1,0,0,1.5005,submitButton,11.79820789,0.306481499,-0.150925936,0,0,0,0,76,76,40,1,41,67321,blockP,180,2022-02-10_12h20.56.786,orientation adjustment blockP,2021.2.3,Win32,59.86231667,,,,,,,
,,,,,,,,,,,,,,,,,,,,,,-28.33333333,55,20,75,43.66666667,11.33333333,4.533333333,-0.202777768,-0.401851865,1,0,0,0.95,submitButton,11.68289242,-0.202777768,-0.401851865,0,0,0,0,77,77,54,1,55,67321,blockP,180,2022-02-10_12h20.56.786,orientation adjustment blockP,2021.2.3,Win32,59.86231667,,,,,,,
,,,,,,,,,,,,,,,,,,,,,,27.77777778,-34,20,75,-47.22222222,13.22222222,5.288888889,-0.179629619,-0.423148218,1,0,0,1.3171,submitButton,11.58298611,-0.179629619,-0.423148218,0,0,0,0,78,78,108,1,34,67321,blockP,180,2022-02-10_12h20.56.786,orientation adjustment blockP,2021.2.3,Win32,59.86231667,,,,,,,
,,,,,,,,,,,,,,,,,,,,,,-63.33333333,-74,20,75,-72.33333333,1.666666667,0.666666667,0.214814831,-0.318518531,1,0,0,0.2838,submitButton,11.41504274,0.311111129,-0.192592603,0,0,0,0,79,79,148,1,74,67321,blockP,180,2022-02-10_12h20.56.786,orientation adjustment blockP,2021.2.3,Win32,59.86231667,,,,,,,
,,,,,,,,,,,,,,,,,,,,,,-36.11111111,51,20,75,47.88888889,3.111111111,1.244444444,0.400000019,-0.253703715,1,0,0,0.0161,submitButton,11.26094276,-0.251851842,-0.425000014,0,0,0,0,80,80,125,1,51,67321,blockP,180,2022-02-10_12h20.56.786,orientation adjustment blockP,2021.2.3,Win32,59.86231667,,,,,,,
,,,,,,,,,,,,,,,,,,,,,,-53.88888889,-65,20,75,-74.88888889,9.888888889,3.955555556,-0.129629618,-0.412962977,1,0,0,0.9837,submitButton,11.15190713,-0.129629618,-0.412962977,0,0,0,0,81,81,139,1,65,67321,blockP,180,2022-02-10_12h20.56.786,orientation adjustment blockP,2021.2.3,Win32,59.86231667,,,,,,,
,,,,,,,,,,,,,,,,,,,,,,26.66666667,-25,20,75,-19.33333333,5.666666667,2.266666667,0.165740756,-0.318518531,1,0,0,1.0668,submitButton,11.02124183,-0.193518508,-0.397222236,0,0,0,0,82,82,99,1,25,67321,blockP,180,2022-02-10_12h20.56.786,orientation adjustment blockP,2021.2.3,Win32,59.86231667,,,,,,,
,,,,,,,,,,,,,,,,,,,,,,-21.66666667,57,20,75,64.33333333,7.333333333,2.933333333,-0.107407396,-0.393518532,1,0,0,1.0335,submitButton,10.90402576,-0.107407396,-0.393518532,0,0,0,0,83,83,56,1,57,67321,blockP,180,2022-02-10_12h20.56.786,orientation adjustment blockP,2021.2.3,Win32,59.86231667,,,,,,,
,,,,,,,,,,,,,,,,,,,,,,22.77777778,85,20,75,252.7777778,12.22222222,4.888888889,-0.236111101,-0.394444458,1,0,0,2.8013,submitButton,10.81809524,-0.231481472,-0.38703705,0,0,0,0,84,84,84,1,85,67321,blockP,180,2022-02-10_12h20.56.786,orientation adjustment blockP,2021.2.3,Win32,59.86231667,,,,,,,
,,,,,,,,,,,,,,,,,,,,,,-20.55555556,-20,20,75,-33.55555556,13.55555556,5.422222222,0.185185201,-0.312962975,1,0,0,0.1833,submitButton,10.74209703,0.012962976,-0.349074143,0,0,0,0,85,85,19,1,20,67321,blockP,180,2022-02-10_12h20.56.786,orientation adjustment blockP,2021.2.3,Win32,59.86231667,,,,,,,
,,,,,,,,,,,,,,,,,,,,,,51.11111111,-54,20,75,-34.88888889,19.11111111,12.42222222,0.441666686,-0.305555568,1,0,0,0.4839,submitButton,10.7654321,-0.180555545,-0.385185198,0,0,0,0,86,86,53,1,54,67321,blockP,180,2022-02-10_12h20.56.786,orientation adjustment blockP,2021.2.3,Win32,59.86231667,,,,,,,
,,,,,,,,,,,,,,,,,,,,,,-72.77777778,42,20,75,38.22222222,3.777777778,1.511111111,-0.247222213,-0.381481551,1,0,0,1.3165,submitButton,10.63866058,-0.207407397,-0.372222292,0,0,0,0,87,87,41,1,42,67321,blockP,180,2022-02-10_12h20.56.786,orientation adjustment blockP,2021.2.3,Win32,59.86231667,,,,,,,
,,,,,,,,,,,,,,,,,,,,,,70,-88,20,75,-82,6,2.4,0.411111244,-0.290740753,1,0,0,1.6124,submitButton,10.52732733,-0.108333322,-0.392592606,0,0,0,0,88,88,87,1,88,67321,blockP,180,2022-02-10_12h20.56.786,orientation adjustment blockP,2021.2.3,Win32,59.86231667,,,,,,,
,,,,,,,,,,,,,,,,,,,,,,43.88888889,-37,20,75,-26.11111111,10.88888889,4.355555556,-0.292592584,-0.397222236,1,0,0,1.0004,submitButton,10.44503704,0.391666686,-0.407407421,1,0,0,0,89,89,111,1,37,67321,blockP,180,2022-02-10_12h20.56.786,orientation adjustment blockP,2021.2.3,Win32,59.86231667,continueButton,,,,,,
,,,,,,,,,,,,,,,,,,,,,,-65,1,20,75,3,2,0.8,0.204629646,-0.306481493,1,0,0,0.7511,submitButton,10.31812865,0.212037053,-0.368518531,0,0,0,0,90,90,0,1,1,67321,blockP,180,2022-02-10_12h20.56.786,orientation adjustment blockP,2021.2.3,Win32,59.86231667,,,,,,,
,,,,,,,,,,,,,,,,,,,,,,-53.33333333,57,20,75,43.66666667,13.33333333,5.333333333,0.35185187,-0.301851864,1,0,0,1.5343,submitButton,10.25339105,-0.011111098,-0.375000013,0,0,0,0,91,91,131,1,57,67321,blockP,180,2022-02-10_12h20.56.786,orientation adjustment blockP,2021.2.3,Win32,59.86231667,,,,,,,
,,,,,,,,,,,,,,,,,,,,,,22.22222222,52,20,75,53.22222222,1.222222222,0.488888889,-0.188888878,-0.379629643,1,0,0,0.9507,submitButton,10.12820513,0.503703837,-0.262962974,0,0,0,0,92,92,126,1,52,67321,blockP,180,2022-02-10_12h20.56.786,orientation adjustment blockP,2021.2.3,Win32,59.86231667,,,,,,,
,,,,,,,,,,,,,,,,,,,,,,32.77777778,70,20,75,76.77777778,6.777777778,2.711111111,0.38611113,-0.296296308,1,0,0,0.0661,submitButton,10.03431786,-0.104629561,-0.390740811,0,0,0,0,93,93,144,1,70,67321,blockP,180,2022-02-10_12h20.56.786,orientation adjustment blockP,2021.2.3,Win32,59.86231667,,,,,,,
,,,,,,,,,,,,,,,,,,,,,,-52.22222222,-44,20,75,-55.22222222,11.22222222,4.488888889,0.209259276,-0.312962975,1,0,0,0.539,submitButton,9.965,-0.148148137,-0.385185198,0,0,0,0,94,94,118,1,44,67321,blockP,180,2022-02-10_12h20.56.786,orientation adjustment blockP,2021.2.3,Win32,59.86231667,,,,,,,
,,,,,,,,,,,,,,,,,,,,,,41.66666667,-31,20,75,-22.33333333,8.666666667,3.466666667,0.231481498,-0.297222234,1,0,0,1.317,submitButton,9.884773663,-0.186111101,-0.389814828,0,0,0,0,95,95,30,1,31,67321,blockP,180,2022-02-10_12h20.56.786,orientation adjustment blockP,2021.2.3,Win32,59.86231667,,,,,,,
,,,,,,,,,,,,,,,,,,,,,,48.88888889,32,20,75,46.88888889,14.88888889,5.955555556,0.425925946,-0.304629642,1,0,0,0.4661,submitButton,9.836856369,-0.202777768,-0.39166668,0,0,0,0,96,96,106,1,32,67321,blockP,180,2022-02-10_12h20.56.786,orientation adjustment blockP,2021.2.3,Win32,59.86231667,,,,,,,
,,,,,,,,,,,,,,,,,,,,,,-25.55555556,-73,20,75,-67.55555556,5.444444444,2.177777778,0.206481498,-0.279629698,1,0,0,0.2657,submitButton,9.744578313,-0.146296229,-0.406481495,0,0,0,0,97,97,72,1,73,67321,blockP,180,2022-02-10_12h20.56.786,orientation adjustment blockP,2021.2.3,Win32,59.86231667,,,,,,,
,,,,,,,,,,,,,,,,,,,,,,-28.88888889,80,20,75,74.11111111,5.888888889,2.355555556,0.237037054,-0.320370383,1,0,0,0.3335,submitButton,9.656613757,-0.180555545,-0.401851865,0,0,0,0,98,98,79,1,80,67321,blockP,180,2022-02-10_12h20.56.786,orientation adjustment blockP,2021.2.3,Win32,59.86231667,,,,,,,
,,,,,,,,,,,,,,,,,,,,,,-70,-56,20,75,-66,10,4,0.175925942,-0.304629642,1,0,0,0.0167,submitButton,9.590065359,-0.212037027,-0.393518532,0,0,0,0,99,99,130,1,56,67321,blockP,180,2022-02-10_12h20.56.786,orientation adjustment blockP,2021.2.3,Win32,59.86231667,,,,,,,
,,,,,,,,,,,,,,,,,,,,,,44.44444444,-69,20,75,-53.55555556,15.44444444,10.03888889,-0.142592581,-0.36666668,1,0,0,0.9174,submitButton,9.595284238,0.036111125,-0.260185197,0,0,0,0,100,100,68,1,69,67321,blockP,180,2022-02-10_12h20.56.786,orientation adjustment blockP,2021.2.3,Win32,59.86231667,,,,,,,
,,,,,,,,,,,,,,,,,,,,,,-50,-41,20,75,-65,24,15.6,-0.199074064,-0.429629643,1,0,0,0.8505,submitButton,9.664303959,0.307407425,-0.171296306,0,0,0,0,101,101,115,1,41,67321,blockP,180,2022-02-10_12h20.56.786,orientation adjustment blockP,2021.2.3,Win32,59.86231667,,,,,,,
,,,,,,,,,,,,,,,,,,,,,,67.77777778,66,20,75,234.7777778,11.22222222,4.488888889,-0.162962952,-0.39629631,1,0,0,1.8844,submitButton,9.605492424,-0.162962952,-0.39629631,0,0,0,0,102,102,65,1,66,67321,blockP,180,2022-02-10_12h20.56.786,orientation adjustment blockP,2021.2.3,Win32,59.86231667,,,,,,,
,,,,,,,,,,,,,,,,,,,,,,-45,86,20,75,78,8,3.2,-0.174074007,-0.378703717,1,0,0,0.8331,submitButton,9.533520599,0.120370385,-0.280555567,0,0,0,0,103,103,85,1,86,67321,blockP,180,2022-02-10_12h20.56.786,orientation adjustment blockP,2021.2.3,Win32,59.86231667,,,,,,,
,,,,,,,,,,,,,,,,,,,,,,47.77777778,-27,20,75,-29.22222222,2.222222222,0.888888889,-0.177777767,-0.408333347,1,0,0,1.1505,submitButton,9.437469136,0.275000017,-0.386111181,1,0,0,0,104,104,101,1,27,67321,blockP,180,2022-02-10_12h20.56.786,orientation adjustment blockP,2021.2.3,Win32,59.86231667,continueButton,,,,,,
,,,,,,,,,,,,,,,,,,,,,,27.22222222,20,20,75,27.22222222,7.222222222,2.888888889,0.396296315,-0.300925938,1,0,0,0.2838,submitButton,9.365506716,0.179629646,-0.312037106,0,0,0,0,105,105,94,1,20,67321,blockP,180,2022-02-10_12h20.56.786,orientation adjustment blockP,2021.2.3,Win32,59.86231667,,,,,,,
,,,,,,,,,,,,,,,,,,,,,,-27.77777778,-89,20,75,-90.77777778,1.777777778,0.711111111,0.170370386,-0.299074086,1,0,0,0.5671,submitButton,9.271437198,-0.181481471,-0.39629631,0,0,0,0,106,106,88,1,89,67321,blockP,180,2022-02-10_12h20.56.786,orientation adjustment blockP,2021.2.3,Win32,59.86231667,,,,,,,
,,,,,,,,,,,,,,,,,,,,,,62.22222222,-46,20,75,-27.77777778,18.22222222,11.84444444,-0.12314808,-0.390740811,1,0,0,1.2847,submitButton,9.299103943,-0.12314808,-0.390740811,0,0,0,0,107,107,120,1,46,67321,blockP,180,2022-02-10_12h20.56.786,orientation adjustment blockP,2021.2.3,Win32,59.86231667,,,,,,,
,,,,,,,,,,,,,,,,,,,,,,-47.77777778,-60,20,75,-70.77777778,10.77777778,4.311111111,-0.12314808,-0.436111125,1,0,0,0.8838,submitButton,9.246040189,-0.13240734,-0.400925939,0,0,0,0,108,108,134,1,60,67321,blockP,180,2022-02-10_12h20.56.786,orientation adjustment blockP,2021.2.3,Win32,59.86231667,,,,,,,
,,,,,,,,,,,,,,,,,,,,,,32.22222222,68,20,75,69.22222222,1.222222222,0.488888889,-0.188888878,-0.398148162,1,0,0,1.0838,submitButton,9.153859649,-0.188888878,-0.398148162,0,0,0,0,109,109,142,1,68,67321,blockP,180,2022-02-10_12h20.56.786,orientation adjustment blockP,2021.2.3,Win32,59.86231667,,,,,,,
,,,,,,,,,,,,,,,,,,,,,,-39.44444444,47,20,75,32.55555556,14.44444444,5.777777778,0.241666684,-0.293518587,1,0,0,0.0331,submitButton,9.11869213,-0.143518507,-0.405555569,0,0,0,0,110,110,121,1,47,67321,blockP,180,2022-02-10_12h20.56.786,orientation adjustment blockP,2021.2.3,Win32,59.86231667,,,,,,,
,,,,,,,,,,,,,,,,,,,,,,36.66666667,30,20,75,42.66666667,12.66666667,5.066666667,-0.180555545,-0.393518532,1,0,0,0.5666,submitButton,9.076918671,-0.180555545,-0.393518532,0,0,0,0,111,111,104,1,30,67321,blockP,180,2022-02-10_12h20.56.786,orientation adjustment blockP,2021.2.3,Win32,59.86231667,,,,,,,
,,,,,,,,,,,,,,,,,,,,,,-28.88888889,67,20,75,48.11111111,18.88888889,12.27777778,0.162037053,-0.297222234,1,0,0,0.4166,submitButton,9.109580499,-0.200925916,-0.430555569,0,0,0,0,112,112,66,1,67,67321,blockP,180,2022-02-10_12h20.56.786,orientation adjustment blockP,2021.2.3,Win32,59.86231667,,,,,,,
,,,,,,,,,,,,,,,,,,,,,,-43.33333333,-67,20,75,-82.33333333,15.33333333,9.966666667,0.20833335,-0.302777846,1,0,0,0.3006,submitButton,9.118237935,-0.194444434,-0.386111181,0,0,0,0,113,113,141,1,67,67321,blockP,180,2022-02-10_12h20.56.786,orientation adjustment blockP,2021.2.3,Win32,59.86231667,,,,,,,
,,,,,,,,,,,,,,,,,,,,,,45.55555556,45,20,75,51.55555556,6.555555556,2.622222222,-0.119444433,-0.385185198,1,0,0,1.3507,submitButton,9.053277778,0.023148162,-0.341666679,0,0,0,0,114,114,44,1,45,67321,blockP,180,2022-02-10_12h20.56.786,orientation adjustment blockP,2021.2.3,Win32,59.86231667,,,,,,,
,,,,,,,,,,,,,,,,,,,,,,57.77777778,-59,20,75,-39.22222222,19.77777778,12.85555556,0.397222354,-0.26851853,1,0,0,0.5839,submitButton,9.090924092,-0.243518452,-0.410185199,0,0,0,0,115,115,133,1,59,67321,blockP,180,2022-02-10_12h20.56.786,orientation adjustment blockP,2021.2.3,Win32,59.86231667,,,,,,,
,,,,,,,,,,,,,,,,,,,,,,42.77777778,44,20,75,53.77777778,9.777777778,3.911111111,0.399074093,-0.271296308,1,0,0,0.3341,submitButton,9.040141612,-0.159259248,-0.410185199,0,0,0,0,116,116,43,1,44,67321,blockP,180,2022-02-10_12h20.56.786,orientation adjustment blockP,2021.2.3,Win32,59.86231667,,,,,,,
,,,,,,,,,,,,,,,,,,,,,,62.22222222,-26,20,75,-22.77777778,3.222222222,1.288888889,0.433333353,-0.296296308,1,0,0,0.383,submitButton,8.964886731,-0.198148138,-0.389814828,0,0,0,0,117,117,100,1,26,67321,blockP,180,2022-02-10_12h20.56.786,orientation adjustment blockP,2021.2.3,Win32,59.86231667,,,,,,,
,,,,,,,,,,,,,,,,,,,,,,52.77777778,-32,20,75,-29.22222222,2.777777778,1.111111111,-0.307407399,-0.412962977,1,0,0,1.2668,submitButton,8.889369658,-0.306481473,-0.418518589,0,0,0,0,118,118,31,1,32,67321,blockP,180,2022-02-10_12h20.56.786,orientation adjustment blockP,2021.2.3,Win32,59.86231667,,,,,,,
,,,,,,,,,,,,,,,,,,,,,,-40.55555556,-45,20,75,-33.55555556,11.44444444,4.577777778,0.236111128,-0.291666678,1,0,0,0.0166,submitButton,8.848306878,0.362962982,-0.403703717,1,0,0,0,119,119,119,1,45,67321,blockP,180,2022-02-10_12h20.56.786,orientation adjustment blockP,2021.2.3,Win32,59.86231667,continueButton,,,,,,
,,,,,,,,,,,,,,,,,,,,,,-47.77777778,39,20,75,27.22222222,11.77777778,4.711111111,-0.124999989,-0.394444458,1,0,0,0.9839,submitButton,8.80927673,-0.116666655,-0.385185198,0,0,0,0,120,120,113,1,39,67321,blockP,180,2022-02-10_12h20.56.786,orientation adjustment blockP,2021.2.3,Win32,59.86231667,,,,,,,
,,,,,,,,,,,,,,,,,,,,,,-21.66666667,78,20,75,77.33333333,0.666666667,0.266666667,-0.134259248,-0.412962977,1,0,0,1.8004,submitButton,8.729439252,-0.133333322,-0.418518589,0,0,0,0,121,121,77,1,78,67321,blockP,180,2022-02-10_12h20.56.786,orientation adjustment blockP,2021.2.3,Win32,59.86231667,,,,,,,
,,,,,,,,,,,,,,,,,,,,,,58.33333333,54,20,75,57.33333333,3.333333333,1.333333333,0.421296316,-0.299074086,1,0,0,0.0829,submitButton,8.66095679,-0.206481415,-0.384259272,0,0,0,0,122,122,128,1,54,67321,blockP,180,2022-02-10_12h20.56.786,orientation adjustment blockP,2021.2.3,Win32,59.86231667,,,,,,,
,,,,,,,,,,,,,,,,,,,,,,61.66666667,87,20,75,80.66666667,6.333333333,2.533333333,0.384259278,-0.314814827,1,0,0,0.9664,submitButton,8.604740061,-0.34814814,-0.398148162,0,0,0,0,123,123,86,1,87,67321,blockP,180,2022-02-10_12h20.56.786,orientation adjustment blockP,2021.2.3,Win32,59.86231667,,,,,,,
,,,,,,,,,,,,,,,,,,,,,,74.44444444,-79,20,75,-66.55555556,12.44444444,4.977777778,0.401851984,-0.282407419,1,0,0,0.0495,submitButton,8.571767677,-0.197222155,-0.397222236,0,0,0,0,124,124,78,1,79,67321,blockP,180,2022-02-10_12h20.56.786,orientation adjustment blockP,2021.2.3,Win32,59.86231667,,,,,,,
,,,,,,,,,,,,,,,,,,,,,,-22.77777778,-28,20,75,-42.77777778,14.77777778,5.911111111,-0.319444436,-0.412037051,1,0,0,0.7168,submitButton,8.547797798,-0.319444436,-0.412037051,0,0,0,0,125,125,102,1,28,67321,blockP,180,2022-02-10_12h20.56.786,orientation adjustment blockP,2021.2.3,Win32,59.86231667,,,,,,,
,,,,,,,,,,,,,,,,,,,,,,-56.11111111,-64,20,75,-66.11111111,2.111111111,0.844444444,0.234259276,-0.307407476,1,0,0,0.0169,submitButton,8.479017857,0.358333352,-0.341666679,0,0,0,0,126,126,63,1,64,67321,blockP,180,2022-02-10_12h20.56.786,orientation adjustment blockP,2021.2.3,Win32,59.86231667,,,,,,,
,,,,,,,,,,,,,,,,,,,,,,49.44444444,73,20,75,76.44444444,3.444444444,1.377777778,0.455555576,-0.284259327,1,0,0,0.9004,submitButton,8.416175025,-0.149074063,-0.377777791,0,0,0,0,127,127,147,1,73,67321,blockP,180,2022-02-10_12h20.56.786,orientation adjustment blockP,2021.2.3,Win32,59.86231667,,,,,,,
,,,,,,,,,,,,,,,,,,,,,,-27.22222222,-33,20,75,-38.22222222,5.222222222,2.088888889,-0.266666601,-0.433333347,1,0,0,0.6662,submitButton,8.360672515,-0.265740731,-0.403703717,0,0,0,0,128,128,32,1,33,67321,blockP,180,2022-02-10_12h20.56.786,orientation adjustment blockP,2021.2.3,Win32,59.86231667,,,,,,,
,,,,,,,,,,,,,,,,,,,,,,-72.77777778,-22,20,75,-29.77777778,7.777777778,3.111111111,-0.296296287,-0.414814828,1,0,0,1.8507,submitButton,8.315024155,-0.296296287,-0.408333347,0,0,0,0,129,129,96,1,22,67321,blockP,180,2022-02-10_12h20.56.786,orientation adjustment blockP,2021.2.3,Win32,59.86231667,,,,,,,
,,,,,,,,,,,,,,,,,,,,,,-48.88888889,-14,20,75,-30.88888889,16.88888889,10.97777778,-0.160185118,-0.383333346,1,0,0,1.1342,submitButton,8.337978927,-0.160185118,-0.383333346,0,0,0,0,130,130,13,1,14,67321,blockP,180,2022-02-10_12h20.56.786,orientation adjustment blockP,2021.2.3,Win32,59.86231667,,,,,,,
,,,,,,,,,,,,,,,,,,,,,,55.55555556,70,20,75,240.5555556,9.444444444,3.777777778,0.202777794,-0.300925938,1,0,0,0.1497,submitButton,8.299002849,-0.227777768,-0.409259329,0,0,0,0,131,131,69,1,70,67321,blockP,180,2022-02-10_12h20.56.786,orientation adjustment blockP,2021.2.3,Win32,59.86231667,,,,,,,
,,,,,,,,,,,,,,,,,,,,,,47.77777778,39,20,75,61.77777778,22.77777778,14.80555556,0.389814834,-0.315740753,1,0,0,0.8673,submitButton,8.354143126,-0.270370361,-0.39629631,0,0,0,0,132,132,38,1,39,67321,blockP,180,2022-02-10_12h20.56.786,orientation adjustment blockP,2021.2.3,Win32,59.86231667,,,,,,,
,,,,,,,,,,,,,,,,,,,,,,51.66666667,-72,20,75,-53.33333333,18.66666667,12.13333333,-0.171296286,-0.393518532,1,0,0,2.1134,submitButton,8.385901027,-0.171296286,-0.393518532,0,0,0,0,133,133,71,1,72,67321,blockP,180,2022-02-10_12h20.56.786,orientation adjustment blockP,2021.2.3,Win32,59.86231667,,,,,,,
,,,,,,,,,,,,,,,,,,,,,,-52.22222222,21,20,75,45.77777778,24.77777778,16.10555556,-0.201851785,-0.401851865,1,0,0,2.0836,submitButton,8.450231481,0.27222224,-0.389814828,1,0,0,0,134,134,20,1,21,67321,blockP,180,2022-02-10_12h20.56.786,orientation adjustment blockP,2021.2.3,Win32,59.86231667,continueButton,,,,,,
,,,,,,,,,,,,,,,,,,,,,,30.55555556,77,20,75,71.55555556,5.444444444,2.177777778,0.388888908,-0.291666678,1,0,0,0.2848,submitButton,8.398393021,0.200925942,-0.164814825,0,0,0,0,135,135,76,1,77,67321,blockP,180,2022-02-10_12h20.56.786,orientation adjustment blockP,2021.2.3,Win32,59.86231667,,,,,,,
,,,,,,,,,,,,,,,,,,,,,,48.88888889,-24,20,75,-34.11111111,10.11111111,4.044444444,0.392592725,-0.275000068,1,0,0,0.1164,submitButton,8.362704918,-0.095370302,-0.380555569,0,0,0,0,136,136,98,1,24,67321,blockP,180,2022-02-10_12h20.56.786,orientation adjustment blockP,2021.2.3,Win32,59.86231667,,,,,,,
,,,,,,,,,,,,,,,,,,,,,,28.88888889,50,20,75,56.88888889,6.888888889,2.755555556,0.181481497,-0.285185197,1,0,0,1.0341,submitButton,8.317118338,-0.166666656,-0.394444458,0,0,0,0,137,137,49,1,50,67321,blockP,180,2022-02-10_12h20.56.786,orientation adjustment blockP,2021.2.3,Win32,59.86231667,,,,,,,
,,,,,,,,,,,,,,,,,,,,,,59.44444444,-72,20,75,-49.55555556,22.44444444,14.58888889,-0.163888878,-0.392592606,1,0,0,1.3002,submitButton,8.367697133,-0.154629619,-0.39629631,0,0,0,0,138,138,146,1,72,67321,blockP,180,2022-02-10_12h20.56.786,orientation adjustment blockP,2021.2.3,Win32,59.86231667,,,,,,,
,,,,,,,,,,,,,,,,,,,,,,51.66666667,47,20,75,57.66666667,10.66666667,4.266666667,0.38611113,-0.288888957,1,0,0,0.75,submitButton,8.334888889,-0.150925858,-0.368518531,0,0,0,0,139,139,46,1,47,67321,blockP,180,2022-02-10_12h20.56.786,orientation adjustment blockP,2021.2.3,Win32,59.86231667,,,,,,,
,,,,,,,,,,,,,,,,,,,,,,72.22222222,68,20,75,232.2222222,15.77777778,10.25555556,0.205555572,-0.309259271,1,0,0,0.0343,submitButton,8.350132275,-0.13148147,-0.386111181,0,0,0,0,140,140,67,1,68,67321,blockP,180,2022-02-10_12h20.56.786,orientation adjustment blockP,2021.2.3,Win32,59.86231667,,,,,,,
,,,,,,,,,,,,,,,,,,,,,,38.33333333,84,20,75,79.33333333,4.666666667,1.866666667,0.382407426,-0.328703716,1,0,0,0.7174,submitButton,8.299081365,-0.279629621,-0.403703717,0,0,0,0,141,141,83,1,84,67321,blockP,180,2022-02-10_12h20.56.786,orientation adjustment blockP,2021.2.3,Win32,59.86231667,,,,,,,
,,,,,,,,,,,,,,,,,,,,,,-67.22222222,-26,20,75,-32.22222222,6.222222222,2.488888889,0.232407424,-0.300925938,1,0,0,0.0174,submitButton,8.253689236,0.402777797,-0.122222288,0,0,0,0,142,142,25,1,26,67321,blockP,180,2022-02-10_12h20.56.786,orientation adjustment blockP,2021.2.3,Win32,59.86231667,,,,,,,
,,,,,,,,,,,,,,,,,,,,,,29.44444444,48,20,75,55.44444444,7.444444444,2.977777778,0.392592725,-0.276851863,1,0,0,1.0005,submitButton,8.212790698,-0.174999989,-0.40000007,0,0,0,0,143,143,122,1,48,67321,blockP,180,2022-02-10_12h20.56.786,orientation adjustment blockP,2021.2.3,Win32,59.86231667,,,,,,,
,,,,,,,,,,,,,,,,,,,,,,23.88888889,-48,20,75,-38.11111111,9.888888889,3.955555556,0.418518538,-0.280555567,1,0,0,0.101,submitButton,8.180042735,0.220370387,-0.180555566,0,0,0,0,144,144,47,1,48,67321,blockP,180,2022-02-10_12h20.56.786,orientation adjustment blockP,2021.2.3,Win32,59.86231667,,,,,,,
,,,,,,,,,,,,,,,,,,,,,,-35,-53,20,75,-55,2,0.8,-0.256481472,-0.414814828,1,0,0,1.3501,submitButton,8.123706531,-0.049074005,-0.244444456,0,0,0,0,145,145,127,1,53,67321,blockP,180,2022-02-10_12h20.56.786,orientation adjustment blockP,2021.2.3,Win32,59.86231667,,,,,,,
,,,,,,,,,,,,,,,,,,,,,,-43.33333333,-76,20,75,-214.3333333,41.66666667,33.33333333,0.400000019,-0.293518587,1,0,0,0.1008,submitButton,8.314688552,-0.276851843,-0.381481551,0,0,0,0,146,146,75,1,76,67321,blockP,180,2022-02-10_12h20.56.786,orientation adjustment blockP,2021.2.3,Win32,59.86231667,,,,,,,
,,,,,,,,,,,,,,,,,,,,,,44.44444444,-37,20,75,-17.55555556,19.44444444,12.63888889,0.427777797,-0.284259327,1,0,0,0.4496,submitButton,8.347201337,-0.152777767,-0.306481493,0,0,0,0,147,147,36,1,37,67321,blockP,180,2022-02-10_12h20.56.786,orientation adjustment blockP,2021.2.3,Win32,59.86231667,,,,,,,
,,,,,,,,,,,,,,,,,,,,,,75,2,20,75,-2,4,1.6,-0.252777712,-0.381481551,1,0,0,2.1336,submitButton,8.296849088,-0.252777712,-0.381481551,0,0,0,0,148,148,1,1,2,67321,blockP,180,2022-02-10_12h20.56.786,orientation adjustment blockP,2021.2.3,Win32,59.86231667,,,,,,,
,,,,,,,,,,,,,,,,,,,,,,34.44444444,52,20,75,66.44444444,14.44444444,5.777777778,0.400925945,-0.304629642,1,0,0,0.0666,submitButton,8.2781893,0.275000017,-0.39166668,1,0,0,0,149,149,51,1,52,67321,blockP,180,2022-02-10_12h20.56.786,orientation adjustment blockP,2021.2.3,Win32,59.86231667,continueButton,,,,,,
,,,,,,,,,,,,,,,,,,,,,,,,,,,,,,,,,,,,,,,,,,,,,,,,67321,blockP,180,2022-02-10_12h20.56.786,orientation adjustment blockP,2021.2.3,Win32,59.86231667,,0.275925943,-0.400925939,1,0,0,EndButtonTxt
