consentMouse1.x,consentMouse1.y,consentMouse1.leftButton,consentMouse1.midButton,consentMouse1.rightButton,consentMouse1.clicked_name,consent_Mouse.x,consent_Mouse.y,consent_Mouse.leftButton,consent_Mouse.midButton,consent_Mouse.rightButton,consent_Mouse.clicked_name,startMouse.x,startMouse.y,startMouse.leftButton,startMouse.midButton,startMouse.rightButton,startMouse_2.x,startMouse_2.y,startMouse_2.leftButton,startMouse_2.midButton,startMouse_2.rightButton,start_distance,fixedOri,minimalDistance,maxOri,this_ori,accuracy,presented_accuracy,submitMouse.x,submitMouse.y,submitMouse.leftButton,submitMouse.midButton,submitMouse.rightButton,submitMouse.time,submitMouse.clicked_name,block_accuracy,continueMouse.x,continueMouse.y,continueMouse.leftButton,continueMouse.midButton,continueMouse.rightButton,trials.thisRepN,trials.thisTrialN,trials.thisN,trials.thisIndex,trials.ran,startOri,participant,condition,nTrials,date,expName,psychopyVersion,OS,frameRate,continueMouse.clicked_name,EndButtonMouse.x,EndButtonMouse.y,EndButtonMouse.leftButton,EndButtonMouse.midButton,EndButtonMouse.rightButton,EndButtonMouse.clicked_name
0.350925963,-0.407407491,1,0,0,consent_button1,0.354629667,-0.407407491,1,0,0,consent_button,0.20277781,-0.28703706,1,0,0,0.20277781,-0.28703706,1,0,0,24.44444444,42,20,75,90.44444444,48.44444444,38.75555556,-0.143518496,-0.419444472,1,0,0,3.0956,submitButton,38.75555556,-0.143518496,-0.419444472,0,0,0,0,0,0,26,1,42,67627,blockP,180,2022-02-12_16h45.48.365,orientation adjustment blockP,2021.2.3,Win32,59.85873339,,,,,,,
,,,,,,,,,,,,,,,,,,,,,,25,-43,20,75,-18,25,16.25,-0.143518496,-0.419444472,1,0,0,830.3001,submitButton,27.50277778,-0.143518496,-0.419444472,0,0,0,0,1,1,27,1,43,67627,blockP,180,2022-02-12_16h45.48.365,orientation adjustment blockP,2021.2.3,Win32,59.85873339,,,,,,,
,,,,,,,,,,,,,,,,,,,,,,71.11111111,69,20,75,140.1111111,71.11111111,64,-0.231481462,-0.401851935,1,0,0,1.7641,submitButton,39.66851852,-0.231481462,-0.401851935,0,0,0,0,2,2,53,1,69,67627,blockP,180,2022-02-12_16h45.48.365,orientation adjustment blockP,2021.2.3,Win32,59.85873339,,,,,,,
,,,,,,,,,,,,,,,,,,,,,,-30.55555556,-57,20,75,-87.55555556,30.55555556,24.44444444,-0.22962961,-0.398148175,1,0,0,0.5706,submitButton,24.44444444,-0.22962961,-0.398148175,0,0,0,0,3,3,41,1,57,67627,blockP,180,2022-02-12_16h45.48.365,orientation adjustment blockP,2021.2.3,Win32,59.85873339,,,,,,,
,,,,,,,,,,,,,,,,,,,,,,-20.55555556,-28,20,75,-48.55555556,20.55555556,13.36111111,-0.22962961,-0.395370397,1,0,0,0.5832,submitButton,18.90277778,-0.22962961,-0.395370397,0,0,0,0,4,4,12,1,28,67627,blockP,180,2022-02-12_16h45.48.365,orientation adjustment blockP,2021.2.3,Win32,59.85873339,,,,,,,
,,,,,,,,,,,,,,,,,,,,,,-58.88888889,23,20,75,-35.88888889,58.88888889,50.05555556,-0.22962961,-0.395370397,1,0,0,1.2768,submitButton,29.28703704,-0.22962961,-0.395370397,0,0,0,0,5,5,7,1,23,67627,blockP,180,2022-02-12_16h45.48.365,orientation adjustment blockP,2021.2.3,Win32,59.85873339,,,,,,,
,,,,,,,,,,,,,,,,,,,,,,-55,50,20,75,-5,55,46.75,-0.227777758,-0.390740824,1,0,0,0.9644,submitButton,46.75,-0.227777758,-0.390740824,0,0,0,0,6,6,34,1,50,67627,blockP,180,2022-02-12_16h45.48.365,orientation adjustment blockP,2021.2.3,Win32,59.85873339,,,,,,,
,,,,,,,,,,,,,,,,,,,,,,21.11111111,-39,20,75,-17.88888889,21.11111111,13.72222222,-0.226851832,-0.388888915,1,0,0,11.3213,submitButton,30.23611111,-0.226851832,-0.388888915,0,0,0,0,7,7,23,1,39,67627,blockP,180,2022-02-12_16h45.48.365,orientation adjustment blockP,2021.2.3,Win32,59.85873339,,,,,,,
,,,,,,,,,,,,,,,,,,,,,,-56.11111111,-30,20,75,-86.11111111,56.11111111,47.69444444,-0.22499998,-0.38240749,1,0,0,4.9943,submitButton,36.05555556,-0.22499998,-0.38240749,0,0,0,0,8,8,14,1,30,67627,blockP,180,2022-02-12_16h45.48.365,orientation adjustment blockP,2021.2.3,Win32,59.85873339,,,,,,,
,,,,,,,,,,,,,,,,,,,,,,32.22222222,-32,20,75,0.222222222,32.22222222,25.77777778,-0.22499998,-0.38240749,1,0,0,8.8399,submitButton,25.77777778,-0.22499998,-0.38240749,0,0,0,0,9,9,16,1,32,67627,blockP,180,2022-02-12_16h45.48.365,orientation adjustment blockP,2021.2.3,Win32,59.85873339,,,,,,,
,,,,,,,,,,,,,,,,,,,,,,-65,33,20,75,-32,65,55.25,-0.22499998,-0.381481508,1,0,0,1.3325,submitButton,40.51388889,-0.22499998,-0.381481508,0,0,0,0,10,10,17,1,33,67627,blockP,180,2022-02-12_16h45.48.365,orientation adjustment blockP,2021.2.3,Win32,59.85873339,,,,,,,
,,,,,,,,,,,,,,,,,,,,,,-72.22222222,-17,20,75,-89.22222222,72.22222222,65,-0.22499998,-0.381481508,1,0,0,6.7921,submitButton,48.67592593,-0.22499998,-0.381481508,0,0,0,0,11,11,1,1,17,67627,blockP,180,2022-02-12_16h45.48.365,orientation adjustment blockP,2021.2.3,Win32,59.85873339,,,,,,,
,,,,,,,,,,,,,,,,,,,,,,-67.77777778,54,20,75,-13.77777778,67.77777778,57.61111111,-0.224074054,-0.376851934,1,0,0,3.7791,submitButton,57.61111111,-0.22499998,-0.375925952,0,0,0,0,12,12,38,1,54,67627,blockP,180,2022-02-12_16h45.48.365,orientation adjustment blockP,2021.2.3,Win32,59.85873339,,,,,,,
,,,,,,,,,,,,,,,,,,,,,,55.55555556,60,20,75,115.5555556,55.55555556,47.22222222,-0.230555536,-0.367592618,1,0,0,562.2105,submitButton,52.41666667,-0.23888887,-0.414814842,0,0,0,0,13,13,44,1,60,67627,blockP,180,2022-02-12_16h45.48.365,orientation adjustment blockP,2021.2.3,Win32,59.85873339,,,,,,,
,,,,,,,,,,,,,,,,,,,,,,-48.33333333,-72,20,75,-120.3333333,48.33333333,38.66666667,-0.23888887,-0.414814842,1,0,0,3.5481,submitButton,47.83333333,0.363888926,-0.385185268,1,0,0,0,14,14,56,1,72,67627,blockP,180,2022-02-12_16h45.48.365,orientation adjustment blockP,2021.2.3,Win32,59.85873339,continueButton,,,,,,
,,,,,,,,,,,,,,,,,,,,,,-45,40,20,75,-5,45,36,-0.187962942,-0.381481508,1,0,0,6.2432,submitButton,36,-0.187962942,-0.381481508,0,0,0,0,15,15,24,1,40,67627,blockP,180,2022-02-12_16h45.48.365,orientation adjustment blockP,2021.2.3,Win32,59.85873339,,,,,,,
,,,,,,,,,,,,,,,,,,,,,,55,-56,20,75,-1,55,46.75,-0.187962942,-0.381481508,1,0,0,4.3163,submitButton,41.375,-0.187962942,-0.381481508,0,0,0,0,16,16,40,1,56,67627,blockP,180,2022-02-12_16h45.48.365,orientation adjustment blockP,2021.2.3,Win32,59.85873339,,,,,,,
,,,,,,,,,,,,,,,,,,,,,,64.44444444,47,20,75,111.4444444,64.44444444,54.77777778,-0.222222202,-0.427777805,1,0,0,2.2639,submitButton,45.84259259,-0.23888887,-0.395370397,0,0,0,0,17,17,31,1,47,67627,blockP,180,2022-02-12_16h45.48.365,orientation adjustment blockP,2021.2.3,Win32,59.85873339,,,,,,,
,,,,,,,,,,,,,,,,,,,,,,-45.55555556,62,20,75,16.44444444,45.55555556,36.44444444,-0.323148131,-0.416666694,1,0,0,1.2282,submitButton,43.49305556,-0.323148131,-0.416666694,0,0,0,0,18,18,46,1,62,67627,blockP,180,2022-02-12_16h45.48.365,orientation adjustment blockP,2021.2.3,Win32,59.85873339,,,,,,,
,,,,,,,,,,,,,,,,,,,,,,-28.88888889,-36,20,75,-64.88888889,28.88888889,18.77777778,-0.338888872,-0.424074158,1,0,0,1.8795,submitButton,38.55,-0.338888872,-0.424074158,0,0,0,0,19,19,20,1,36,67627,blockP,180,2022-02-12_16h45.48.365,orientation adjustment blockP,2021.2.3,Win32,59.85873339,,,,,,,
,,,,,,,,,,,,,,,,,,,,,,27.77777778,-46,20,75,-18.22222222,27.77777778,18.05555556,-0.338888872,-0.404629713,1,0,0,2.1466,submitButton,35.13425926,-0.338888872,-0.404629713,0,0,0,0,20,20,30,1,46,67627,blockP,180,2022-02-12_16h45.48.365,orientation adjustment blockP,2021.2.3,Win32,59.85873339,,,,,,,
,,,,,,,,,,,,,,,,,,,,,,33.88888889,25,20,75,58.88888889,33.88888889,27.11111111,-0.338888872,-0.404629713,1,0,0,1.4145,submitButton,33.98809524,-0.338888872,-0.404629713,0,0,0,0,21,21,9,1,25,67627,blockP,180,2022-02-12_16h45.48.365,orientation adjustment blockP,2021.2.3,Win32,59.85873339,,,,,,,
,,,,,,,,,,,,,,,,,,,,,,-40.55555556,71,20,75,30.44444444,40.55555556,32.44444444,-0.338888872,-0.404629713,1,0,0,5.4935,submitButton,33.79513889,-0.338888872,-0.404629713,0,0,0,0,22,22,55,1,71,67627,blockP,180,2022-02-12_16h45.48.365,orientation adjustment blockP,2021.2.3,Win32,59.85873339,,,,,,,
,,,,,,,,,,,,,,,,,,,,,,41.66666667,51,20,75,92.66666667,41.66666667,33.33333333,-0.338888872,-0.404629713,1,0,0,1.3661,submitButton,33.74382716,-0.338888872,-0.404629713,0,0,0,0,23,23,35,1,51,67627,blockP,180,2022-02-12_16h45.48.365,orientation adjustment blockP,2021.2.3,Win32,59.85873339,,,,,,,
,,,,,,,,,,,,,,,,,,,,,,47.22222222,-55,20,75,-7.777777778,47.22222222,37.77777778,-0.338888872,-0.404629713,1,0,0,1.3984,submitButton,34.14722222,-0.338888872,-0.404629713,0,0,0,0,24,24,39,1,55,67627,blockP,180,2022-02-12_16h45.48.365,orientation adjustment blockP,2021.2.3,Win32,59.85873339,,,,,,,
,,,,,,,,,,,,,,,,,,,,,,31.11111111,-31,20,75,0.111111111,31.11111111,24.88888889,-0.338888872,-0.404629713,1,0,0,3.9947,submitButton,33.30555556,-0.262037018,-0.405555583,0,0,0,0,25,25,15,1,31,67627,blockP,180,2022-02-12_16h45.48.365,orientation adjustment blockP,2021.2.3,Win32,59.85873339,,,,,,,
,,,,,,,,,,,,,,,,,,,,,,-22.77777778,35,20,75,12.22222222,22.77777778,14.80555556,-0.262037018,-0.405555583,1,0,0,1.0994,submitButton,31.76388889,-0.262037018,-0.405555583,0,0,0,0,26,26,19,1,35,67627,blockP,180,2022-02-12_16h45.48.365,orientation adjustment blockP,2021.2.3,Win32,59.85873339,,,,,,,
,,,,,,,,,,,,,,,,,,,,,,35.55555556,20,20,75,55.55555556,35.55555556,28.44444444,-0.262037018,-0.405555583,1,0,0,6.7925,submitButton,31.50854701,-0.262037018,-0.405555583,0,0,0,0,27,27,4,1,20,67627,blockP,180,2022-02-12_16h45.48.365,orientation adjustment blockP,2021.2.3,Win32,59.85873339,,,,,,,
,,,,,,,,,,,,,,,,,,,,,,-69.44444444,-26,20,75,-95.44444444,69.44444444,59.02777778,-0.262037018,-0.405555583,1,0,0,10.0724,submitButton,33.47420635,-0.262037018,-0.405555583,0,0,0,0,28,28,10,1,26,67627,blockP,180,2022-02-12_16h45.48.365,orientation adjustment blockP,2021.2.3,Win32,59.85873339,,,,,,,
,,,,,,,,,,,,,,,,,,,,,,-46.66666667,-66,20,75,-112.6666667,46.66666667,37.33333333,-0.262037018,-0.405555583,1,0,0,0.5492,submitButton,33.73148148,0.361111148,-0.412963047,1,0,0,0,29,29,50,1,66,67627,blockP,180,2022-02-12_16h45.48.365,orientation adjustment blockP,2021.2.3,Win32,59.85873339,continueButton,,,,,,
,,,,,,,,,,,,,,,,,,,,,,-20,-37,20,75,-57,20,13,-0.283333315,-0.389814841,1,0,0,1.898,submitButton,32.43576389,-0.283333315,-0.389814841,0,0,0,0,30,30,21,1,37,67627,blockP,180,2022-02-12_16h45.48.365,orientation adjustment blockP,2021.2.3,Win32,59.85873339,,,,,,,
,,,,,,,,,,,,,,,,,,,,,,42.77777778,63,20,75,105.7777778,42.77777778,34.22222222,-0.283333315,-0.389814841,1,0,0,0.766,submitButton,32.54084967,-0.283333315,-0.389814841,0,0,0,0,31,31,47,1,63,67627,blockP,180,2022-02-12_16h45.48.365,orientation adjustment blockP,2021.2.3,Win32,59.85873339,,,,,,,
,,,,,,,,,,,,,,,,,,,,,,-72.22222222,-68,20,75,-140.2222222,72.22222222,65,-0.283333315,-0.389814841,1,0,0,0.566,submitButton,34.3441358,-0.283333315,-0.389814841,0,0,0,0,32,32,52,1,68,67627,blockP,180,2022-02-12_16h45.48.365,orientation adjustment blockP,2021.2.3,Win32,59.85873339,,,,,,,
,,,,,,,,,,,,,,,,,,,,,,-53.33333333,-34,20,75,-87.33333333,53.33333333,45.33333333,-0.283333315,-0.389814841,1,0,0,0.5496,submitButton,34.92251462,-0.283333315,-0.389814841,0,0,0,0,33,33,18,1,34,67627,blockP,180,2022-02-12_16h45.48.365,orientation adjustment blockP,2021.2.3,Win32,59.85873339,,,,,,,
,,,,,,,,,,,,,,,,,,,,,,-65,18,20,75,-47,65,55.25,-0.283333315,-0.389814841,1,0,0,0.6832,submitButton,35.93888889,-0.283333315,-0.389814841,0,0,0,0,34,34,2,1,18,67627,blockP,180,2022-02-12_16h45.48.365,orientation adjustment blockP,2021.2.3,Win32,59.85873339,,,,,,,
,,,,,,,,,,,,,,,,,,,,,,-27.77777778,48,20,75,20.22222222,27.77777778,18.05555556,-0.283333315,-0.389814841,1,0,0,21.4933,submitButton,35.08730159,-0.283333315,-0.389814841,0,0,0,0,35,35,32,1,48,67627,blockP,180,2022-02-12_16h45.48.365,orientation adjustment blockP,2021.2.3,Win32,59.85873339,,,,,,,
,,,,,,,,,,,,,,,,,,,,,,-26.11111111,27,20,75,0.888888889,26.11111111,16.97222222,-0.283333315,-0.389814841,1,0,0,7.4423,submitButton,34.26388889,-0.283333315,-0.389814841,0,0,0,0,36,36,11,1,27,67627,blockP,180,2022-02-12_16h45.48.365,orientation adjustment blockP,2021.2.3,Win32,59.85873339,,,,,,,
,,,,,,,,,,,,,,,,,,,,,,-56.66666667,-59,20,75,-115.6666667,56.66666667,48.16666667,-0.283333315,-0.389814841,1,0,0,2.1645,submitButton,34.86835749,-0.283333315,-0.389814841,0,0,0,0,37,37,43,1,59,67627,blockP,180,2022-02-12_16h45.48.365,orientation adjustment blockP,2021.2.3,Win32,59.85873339,,,,,,,
,,,,,,,,,,,,,,,,,,,,,,35.55555556,21,20,75,56.55555556,35.55555556,28.44444444,-0.283333315,-0.389814841,1,0,0,3.536,submitButton,34.60069444,-0.283333315,-0.389814841,0,0,0,0,38,38,5,1,21,67627,blockP,180,2022-02-12_16h45.48.365,orientation adjustment blockP,2021.2.3,Win32,59.85873339,,,,,,,
,,,,,,,,,,,,,,,,,,,,,,-20.55555556,65,20,75,44.44444444,20.55555556,13.36111111,-0.283333315,-0.389814841,1,0,0,1.6314,submitButton,33.75111111,-0.283333315,-0.389814841,0,0,0,0,39,39,49,1,65,67627,blockP,180,2022-02-12_16h45.48.365,orientation adjustment blockP,2021.2.3,Win32,59.85873339,,,,,,,
,,,,,,,,,,,,,,,,,,,,,,-61.11111111,-74,20,75,-135.1111111,61.11111111,51.94444444,-0.283333315,-0.389814841,1,0,0,0.2049,submitButton,34.4508547,-0.283333315,-0.389814841,0,0,0,0,40,40,58,1,74,67627,blockP,180,2022-02-12_16h45.48.365,orientation adjustment blockP,2021.2.3,Win32,59.85873339,,,,,,,
,,,,,,,,,,,,,,,,,,,,,,-62.77777778,-61,20,75,-123.7777778,62.77777778,53.36111111,-0.283333315,-0.389814841,1,0,0,0.8838,submitButton,35.15123457,-0.283333315,-0.389814841,0,0,0,0,41,41,45,1,61,67627,blockP,180,2022-02-12_16h45.48.365,orientation adjustment blockP,2021.2.3,Win32,59.85873339,,,,,,,
,,,,,,,,,,,,,,,,,,,,,,-24.44444444,49,20,75,24.55555556,24.44444444,15.88888889,-0.283333315,-0.389814841,1,0,0,0.0703,submitButton,34.46329365,-0.283333315,-0.389814841,0,0,0,0,42,42,33,1,49,67627,blockP,180,2022-02-12_16h45.48.365,orientation adjustment blockP,2021.2.3,Win32,59.85873339,,,,,,,
,,,,,,,,,,,,,,,,,,,,,,-74.44444444,22,20,75,-52.44444444,74.44444444,67,-0.283333315,-0.389814841,1,0,0,2.2306,submitButton,35.58524904,-0.283333315,-0.389814841,0,0,0,0,43,43,6,1,22,67627,blockP,180,2022-02-12_16h45.48.365,orientation adjustment blockP,2021.2.3,Win32,59.85873339,,,,,,,
,,,,,,,,,,,,,,,,,,,,,,40,70,20,75,110,40,32,-0.283333315,-0.389814841,1,0,0,1.4153,submitButton,35.46574074,0.356481519,-0.400000027,1,0,0,0,44,44,54,1,70,67627,blockP,180,2022-02-12_16h45.48.365,orientation adjustment blockP,2021.2.3,Win32,59.85873339,continueButton,,,,,,
,,,,,,,,,,,,,,,,,,,,,,-56.66666667,53,20,75,-3.666666667,56.66666667,48.16666667,-0.340740724,-0.387963046,1,0,0,2.047,submitButton,35.87544803,-0.340740724,-0.387963046,0,0,0,0,45,45,37,1,53,67627,blockP,180,2022-02-12_16h45.48.365,orientation adjustment blockP,2021.2.3,Win32,59.85873339,,,,,,,
,,,,,,,,,,,,,,,,,,,,,,-43.33333333,58,20,75,14.66666667,43.33333333,34.66666667,-0.340740724,-0.387963046,1,0,0,0.7376,submitButton,35.83767361,-0.340740724,-0.387963046,0,0,0,0,46,46,42,1,58,67627,blockP,180,2022-02-12_16h45.48.365,orientation adjustment blockP,2021.2.3,Win32,59.85873339,,,,,,,
,,,,,,,,,,,,,,,,,,,,,,-36.66666667,45,20,75,8.333333333,36.66666667,29.33333333,-0.345370354,-0.401851935,1,0,0,0.7995,submitButton,35.64057239,-0.345370354,-0.401851935,0,0,0,0,47,47,29,1,45,67627,blockP,180,2022-02-12_16h45.48.365,orientation adjustment blockP,2021.2.3,Win32,59.85873339,,,,,,,
,,,,,,,,,,,,,,,,,,,,,,63.33333333,38,20,75,101.3333333,63.33333333,53.83333333,-0.345370354,-0.401851935,1,0,0,0.7991,submitButton,36.17565359,-0.345370354,-0.401851935,0,0,0,0,48,48,22,1,38,67627,blockP,180,2022-02-12_16h45.48.365,orientation adjustment blockP,2021.2.3,Win32,59.85873339,,,,,,,
,,,,,,,,,,,,,,,,,,,,,,-44.44444444,67,20,75,22.55555556,44.44444444,35.55555556,-0.345370354,-0.401851935,1,0,0,3.2765,submitButton,36.15793651,-0.345370354,-0.401851935,0,0,0,0,49,49,51,1,67,67627,blockP,180,2022-02-12_16h45.48.365,orientation adjustment blockP,2021.2.3,Win32,59.85873339,,,,,,,
,,,,,,,,,,,,,,,,,,,,,,58.88888889,-16,20,75,42.88888889,58.88888889,50.05555556,-0.345370354,-0.401851935,1,0,0,0.9334,submitButton,36.54398148,-0.345370354,-0.401851935,0,0,0,0,50,50,0,1,16,67627,blockP,180,2022-02-12_16h45.48.365,orientation adjustment blockP,2021.2.3,Win32,59.85873339,,,,,,,
,,,,,,,,,,,,,,,,,,,,,,36.66666667,-29,20,75,7.666666667,36.66666667,29.33333333,-0.345370354,-0.401851935,1,0,0,2.6299,submitButton,36.3490991,-0.345370354,-0.401851935,0,0,0,0,51,51,13,1,29,67627,blockP,180,2022-02-12_16h45.48.365,orientation adjustment blockP,2021.2.3,Win32,59.85873339,,,,,,,
,,,,,,,,,,,,,,,,,,,,,,-43.88888889,-64,20,75,-107.8888889,43.88888889,35.11111111,-0.345370354,-0.401851935,1,0,0,2.1623,submitButton,36.31652047,-0.345370354,-0.401851935,0,0,0,0,52,52,48,1,64,67627,blockP,180,2022-02-12_16h45.48.365,orientation adjustment blockP,2021.2.3,Win32,59.85873339,,,,,,,
,,,,,,,,,,,,,,,,,,,,,,26.11111111,41,20,75,67.11111111,26.11111111,16.97222222,-0.345370354,-0.401851935,1,0,0,1.4162,submitButton,35.82051282,-0.345370354,-0.401851935,0,0,0,0,53,53,25,1,41,67627,blockP,180,2022-02-12_16h45.48.365,orientation adjustment blockP,2021.2.3,Win32,59.85873339,,,,,,,
,,,,,,,,,,,,,,,,,,,,,,-45,-73,20,75,-118,45,36,-0.345370354,-0.401851935,1,0,0,2.963,submitButton,35.825,-0.345370354,-0.401851935,0,0,0,0,54,54,57,1,73,67627,blockP,180,2022-02-12_16h45.48.365,orientation adjustment blockP,2021.2.3,Win32,59.85873339,,,,,,,
,,,,,,,,,,,,,,,,,,,,,,46.11111111,19,20,75,65.11111111,46.11111111,36.88888889,-0.345370354,-0.401851935,1,0,0,0.5661,submitButton,35.85094851,-0.345370354,-0.401851935,0,0,0,0,55,55,3,1,19,67627,blockP,180,2022-02-12_16h45.48.365,orientation adjustment blockP,2021.2.3,Win32,59.85873339,,,,,,,
,,,,,,,,,,,,,,,,,,,,,,58.33333333,75,20,75,133.3333333,58.33333333,49.58333333,-0.345370354,-0.401851935,1,0,0,0.9373,submitButton,36.17791005,-0.345370354,-0.401851935,0,0,0,0,56,56,59,1,75,67627,blockP,180,2022-02-12_16h45.48.365,orientation adjustment blockP,2021.2.3,Win32,59.85873339,,,,,,,
,,,,,,,,,,,,,,,,,,,,,,75,44,20,75,119,75,67.5,-0.345370354,-0.401851935,1,0,0,606.3172,submitButton,36.90633075,-0.345370354,-0.401851935,0,0,0,0,57,57,28,1,44,67627,blockP,180,2022-02-12_16h45.48.365,orientation adjustment blockP,2021.2.3,Win32,59.85873339,,,,,,,
,,,,,,,,,,,,,,,,,,,,,,-56.66666667,52,20,75,-4.666666667,56.66666667,48.16666667,-0.345370354,-0.401851935,1,0,0,1.0941,submitButton,37.16224747,-0.345370354,-0.401851935,0,0,0,0,58,58,36,1,52,67627,blockP,180,2022-02-12_16h45.48.365,orientation adjustment blockP,2021.2.3,Win32,59.85873339,,,,,,,
,,,,,,,,,,,,,,,,,,,,,,-31.11111111,-24,20,75,-55.11111111,31.11111111,24.88888889,-0.345370354,-0.401851935,1,0,0,196.4172,submitButton,36.88950617,0.314814851,-0.386111138,1,0,0,0,59,59,8,1,24,67627,blockP,180,2022-02-12_16h45.48.365,orientation adjustment blockP,2021.2.3,Win32,59.85873339,continueButton,,,,,,
,,,,,,,,,,,,,,,,,,,,,,-70,70,20,75,0,70,63,-0.145370292,-0.404629713,1,0,0,6.6764,submitButton,37.4571256,-0.145370292,-0.404629713,0,0,0,1,0,60,54,1,70,67627,blockP,180,2022-02-12_16h45.48.365,orientation adjustment blockP,2021.2.3,Win32,59.85873339,,,,,,,
,,,,,,,,,,,,,,,,,,,,,,41.66666667,-58,20,75,-16.33333333,41.66666667,33.33333333,-0.436111098,-0.401851935,1,0,0,1.2174,submitButton,37.36938534,-0.436111098,-0.401851935,0,0,0,1,1,61,42,1,58,67627,blockP,180,2022-02-12_16h45.48.365,orientation adjustment blockP,2021.2.3,Win32,59.85873339,,,,,,,
,,,,,,,,,,,,,,,,,,,,,,-28.33333333,20,20,75,-8.333333333,28.33333333,18.41666667,-0.436111098,-0.401851935,1,0,0,2.9296,submitButton,36.97453704,-0.436111098,-0.401851935,0,0,0,1,2,62,4,1,20,67627,blockP,180,2022-02-12_16h45.48.365,orientation adjustment blockP,2021.2.3,Win32,59.85873339,,,,,,,
,,,,,,,,,,,,,,,,,,,,,,-31.66666667,72,20,75,40.33333333,31.66666667,25.33333333,-0.449074033,-0.415740825,1,0,0,13.3522,submitButton,36.73696145,-0.449074033,-0.415740825,0,0,0,1,3,63,56,1,72,67627,blockP,180,2022-02-12_16h45.48.365,orientation adjustment blockP,2021.2.3,Win32,59.85873339,,,,,,,
,,,,,,,,,,,,,,,,,,,,,,25,71,20,75,96,25,16.25,-0.466666654,-0.405555583,1,0,0,2.1975,submitButton,36.32722222,-0.466666654,-0.405555583,0,0,0,1,4,64,55,1,71,67627,blockP,180,2022-02-12_16h45.48.365,orientation adjustment blockP,2021.2.3,Win32,59.85873339,,,,,,,
,,,,,,,,,,,,,,,,,,,,,,23.33333333,-73,20,75,-49.66666667,23.33333333,15.16666667,-0.466666654,-0.405555583,1,0,0,2.7959,submitButton,35.91230937,-0.466666654,-0.405555583,0,0,0,1,5,65,57,1,73,67627,blockP,180,2022-02-12_16h45.48.365,orientation adjustment blockP,2021.2.3,Win32,59.85873339,,,,,,,
,,,,,,,,,,,,,,,,,,,,,,-61.11111111,29,20,75,-32.11111111,61.11111111,51.94444444,-0.466666654,-0.405555583,1,0,0,17.4972,submitButton,36.22061966,-0.466666654,-0.405555583,0,0,0,1,6,66,13,1,29,67627,blockP,180,2022-02-12_16h45.48.365,orientation adjustment blockP,2021.2.3,Win32,59.85873339,,,,,,,
,,,,,,,,,,,,,,,,,,,,,,73.33333333,68,20,75,141.3333333,73.33333333,66,-0.466666654,-0.405555583,1,0,0,0.2667,submitButton,36.78249476,-0.466666654,-0.405555583,0,0,0,1,7,67,52,1,68,67627,blockP,180,2022-02-12_16h45.48.365,orientation adjustment blockP,2021.2.3,Win32,59.85873339,,,,,,,
,,,,,,,,,,,,,,,,,,,,,,20,-46,20,75,-26,20,13,-0.466666654,-0.405555583,1,0,0,1.0979,submitButton,36.34207819,-0.466666654,-0.405555583,0,0,0,1,8,68,30,1,46,67627,blockP,180,2022-02-12_16h45.48.365,orientation adjustment blockP,2021.2.3,Win32,59.85873339,,,,,,,
,,,,,,,,,,,,,,,,,,,,,,38.88888889,-50,20,75,-11.11111111,38.88888889,31.11111111,-0.466666654,-0.405555583,1,0,0,8.2293,submitButton,36.2469697,-0.466666654,-0.405555583,0,0,0,1,9,69,34,1,50,67627,blockP,180,2022-02-12_16h45.48.365,orientation adjustment blockP,2021.2.3,Win32,59.85873339,,,,,,,
,,,,,,,,,,,,,,,,,,,,,,47.77777778,-25,20,75,22.77777778,47.77777778,38.22222222,-0.466666654,-0.405555583,1,0,0,18.6022,submitButton,36.28224206,-0.466666654,-0.405555583,0,0,0,1,10,70,9,1,25,67627,blockP,180,2022-02-12_16h45.48.365,orientation adjustment blockP,2021.2.3,Win32,59.85873339,,,,,,,
,,,,,,,,,,,,,,,,,,,,,,68.33333333,26,20,75,94.33333333,68.33333333,58.08333333,-0.466666654,-0.405555583,1,0,0,0.8992,submitButton,36.66471735,-0.466666654,-0.405555583,0,0,0,1,11,71,10,1,26,67627,blockP,180,2022-02-12_16h45.48.365,orientation adjustment blockP,2021.2.3,Win32,59.85873339,,,,,,,
,,,,,,,,,,,,,,,,,,,,,,-34.44444444,-63,20,75,-97.44444444,34.44444444,27.55555556,-0.466666654,-0.405555583,1,0,0,0.5323,submitButton,36.50766284,-0.466666654,-0.405555583,0,0,0,1,12,72,47,1,63,67627,blockP,180,2022-02-12_16h45.48.365,orientation adjustment blockP,2021.2.3,Win32,59.85873339,,,,,,,
,,,,,,,,,,,,,,,,,,,,,,-51.11111111,57,20,75,5.888888889,51.11111111,43.44444444,-0.466666654,-0.405555583,1,0,0,75.5838,submitButton,36.6252354,-0.466666654,-0.405555583,0,0,0,1,13,73,41,1,57,67627,blockP,180,2022-02-12_16h45.48.365,orientation adjustment blockP,2021.2.3,Win32,59.85873339,,,,,,,
,,,,,,,,,,,,,,,,,,,,,,-67.22222222,-66,20,75,-133.2222222,67.22222222,57.13888889,-0.466666654,-0.405555583,1,0,0,17.1127,submitButton,36.96712963,0.248148182,-0.391666693,1,0,0,1,14,74,50,1,66,67627,blockP,180,2022-02-12_16h45.48.365,orientation adjustment blockP,2021.2.3,Win32,59.85873339,continueButton,,,,,,
,,,,,,,,,,,,,,,,,,,,,,-37.77777778,-36,20,75,-73.77777778,37.77777778,30.22222222,-0.436111098,-0.407407491,1,0,0,1.4484,submitButton,36.85655738,-0.436111098,-0.407407491,0,0,0,1,15,75,20,1,36,67627,blockP,180,2022-02-12_16h45.48.365,orientation adjustment blockP,2021.2.3,Win32,59.85873339,,,,,,,
,,,,,,,,,,,,,,,,,,,,,,71.11111111,49,20,75,120.1111111,71.11111111,64,-0.436111098,-0.407407491,1,0,0,8.3415,submitButton,37.29435484,-0.436111098,-0.407407491,0,0,0,1,16,76,33,1,49,67627,blockP,180,2022-02-12_16h45.48.365,orientation adjustment blockP,2021.2.3,Win32,59.85873339,,,,,,,
,,,,,,,,,,,,,,,,,,,,,,-52.77777778,16,20,75,-36.77777778,52.77777778,44.86111111,-0.436111098,-0.407407491,1,0,0,0.8168,submitButton,37.41446208,-0.436111098,-0.407407491,0,0,0,1,17,77,0,1,16,67627,blockP,180,2022-02-12_16h45.48.365,orientation adjustment blockP,2021.2.3,Win32,59.85873339,,,,,,,
,,,,,,,,,,,,,,,,,,,,,,-32.77777778,-64,20,75,-96.77777778,32.77777778,26.22222222,-0.436111098,-0.407407491,1,0,0,0.9495,submitButton,37.23958333,-0.436111098,-0.407407491,0,0,0,1,18,78,48,1,64,67627,blockP,180,2022-02-12_16h45.48.365,orientation adjustment blockP,2021.2.3,Win32,59.85873339,,,,,,,
,,,,,,,,,,,,,,,,,,,,,,23.88888889,27,20,75,50.88888889,23.88888889,15.52777778,-0.436111098,-0.407407491,1,0,0,3.9969,submitButton,36.90555556,-0.436111098,-0.407407491,0,0,0,1,19,79,11,1,27,67627,blockP,180,2022-02-12_16h45.48.365,orientation adjustment blockP,2021.2.3,Win32,59.85873339,,,,,,,
,,,,,,,,,,,,,,,,,,,,,,-38.88888889,-40,20,75,-78.88888889,38.88888889,31.11111111,-0.436111098,-0.407407491,1,0,0,0.6998,submitButton,36.81776094,-0.436111098,-0.407407491,0,0,0,1,20,80,24,1,40,67627,blockP,180,2022-02-12_16h45.48.365,orientation adjustment blockP,2021.2.3,Win32,59.85873339,,,,,,,
,,,,,,,,,,,,,,,,,,,,,,-50.55555556,67,20,75,16.44444444,50.55555556,42.97222222,-0.436111098,-0.407407491,1,0,0,3.8462,submitButton,36.90961857,-0.436111098,-0.407407491,0,0,0,1,21,81,51,1,67,67627,blockP,180,2022-02-12_16h45.48.365,orientation adjustment blockP,2021.2.3,Win32,59.85873339,,,,,,,
,,,,,,,,,,,,,,,,,,,,,,-35.55555556,-52,20,75,-87.55555556,35.55555556,28.44444444,-0.455555543,-0.41759262,1,0,0,1.0159,submitButton,36.78513072,-0.455555543,-0.41759262,0,0,0,1,22,82,36,1,52,67627,blockP,180,2022-02-12_16h45.48.365,orientation adjustment blockP,2021.2.3,Win32,59.85873339,,,,,,,
,,,,,,,,,,,,,,,,,,,,,,37.22222222,-74,20,75,-36.77777778,37.22222222,29.77777778,-0.487962923,-0.387963046,1,0,0,0.7171,submitButton,36.68357488,-0.487962923,-0.387963046,0,0,0,1,23,83,58,1,74,67627,blockP,180,2022-02-12_16h45.48.365,orientation adjustment blockP,2021.2.3,Win32,59.85873339,,,,,,,
,,,,,,,,,,,,,,,,,,,,,,73.33333333,47,20,75,120.3333333,73.33333333,66,-0.490740701,-0.403703731,1,0,0,0.5121,submitButton,37.10238095,-0.490740701,-0.403703731,0,0,0,1,24,84,31,1,47,67627,blockP,180,2022-02-12_16h45.48.365,orientation adjustment blockP,2021.2.3,Win32,59.85873339,,,,,,,
,,,,,,,,,,,,,,,,,,,,,,-42.77777778,-19,20,75,-61.77777778,42.77777778,34.22222222,-0.490740701,-0.403703731,1,0,0,0.6994,submitButton,37.06181534,-0.490740701,-0.403703731,0,0,0,1,25,85,3,1,19,67627,blockP,180,2022-02-12_16h45.48.365,orientation adjustment blockP,2021.2.3,Win32,59.85873339,,,,,,,
,,,,,,,,,,,,,,,,,,,,,,68.33333333,62,20,75,130.3333333,68.33333333,58.08333333,-0.461111098,-0.375000026,1,0,0,18.5299,submitButton,37.35378086,-0.461111098,-0.375000026,0,0,0,1,26,86,46,1,62,67627,blockP,180,2022-02-12_16h45.48.365,orientation adjustment blockP,2021.2.3,Win32,59.85873339,,,,,,,
,,,,,,,,,,,,,,,,,,,,,,70.55555556,-69,20,75,1.555555556,70.55555556,63.5,-0.461111098,-0.375000026,1,0,0,0.7656,submitButton,37.71194825,-0.461111098,-0.375000026,0,0,0,1,27,87,53,1,69,67627,blockP,180,2022-02-12_16h45.48.365,orientation adjustment blockP,2021.2.3,Win32,59.85873339,,,,,,,
,,,,,,,,,,,,,,,,,,,,,,39.44444444,-30,20,75,9.444444444,39.44444444,31.55555556,-0.461111098,-0.375000026,1,0,0,0.6826,submitButton,37.62875375,-0.461111098,-0.375000026,0,0,0,1,28,88,14,1,30,67627,blockP,180,2022-02-12_16h45.48.365,orientation adjustment blockP,2021.2.3,Win32,59.85873339,,,,,,,
,,,,,,,,,,,,,,,,,,,,,,40,23,20,75,63,40,32,-0.461111098,-0.375000026,1,0,0,0.5164,submitButton,37.5537037,0.287037072,-0.392592619,1,0,0,1,29,89,7,1,23,67627,blockP,180,2022-02-12_16h45.48.365,orientation adjustment blockP,2021.2.3,Win32,59.85873339,continueButton,,,,,,
,,,,,,,,,,,,,,,,,,,,,,-47.22222222,-48,20,75,-95.22222222,47.22222222,37.77777778,-0.217592573,-0.403703731,1,0,0,50.2507,submitButton,37.55665205,-0.217592573,-0.403703731,0,0,0,1,30,90,32,1,48,67627,blockP,180,2022-02-12_16h45.48.365,orientation adjustment blockP,2021.2.3,Win32,59.85873339,,,,,,,
,,,,,,,,,,,,,,,,,,,,,,21.11111111,-43,20,75,-21.88888889,21.11111111,13.72222222,-0.217592573,-0.403703731,1,0,0,57.2037,submitButton,37.247114,-0.217592573,-0.403703731,0,0,0,1,31,91,27,1,43,67627,blockP,180,2022-02-12_16h45.48.365,orientation adjustment blockP,2021.2.3,Win32,59.85873339,,,,,,,
,,,,,,,,,,,,,,,,,,,,,,-40.55555556,21,20,75,-19.55555556,40.55555556,32.44444444,-0.314814798,-0.403703731,1,0,0,1.1439,submitButton,37.18554131,-0.314814798,-0.403703731,0,0,0,1,32,92,5,1,21,67627,blockP,180,2022-02-12_16h45.48.365,orientation adjustment blockP,2021.2.3,Win32,59.85873339,,,,,,,
,,,,,,,,,,,,,,,,,,,,,,49.44444444,-59,20,75,-9.555555556,49.44444444,39.55555556,-0.314814798,-0.403703731,1,0,0,1.4834,submitButton,37.21554149,-0.314814798,-0.403703731,0,0,0,1,33,93,43,1,59,67627,blockP,180,2022-02-12_16h45.48.365,orientation adjustment blockP,2021.2.3,Win32,59.85873339,,,,,,,
,,,,,,,,,,,,,,,,,,,,,,68.88888889,32,20,75,100.8888889,68.88888889,58.55555556,-0.387037022,-0.400925953,1,0,0,64.8804,submitButton,37.48229167,-0.387037022,-0.400925953,0,0,0,1,34,94,16,1,32,67627,blockP,180,2022-02-12_16h45.48.365,orientation adjustment blockP,2021.2.3,Win32,59.85873339,,,,,,,
,,,,,,,,,,,,,,,,,,,,,,54.44444444,-33,20,75,21.44444444,54.44444444,46.27777778,-0.390740726,-0.384259286,1,0,0,0.8614,submitButton,37.59087791,-0.396296282,-0.387963046,0,0,0,1,35,95,17,1,33,67627,blockP,180,2022-02-12_16h45.48.365,orientation adjustment blockP,2021.2.3,Win32,59.85873339,,,,,,,
,,,,,,,,,,,,,,,,,,,,,,30.55555556,34,20,75,64.55555556,30.55555556,24.44444444,-0.557407398,-0.412037064,1,0,0,5.6099,submitButton,37.43055556,-0.557407398,-0.412037064,0,0,0,1,36,96,18,1,34,67627,blockP,180,2022-02-12_16h45.48.365,orientation adjustment blockP,2021.2.3,Win32,59.85873339,,,,,,,
,,,,,,,,,,,,,,,,,,,,,,-46.11111111,-56,20,75,-102.1111111,46.11111111,36.88888889,-0.552777768,-0.39629638,1,0,0,3.6457,submitButton,37.42402945,-0.552777768,-0.39629638,0,0,0,1,37,97,40,1,56,67627,blockP,180,2022-02-12_16h45.48.365,orientation adjustment blockP,2021.2.3,Win32,59.85873339,,,,,,,
,,,,,,,,,,,,,,,,,,,,,,72.77777778,39,20,75,111.7777778,72.77777778,65.5,-0.552777768,-0.39629638,1,0,0,15.1842,submitButton,37.7582672,-0.552777768,-0.39629638,0,0,0,1,38,98,23,1,39,67627,blockP,180,2022-02-12_16h45.48.365,orientation adjustment blockP,2021.2.3,Win32,59.85873339,,,,,,,
,,,,,,,,,,,,,,,,,,,,,,-70,-75,20,75,-145,70,63,-0.552777768,-0.39629638,1,0,0,0.5044,submitButton,38.05522876,-0.552777768,-0.39629638,0,0,0,1,39,99,59,1,75,67627,blockP,180,2022-02-12_16h45.48.365,orientation adjustment blockP,2021.2.3,Win32,59.85873339,,,,,,,
,,,,,,,,,,,,,,,,,,,,,,-23.33333333,-18,20,75,-41.33333333,23.33333333,15.16666667,-0.552777768,-0.39629638,1,0,0,1.0985,submitButton,37.78908269,-0.552777768,-0.39629638,0,0,0,1,40,100,2,1,18,67627,blockP,180,2022-02-12_16h45.48.365,orientation adjustment blockP,2021.2.3,Win32,59.85873339,,,,,,,
,,,,,,,,,,,,,,,,,,,,,,-40.55555556,-60,20,75,-100.5555556,40.55555556,32.44444444,-0.552777768,-0.39629638,1,0,0,0.6202,submitButton,37.72765006,-0.552777768,-0.39629638,0,0,0,1,41,101,44,1,60,67627,blockP,180,2022-02-12_16h45.48.365,orientation adjustment blockP,2021.2.3,Win32,59.85873339,,,,,,,
,,,,,,,,,,,,,,,,,,,,,,-21.66666667,55,20,75,33.33333333,21.66666667,14.08333333,-0.552777768,-0.39629638,1,0,0,0.767,submitButton,37.45896465,-0.552777768,-0.39629638,0,0,0,1,42,102,39,1,55,67627,blockP,180,2022-02-12_16h45.48.365,orientation adjustment blockP,2021.2.3,Win32,59.85873339,,,,,,,
,,,,,,,,,,,,,,,,,,,,,,35.55555556,-37,20,75,-1.444444444,35.55555556,28.44444444,-0.552777768,-0.39629638,1,0,0,0.4999,submitButton,37.3576779,-0.552777768,-0.39629638,0,0,0,1,43,103,21,1,37,67627,blockP,180,2022-02-12_16h45.48.365,orientation adjustment blockP,2021.2.3,Win32,59.85873339,,,,,,,
,,,,,,,,,,,,,,,,,,,,,,23.88888889,-17,20,75,6.888888889,23.88888889,15.52777778,-0.552777768,-0.39629638,1,0,0,1.5147,submitButton,37.11512346,0.456481522,-0.400000027,1,0,0,1,44,104,1,1,17,67627,blockP,180,2022-02-12_16h45.48.365,orientation adjustment blockP,2021.2.3,Win32,59.85873339,continueButton,,,,,,
,,,,,,,,,,,,,,,,,,,,,,44.44444444,-28,20,75,16.44444444,44.44444444,35.55555556,-0.437962921,-0.38240749,1,0,0,1.2326,submitButton,37.09798535,-0.437962921,-0.38240749,0,0,0,1,45,105,12,1,28,67627,blockP,180,2022-02-12_16h45.48.365,orientation adjustment blockP,2021.2.3,Win32,59.85873339,,,,,,,
,,,,,,,,,,,,,,,,,,,,,,-58.88888889,53,20,75,-5.888888889,58.88888889,50.05555556,-0.437962921,-0.38240749,1,0,0,44.0849,submitButton,37.2388285,-0.437962921,-0.38240749,0,0,0,1,46,106,37,1,53,67627,blockP,180,2022-02-12_16h45.48.365,orientation adjustment blockP,2021.2.3,Win32,59.85873339,,,,,,,
,,,,,,,,,,,,,,,,,,,,,,35,-51,20,75,-16,35,28,-0.437962921,-0.38240749,1,0,0,25.7553,submitButton,37.13948626,-0.437962921,-0.38240749,0,0,0,1,47,107,35,1,51,67627,blockP,180,2022-02-12_16h45.48.365,orientation adjustment blockP,2021.2.3,Win32,59.85873339,,,,,,,
,,,,,,,,,,,,,,,,,,,,,,27.77777778,22,20,75,49.77777778,27.77777778,18.05555556,-0.437962921,-0.38240749,1,0,0,11.6546,submitButton,36.93646572,-0.437962921,-0.38240749,0,0,0,1,48,108,6,1,22,67627,blockP,180,2022-02-12_16h45.48.365,orientation adjustment blockP,2021.2.3,Win32,59.85873339,,,,,,,
,,,,,,,,,,,,,,,,,,,,,,29.44444444,-45,20,75,-15.55555556,29.44444444,19.13888889,-0.437962921,-0.38240749,1,0,0,6.5765,submitButton,36.74912281,-0.437962921,-0.38240749,0,0,0,1,49,109,29,1,45,67627,blockP,180,2022-02-12_16h45.48.365,orientation adjustment blockP,2021.2.3,Win32,59.85873339,,,,,,,
,,,,,,,,,,,,,,,,,,,,,,-25,54,20,75,29,25,16.25,-0.437962921,-0.38240749,1,0,0,41.5719,submitButton,36.53559028,-0.437962921,-0.38240749,0,0,0,1,50,110,38,1,54,67627,blockP,180,2022-02-12_16h45.48.365,orientation adjustment blockP,2021.2.3,Win32,59.85873339,,,,,,,
,,,,,,,,,,,,,,,,,,,,,,72.77777778,38,20,75,110.7777778,72.77777778,65.5,-0.437962921,-0.38240749,1,0,0,15.0168,submitButton,36.83419244,-0.437962921,-0.38240749,0,0,0,1,51,111,22,1,38,67627,blockP,180,2022-02-12_16h45.48.365,orientation adjustment blockP,2021.2.3,Win32,59.85873339,,,,,,,
,,,,,,,,,,,,,,,,,,,,,,-55.55555556,-42,20,75,-97.55555556,55.55555556,47.22222222,-0.437962921,-0.38240749,1,0,0,47.9142,submitButton,36.94019274,-0.437962921,-0.38240749,0,0,0,1,52,112,26,1,42,67627,blockP,180,2022-02-12_16h45.48.365,orientation adjustment blockP,2021.2.3,Win32,59.85873339,,,,,,,
,,,,,,,,,,,,,,,,,,,,,,33.33333333,-41,20,75,-7.666666667,33.33333333,26.66666667,-0.437962921,-0.38240749,1,0,0,5.2271,submitButton,36.83641975,-0.437962921,-0.38240749,0,0,0,1,53,113,25,1,41,67627,blockP,180,2022-02-12_16h45.48.365,orientation adjustment blockP,2021.2.3,Win32,59.85873339,,,,,,,
,,,,,,,,,,,,,,,,,,,,,,29.44444444,-31,20,75,-1.555555556,29.44444444,19.13888889,-0.437962921,-0.38240749,1,0,0,7.6586,submitButton,36.65944444,-0.437962921,-0.38240749,0,0,0,1,54,114,15,1,31,67627,blockP,180,2022-02-12_16h45.48.365,orientation adjustment blockP,2021.2.3,Win32,59.85873339,,,,,,,
,,,,,,,,,,,,,,,,,,,,,,-38.33333333,24,20,75,-14.33333333,38.33333333,30.66666667,-0.437962921,-0.38240749,1,0,0,0.8825,submitButton,36.60011001,-0.437962921,-0.38240749,0,0,0,1,55,115,8,1,24,67627,blockP,180,2022-02-12_16h45.48.365,orientation adjustment blockP,2021.2.3,Win32,59.85873339,,,,,,,
,,,,,,,,,,,,,,,,,,,,,,37.77777778,61,20,75,98.77777778,37.77777778,30.22222222,-0.438888875,-0.38240749,1,0,0,8.9904,submitButton,36.5375817,-0.438888875,-0.38240749,0,0,0,1,56,116,45,1,61,67627,blockP,180,2022-02-12_16h45.48.365,orientation adjustment blockP,2021.2.3,Win32,59.85873339,,,,,,,
,,,,,,,,,,,,,,,,,,,,,,50,44,20,75,94,50,42.5,-0.437037024,-0.380555582,1,0,0,5.0118,submitButton,36.59546926,-0.437037024,-0.380555582,0,0,0,1,57,117,28,1,44,67627,blockP,180,2022-02-12_16h45.48.365,orientation adjustment blockP,2021.2.3,Win32,59.85873339,,,,,,,
,,,,,,,,,,,,,,,,,,,,,,-64.44444444,35,20,75,-29.44444444,64.44444444,54.77777778,-0.437037024,-0.380555582,1,0,0,1.4314,submitButton,36.77029915,-0.437037024,-0.380555582,0,0,0,1,58,118,19,1,35,67627,blockP,180,2022-02-12_16h45.48.365,orientation adjustment blockP,2021.2.3,Win32,59.85873339,,,,,,,
,,,,,,,,,,,,,,,,,,,,,,42.22222222,-65,20,75,-22.77777778,42.22222222,33.77777778,-0.437037024,-0.380555582,1,0,0,0.6319,submitButton,36.74179894,0.275925961,-0.415740825,1,0,0,1,59,119,49,1,65,67627,blockP,180,2022-02-12_16h45.48.365,orientation adjustment blockP,2021.2.3,Win32,59.85873339,continueButton,,,,,,
,,,,,,,,,,,,,,,,,,,,,,48.33333333,20,20,75,68.33333333,48.33333333,38.66666667,-0.310185168,-0.39629638,1,0,0,2.0766,submitButton,36.75995807,-0.310185168,-0.39629638,0,0,0,2,0,120,4,1,20,67627,blockP,180,2022-02-12_16h45.48.365,orientation adjustment blockP,2021.2.3,Win32,59.85873339,,,,,,,
,,,,,,,,,,,,,,,,,,,,,,-41.66666667,53,20,75,11.33333333,41.66666667,33.33333333,-0.310185168,-0.39629638,1,0,0,3.8626,submitButton,36.72793354,-0.310185168,-0.39629638,0,0,0,2,1,121,37,1,53,67627,blockP,180,2022-02-12_16h45.48.365,orientation adjustment blockP,2021.2.3,Win32,59.85873339,,,,,,,
,,,,,,,,,,,,,,,,,,,,,,21.66666667,-61,20,75,-39.33333333,21.66666667,14.08333333,-0.310185168,-0.39629638,1,0,0,37.459,submitButton,36.51826132,-0.310185168,-0.39629638,0,0,0,2,2,122,45,1,61,67627,blockP,180,2022-02-12_16h45.48.365,orientation adjustment blockP,2021.2.3,Win32,59.85873339,,,,,,,
,,,,,,,,,,,,,,,,,,,,,,-25,-17,20,75,-42,25,16.25,-0.310185168,-0.39629638,1,0,0,8.9881,submitButton,36.33231397,-0.310185168,-0.39629638,0,0,0,2,3,123,1,1,17,67627,blockP,180,2022-02-12_16h45.48.365,orientation adjustment blockP,2021.2.3,Win32,59.85873339,,,,,,,
,,,,,,,,,,,,,,,,,,,,,,29.44444444,-36,20,75,-6.555555556,29.44444444,19.13888889,-0.299074056,-0.389814841,1,0,0,108.5638,submitButton,36.1760101,-0.299074056,-0.389814841,0,0,0,2,4,124,20,1,36,67627,blockP,180,2022-02-12_16h45.48.365,orientation adjustment blockP,2021.2.3,Win32,59.85873339,,,,,,,
,,,,,,,,,,,,,,,,,,,,,,62.77777778,-24,20,75,38.77777778,62.77777778,53.36111111,-0.335185169,-0.387963046,1,0,0,0.5663,submitButton,36.33083083,-0.335185169,-0.387963046,0,0,0,2,5,125,8,1,24,67627,blockP,180,2022-02-12_16h45.48.365,orientation adjustment blockP,2021.2.3,Win32,59.85873339,,,,,,,
,,,,,,,,,,,,,,,,,,,,,,-62.22222222,72,20,75,9.777777778,62.22222222,52.88888889,-0.338888872,-0.401851935,1,0,0,2.4968,submitButton,36.47867063,-0.338888872,-0.401851935,0,0,0,2,6,126,56,1,72,67627,blockP,180,2022-02-12_16h45.48.365,orientation adjustment blockP,2021.2.3,Win32,59.85873339,,,,,,,
,,,,,,,,,,,,,,,,,,,,,,-43.33333333,-62,20,75,-105.3333333,43.33333333,34.66666667,-0.338888872,-0.401851935,1,0,0,3.0302,submitButton,36.4626352,-0.338888872,-0.401851935,0,0,0,2,7,127,46,1,62,67627,blockP,180,2022-02-12_16h45.48.365,orientation adjustment blockP,2021.2.3,Win32,59.85873339,,,,,,,
,,,,,,,,,,,,,,,,,,,,,,73.88888889,-27,20,75,46.88888889,73.88888889,66.5,-0.334259243,-0.414814842,1,0,0,6.3599,submitButton,36.72612086,-0.334259243,-0.414814842,0,0,0,2,8,128,11,1,27,67627,blockP,180,2022-02-12_16h45.48.365,orientation adjustment blockP,2021.2.3,Win32,59.85873339,,,,,,,
,,,,,,,,,,,,,,,,,,,,,,49.44444444,-48,20,75,1.444444444,49.44444444,39.55555556,-0.334259243,-0.414814842,1,0,0,8.041,submitButton,36.75072464,-0.334259243,-0.414814842,0,0,0,2,9,129,32,1,48,67627,blockP,180,2022-02-12_16h45.48.365,orientation adjustment blockP,2021.2.3,Win32,59.85873339,,,,,,,
,,,,,,,,,,,,,,,,,,,,,,21.66666667,-29,20,75,-7.333333333,21.66666667,14.08333333,-0.334259243,-0.414814842,1,0,0,6.8759,submitButton,36.55531609,-0.334259243,-0.414814842,0,0,0,2,10,130,13,1,29,67627,blockP,180,2022-02-12_16h45.48.365,orientation adjustment blockP,2021.2.3,Win32,59.85873339,,,,,,,
,,,,,,,,,,,,,,,,,,,,,,22.22222222,-50,20,75,-27.77777778,22.22222222,14.44444444,-0.334259243,-0.414814842,1,0,0,12.2537,submitButton,36.36633428,-0.334259243,-0.414814842,0,0,0,2,11,131,34,1,50,67627,blockP,180,2022-02-12_16h45.48.365,orientation adjustment blockP,2021.2.3,Win32,59.85873339,,,,,,,
,,,,,,,,,,,,,,,,,,,,,,-40,-23,20,75,-63,40,32,-0.334259243,-0.410185269,1,0,0,2.2976,submitButton,36.32933145,-0.334259243,-0.410185269,0,0,0,2,12,132,7,1,23,67627,blockP,180,2022-02-12_16h45.48.365,orientation adjustment blockP,2021.2.3,Win32,59.85873339,,,,,,,
,,,,,,,,,,,,,,,,,,,,,,-33.88888889,44,20,75,10.11111111,33.88888889,27.11111111,-0.333333317,-0.406481508,1,0,0,51.8482,submitButton,36.25186741,-0.333333317,-0.406481508,0,0,0,2,13,133,28,1,44,67627,blockP,180,2022-02-12_16h45.48.365,orientation adjustment blockP,2021.2.3,Win32,59.85873339,,,,,,,
,,,,,,,,,,,,,,,,,,,,,,-24.44444444,25,20,75,0.555555556,24.44444444,15.88888889,-0.333333317,-0.406481508,1,0,0,1.316,submitButton,36.08217593,0.297222258,-0.410185269,1,0,0,2,14,134,9,1,25,67627,blockP,180,2022-02-12_16h45.48.365,orientation adjustment blockP,2021.2.3,Win32,59.85873339,continueButton,,,,,,
,,,,,,,,,,,,,,,,,,,,,,-66.66666667,66,20,75,-0.666666667,66.66666667,56.66666667,-0.27777776,-0.384259286,1,0,0,2.1686,submitButton,36.25229568,-0.27777776,-0.384259286,0,0,0,2,15,135,50,1,66,67627,blockP,180,2022-02-12_16h45.48.365,orientation adjustment blockP,2021.2.3,Win32,59.85873339,,,,,,,
,,,,,,,,,,,,,,,,,,,,,,-73.88888889,-65,20,75,-125.8888889,60.88888889,51.75555556,0.199074106,-0.277777801,1,0,0,0.0163,submitButton,36.37937158,-0.262962944,-0.385185268,0,0,0,2,16,136,49,1,65,67627,blockP,180,2022-02-12_16h45.48.365,orientation adjustment blockP,2021.2.3,Win32,59.85873339,,,,,,,
,,,,,,,,,,,,,,,,,,,,,,55,45,20,75,100,55,46.75,-0.262962944,-0.385185268,1,0,0,0.8817,submitButton,36.46368564,-0.262962944,-0.385185268,0,0,0,2,17,137,29,1,45,67627,blockP,180,2022-02-12_16h45.48.365,orientation adjustment blockP,2021.2.3,Win32,59.85873339,,,,,,,
,,,,,,,,,,,,,,,,,,,,,,-31.11111111,42,20,75,10.88888889,31.11111111,24.88888889,-0.262962944,-0.385185268,1,0,0,0.5834,submitButton,36.3703405,-0.262962944,-0.385185268,0,0,0,2,18,138,26,1,42,67627,blockP,180,2022-02-12_16h45.48.365,orientation adjustment blockP,2021.2.3,Win32,59.85873339,,,,,,,
,,,,,,,,,,,,,,,,,,,,,,-38.33333333,73,20,75,34.66666667,38.33333333,30.66666667,-0.262962944,-0.385185268,1,0,0,0.5665,submitButton,36.32471111,-0.262962944,-0.385185268,0,0,0,2,19,139,57,1,73,67627,blockP,180,2022-02-12_16h45.48.365,orientation adjustment blockP,2021.2.3,Win32,59.85873339,,,,,,,
,,,,,,,,,,,,,,,,,,,,,,-58.88888889,-47,20,75,-105.8888889,58.88888889,50.05555556,-0.262962944,-0.385185268,1,0,0,0.5542,submitButton,36.43368607,-0.262962944,-0.385185268,0,0,0,2,20,140,31,1,47,67627,blockP,180,2022-02-12_16h45.48.365,orientation adjustment blockP,2021.2.3,Win32,59.85873339,,,,,,,
,,,,,,,,,,,,,,,,,,,,,,46.66666667,43,20,75,89.66666667,46.66666667,37.33333333,-0.262962944,-0.385185268,1,0,0,306.6799,submitButton,36.4407699,-0.262962944,-0.385185268,0,0,0,2,21,141,27,1,43,67627,blockP,180,2022-02-12_16h45.48.365,orientation adjustment blockP,2021.2.3,Win32,59.85873339,,,,,,,
,,,,,,,,,,,,,,,,,,,,,,-27.77777778,52,20,75,24.22222222,27.77777778,18.05555556,-0.262962944,-0.385185268,1,0,0,2.2313,submitButton,36.29713542,-0.262962944,-0.385185268,0,0,0,2,22,142,36,1,52,67627,blockP,180,2022-02-12_16h45.48.365,orientation adjustment blockP,2021.2.3,Win32,59.85873339,,,,,,,
,,,,,,,,,,,,,,,,,,,,,,51.66666667,51,20,75,102.6666667,51.66666667,43.91666667,-0.262962944,-0.385185268,1,0,0,0.5662,submitButton,36.35620155,-0.262962944,-0.385185268,0,0,0,2,23,143,35,1,51,67627,blockP,180,2022-02-12_16h45.48.365,orientation adjustment blockP,2021.2.3,Win32,59.85873339,,,,,,,
,,,,,,,,,,,,,,,,,,,,,,62.77777778,-31,20,75,31.77777778,62.77777778,53.36111111,-0.262962944,-0.385185268,1,0,0,6.0268,submitButton,36.48700855,-0.291666649,-0.367592618,0,0,0,2,24,144,15,1,31,67627,blockP,180,2022-02-12_16h45.48.365,orientation adjustment blockP,2021.2.3,Win32,59.85873339,,,,,,,
,,,,,,,,,,,,,,,,,,,,,,39.44444444,39,20,75,78.44444444,39.44444444,31.55555556,-0.288888871,-0.368518601,1,0,0,4.3495,submitButton,36.44936387,-0.319444427,-0.390740824,0,0,0,2,25,145,23,1,39,67627,blockP,180,2022-02-12_16h45.48.365,orientation adjustment blockP,2021.2.3,Win32,59.85873339,,,,,,,
,,,,,,,,,,,,,,,,,,,,,,-39.44444444,32,20,75,-7.444444444,39.44444444,31.55555556,-0.319444427,-0.390740824,1,0,0,6.209,submitButton,36.41228956,-0.319444427,-0.390740824,0,0,0,2,26,146,16,1,32,67627,blockP,180,2022-02-12_16h45.48.365,orientation adjustment blockP,2021.2.3,Win32,59.85873339,,,,,,,
,,,,,,,,,,,,,,,,,,,,,,-49.44444444,55,20,75,5.555555556,49.44444444,39.55555556,-0.319444427,-0.390740824,1,0,0,1.4811,submitButton,36.43592314,-0.319444427,-0.390740824,0,0,0,2,27,147,39,1,55,67627,blockP,180,2022-02-12_16h45.48.365,orientation adjustment blockP,2021.2.3,Win32,59.85873339,,,,,,,
,,,,,,,,,,,,,,,,,,,,,,-62.22222222,49,20,75,-13.22222222,62.22222222,52.88888889,-0.319444427,-0.390740824,1,0,0,17.6134,submitButton,36.55870647,-0.319444427,-0.390740824,0,0,0,2,28,148,33,1,49,67627,blockP,180,2022-02-12_16h45.48.365,orientation adjustment blockP,2021.2.3,Win32,59.85873339,,,,,,,
,,,,,,,,,,,,,,,,,,,,,,-41.11111111,60,20,75,18.88888889,41.11111111,32.88888889,-0.319444427,-0.390740824,1,0,0,8.6237,submitButton,36.53152263,0.330555592,-0.398148175,1,0,0,2,29,149,44,1,60,67627,blockP,180,2022-02-12_16h45.48.365,orientation adjustment blockP,2021.2.3,Win32,59.85873339,continueButton,,,,,,
,,,,,,,,,,,,,,,,,,,,,,53.88888889,-63,20,75,-9.111111111,53.88888889,45.80555556,-0.425925912,-0.398148175,1,0,0,1.6643,submitButton,36.59971405,-0.425925912,-0.398148175,0,0,0,2,30,150,47,1,63,67627,blockP,180,2022-02-12_16h45.48.365,orientation adjustment blockP,2021.2.3,Win32,59.85873339,,,,,,,
,,,,,,,,,,,,,,,,,,,,,,48.33333333,75,20,75,123.3333333,48.33333333,38.66666667,-0.425925912,-0.398148175,1,0,0,1.9647,submitButton,36.6148013,-0.425925912,-0.398148175,0,0,0,2,31,151,59,1,75,67627,blockP,180,2022-02-12_16h45.48.365,orientation adjustment blockP,2021.2.3,Win32,59.85873339,,,,,,,
,,,,,,,,,,,,,,,,,,,,,,-67.22222222,-26,20,75,-93.22222222,67.22222222,57.13888889,-0.425925912,-0.398148175,1,0,0,0.816,submitButton,36.76352657,-0.425925912,-0.398148175,0,0,0,2,32,152,10,1,26,67627,blockP,180,2022-02-12_16h45.48.365,orientation adjustment blockP,2021.2.3,Win32,59.85873339,,,,,,,
,,,,,,,,,,,,,,,,,,,,,,70.55555556,-16,20,75,54.55555556,70.55555556,63.5,-0.425925912,-0.398148175,1,0,0,4.1295,submitButton,36.9558753,-0.425925912,-0.398148175,0,0,0,2,33,153,0,1,16,67627,blockP,180,2022-02-12_16h45.48.365,orientation adjustment blockP,2021.2.3,Win32,59.85873339,,,,,,,
,,,,,,,,,,,,,,,,,,,,,,28.33333333,69,20,75,97.33333333,28.33333333,18.41666667,-0.425925912,-0.398148175,1,0,0,11.3711,submitButton,36.82345238,-0.425925912,-0.398148175,0,0,0,2,34,154,53,1,69,67627,blockP,180,2022-02-12_16h45.48.365,orientation adjustment blockP,2021.2.3,Win32,59.85873339,,,,,,,
,,,,,,,,,,,,,,,,,,,,,,-27.22222222,28,20,75,0.777777778,27.22222222,17.69444444,-0.42870369,-0.406481508,1,0,0,1.6982,submitButton,36.68778566,-0.42870369,-0.406481508,0,0,0,2,35,155,12,1,28,67627,blockP,180,2022-02-12_16h45.48.365,orientation adjustment blockP,2021.2.3,Win32,59.85873339,,,,,,,
,,,,,,,,,,,,,,,,,,,,,,-66.11111111,-54,20,75,-120.1111111,66.11111111,56.19444444,-0.42870369,-0.406481508,1,0,0,2.3641,submitButton,36.82515649,-0.42870369,-0.406481508,0,0,0,2,36,156,38,1,54,67627,blockP,180,2022-02-12_16h45.48.365,orientation adjustment blockP,2021.2.3,Win32,59.85873339,,,,,,,
,,,,,,,,,,,,,,,,,,,,,,-37.22222222,70,20,75,32.77777778,37.22222222,29.77777778,-0.464814802,-0.401851935,1,0,0,0.4992,submitButton,36.77587413,-0.464814802,-0.401851935,0,0,0,2,37,157,54,1,70,67627,blockP,180,2022-02-12_16h45.48.365,orientation adjustment blockP,2021.2.3,Win32,59.85873339,,,,,,,
,,,,,,,,,,,,,,,,,,,,,,-53.88888889,-19,20,75,-72.88888889,53.88888889,45.80555556,-0.464814802,-0.401851935,1,0,0,1.5984,submitButton,36.83858025,-0.464814802,-0.401851935,0,0,0,2,38,158,3,1,19,67627,blockP,180,2022-02-12_16h45.48.365,orientation adjustment blockP,2021.2.3,Win32,59.85873339,,,,,,,
,,,,,,,,,,,,,,,,,,,,,,25,33,20,75,58,25,16.25,-0.464814802,-0.401851935,1,0,0,0.583,submitButton,36.69659004,-0.464814802,-0.401851935,0,0,0,2,39,159,17,1,33,67627,blockP,180,2022-02-12_16h45.48.365,orientation adjustment blockP,2021.2.3,Win32,59.85873339,,,,,,,
,,,,,,,,,,,,,,,,,,,,,,26.11111111,64,20,75,90.11111111,26.11111111,16.97222222,-0.464814802,-0.401851935,1,0,0,18.7623,submitButton,36.56149163,-0.464814802,-0.401851935,0,0,0,2,40,160,48,1,64,67627,blockP,180,2022-02-12_16h45.48.365,orientation adjustment blockP,2021.2.3,Win32,59.85873339,,,,,,,
,,,,,,,,,,,,,,,,,,,,,,-61.11111111,-67,20,75,-128.1111111,61.11111111,51.94444444,-0.464814802,-0.401851935,1,0,0,0.533,submitButton,36.66613757,-0.464814802,-0.401851935,0,0,0,2,41,161,51,1,67,67627,blockP,180,2022-02-12_16h45.48.365,orientation adjustment blockP,2021.2.3,Win32,59.85873339,,,,,,,
,,,,,,,,,,,,,,,,,,,,,,75,-38,20,75,37,75,67.5,-0.464814802,-0.401851935,1,0,0,0.1335,submitButton,36.87447447,-0.464814802,-0.401851935,0,0,0,2,42,162,22,1,38,67627,blockP,180,2022-02-12_16h45.48.365,orientation adjustment blockP,2021.2.3,Win32,59.85873339,,,,,,,
,,,,,,,,,,,,,,,,,,,,,,-71.66666667,-34,20,75,-105.6666667,71.66666667,64.5,-0.464814802,-0.401851935,1,0,0,3.3134,submitButton,37.05988069,-0.464814802,-0.401851935,0,0,0,2,43,163,18,1,34,67627,blockP,180,2022-02-12_16h45.48.365,orientation adjustment blockP,2021.2.3,Win32,59.85873339,,,,,,,
,,,,,,,,,,,,,,,,,,,,,,33.33333333,18,20,75,51.33333333,33.33333333,26.66666667,-0.464814802,-0.401851935,1,0,0,1.0657,submitButton,36.99059259,0.430555595,-0.388888915,1,0,0,2,44,164,2,1,18,67627,blockP,180,2022-02-12_16h45.48.365,orientation adjustment blockP,2021.2.3,Win32,59.85873339,continueButton,,,,,,
,,,,,,,,,,,,,,,,,,,,,,68.88888889,30,20,75,98.88888889,68.88888889,58.55555556,-0.236111092,-0.415740825,1,0,0,4.4627,submitButton,37.13340692,-0.249999981,-0.409259286,0,0,0,2,45,165,14,1,30,67627,blockP,180,2022-02-12_16h45.48.365,orientation adjustment blockP,2021.2.3,Win32,59.85873339,,,,,,,
,,,,,,,,,,,,,,,,,,,,,,30.55555556,59,20,75,89.55555556,30.55555556,24.44444444,-0.319444427,-0.39629638,1,0,0,0.6659,submitButton,37.0499269,-0.319444427,-0.39629638,0,0,0,2,46,166,43,1,59,67627,blockP,180,2022-02-12_16h45.48.365,orientation adjustment blockP,2021.2.3,Win32,59.85873339,,,,,,,
,,,,,,,,,,,,,,,,,,,,,,43.33333333,-68,20,75,-24.66666667,43.33333333,34.66666667,-0.349074058,-0.389814841,1,0,0,1.131,submitButton,37.03435004,-0.349074058,-0.389814841,0,0,0,2,47,167,52,1,68,67627,blockP,180,2022-02-12_16h45.48.365,orientation adjustment blockP,2021.2.3,Win32,59.85873339,,,,,,,
,,,,,,,,,,,,,,,,,,,,,,62.77777778,71,20,75,133.7777778,62.77777778,53.36111111,-0.35555554,-0.400000027,1,0,0,2.2978,submitButton,37.14036797,-0.35555554,-0.400000027,0,0,0,2,48,168,55,1,71,67627,blockP,180,2022-02-12_16h45.48.365,orientation adjustment blockP,2021.2.3,Win32,59.85873339,,,,,,,
,,,,,,,,,,,,,,,,,,,,,,69.44444444,41,20,75,110.4444444,69.44444444,59.02777778,-0.35555554,-0.400000027,1,0,0,2.0473,submitButton,37.28157706,-0.35555554,-0.400000027,0,0,0,2,49,169,25,1,41,67627,blockP,180,2022-02-12_16h45.48.365,orientation adjustment blockP,2021.2.3,Win32,59.85873339,,,,,,,
,,,,,,,,,,,,,,,,,,,,,,-43.33333333,58,20,75,14.66666667,43.33333333,34.66666667,-0.38518517,-0.406481508,1,0,0,4.8951,submitButton,37.26481481,-0.38518517,-0.406481508,0,0,0,2,50,170,42,1,58,67627,blockP,180,2022-02-12_16h45.48.365,orientation adjustment blockP,2021.2.3,Win32,59.85873339,,,,,,,
,,,,,,,,,,,,,,,,,,,,,,-22.77777778,-56,20,75,-78.77777778,22.77777778,14.80555556,-0.384259244,-0.405555583,1,0,0,0.4997,submitButton,37.12176221,-0.384259244,-0.405555583,0,0,0,2,51,171,40,1,56,67627,blockP,180,2022-02-12_16h45.48.365,orientation adjustment blockP,2021.2.3,Win32,59.85873339,,,,,,,
,,,,,,,,,,,,,,,,,,,,,,-64.44444444,22,20,75,-42.44444444,64.44444444,54.77777778,-0.384259244,-0.405555583,1,0,0,3.7791,submitButton,37.23350914,-0.384259244,-0.405555583,0,0,0,2,52,172,6,1,22,67627,blockP,180,2022-02-12_16h45.48.365,orientation adjustment blockP,2021.2.3,Win32,59.85873339,,,,,,,
,,,,,,,,,,,,,,,,,,,,,,73.88888889,-74,20,75,-0.111111111,73.88888889,66.5,-0.384259244,-0.405555583,1,0,0,2.3978,submitButton,37.41757512,-0.384259244,-0.405555583,0,0,0,2,53,173,58,1,74,67627,blockP,180,2022-02-12_16h45.48.365,orientation adjustment blockP,2021.2.3,Win32,59.85873339,,,,,,,
,,,,,,,,,,,,,,,,,,,,,,40.55555556,-35,20,75,5.555555556,40.55555556,32.44444444,-0.384259244,-0.405555583,1,0,0,7.6081,submitButton,37.38649306,-0.384259244,-0.405555583,0,0,0,2,54,174,19,1,35,67627,blockP,180,2022-02-12_16h45.48.365,orientation adjustment blockP,2021.2.3,Win32,59.85873339,,,,,,,
,,,,,,,,,,,,,,,,,,,,,,20,46,20,75,66,20,13,-0.384259244,-0.405555583,1,0,0,24.3401,submitButton,37.23502415,-0.384259244,-0.405555583,0,0,0,2,55,175,30,1,46,67627,blockP,180,2022-02-12_16h45.48.365,orientation adjustment blockP,2021.2.3,Win32,59.85873339,,,,,,,
,,,,,,,,,,,,,,,,,,,,,,-67.22222222,-21,20,75,-88.22222222,67.22222222,57.13888889,-0.384259244,-0.405555583,1,0,0,8.8403,submitButton,37.35788752,-0.384259244,-0.405555583,0,0,0,2,56,176,5,1,21,67627,blockP,180,2022-02-12_16h45.48.365,orientation adjustment blockP,2021.2.3,Win32,59.85873339,,,,,,,
,,,,,,,,,,,,,,,,,,,,,,60,-57,20,75,3,60,51,-0.384259244,-0.405555583,1,0,0,7.3925,submitButton,37.44158146,-0.384259244,-0.405555583,0,0,0,2,57,177,41,1,57,67627,blockP,180,2022-02-12_16h45.48.365,orientation adjustment blockP,2021.2.3,Win32,59.85873339,,,,,,,
,,,,,,,,,,,,,,,,,,,,,,-42.77777778,-37,20,75,-79.77777778,42.77777778,34.22222222,-0.384259244,-0.405555583,1,0,0,0.5494,submitButton,37.42195122,-0.384259244,-0.405555583,0,0,0,2,58,178,21,1,37,67627,blockP,180,2022-02-12_16h45.48.365,orientation adjustment blockP,2021.2.3,Win32,59.85873339,,,,,,,
,,,,,,,,,,,,,,,,,,,,,,27.77777778,40,20,75,67.77777778,27.77777778,18.05555556,-0.384259244,-0.405555583,1,0,0,6.0103,submitButton,37.30457912,-0.384259244,-0.405555583,0,0,0,2,59,179,24,1,40,67627,blockP,180,2022-02-12_16h45.48.365,orientation adjustment blockP,2021.2.3,Win32,59.85873339,,,,,,,
,,,,,,,,,,,,,,,,,,,,,,,,,,,,,,,,,,,,,,,,,,,,,,,,67627,blockP,180,2022-02-12_16h45.48.365,orientation adjustment blockP,2021.2.3,Win32,59.85873339,,0.210185218,-0.386111138,1,0,0,EndButtonTxt
