consentMouse1.x,consentMouse1.y,consentMouse1.leftButton,consentMouse1.midButton,consentMouse1.rightButton,consentMouse1.clicked_name,consent_Mouse.x,consent_Mouse.y,consent_Mouse.leftButton,consent_Mouse.midButton,consent_Mouse.rightButton,consent_Mouse.clicked_name,startMouse.x,startMouse.y,startMouse.leftButton,startMouse.midButton,startMouse.rightButton,startMouse_2.x,startMouse_2.y,startMouse_2.leftButton,startMouse_2.midButton,startMouse_2.rightButton,start_distance,fixedOri,minimalDistance,maxOri,this_ori,accuracy,presented_accuracy,submitMouse.x,submitMouse.y,submitMouse.leftButton,submitMouse.midButton,submitMouse.rightButton,submitMouse.time,submitMouse.clicked_name,block_accuracy,continueMouse.x,continueMouse.y,continueMouse.leftButton,continueMouse.midButton,continueMouse.rightButton,trials.thisRepN,trials.thisTrialN,trials.thisN,trials.thisIndex,trials.ran,startOri,participant,condition,nTrials,date,expName,psychopyVersion,OS,frameRate,continueMouse.clicked_name,EndButtonMouse.x,EndButtonMouse.y,EndButtonMouse.leftButton,EndButtonMouse.midButton,EndButtonMouse.rightButton,EndButtonMouse.clicked_name
0.385772914,-0.394664843,1,0,0,consent_button1,0.381668947,-0.397400821,1,0,0,consent_button,0.496580027,-0.259233926,1,0,0,0.399452804,-0.331737346,1,0,0,43.88888889,41,20,75,9.888888889,31.11111111,24.88888889,0.445964432,-0.294801642,1,0,0,5.649,submitButton,24.88888889,-0.265389877,-0.423392613,0,0,0,0,0,0,25,1,41,67708,blockP,180,2022-02-21_11h53.29,orientation adjustment blockP,2021.2.3,MacIntel,50,,,,,,,
,,,,,,,,,,,,,,,,,,,,,,-69.44444444,56,20,75,28.55555556,27.44444444,17.83888889,0.201094391,-0.292065663,1,0,0,0.198,submitButton,21.36388889,-0.229822161,-0.4124487,0,0,0,0,1,1,40,1,56,67708,blockP,180,2022-02-21_11h53.29,orientation adjustment blockP,2021.2.3,MacIntel,50,,,,,,,
,,,,,,,,,,,,,,,,,,,,,,69.44444444,17,20,75,51.44444444,34.44444444,27.55555556,0.439124487,-0.296169631,1,0,0,1.496,submitButton,23.42777778,-0.214774282,-0.389192886,0,0,0,0,2,2,1,1,17,67708,blockP,180,2022-02-21_11h53.29,orientation adjustment blockP,2021.2.3,MacIntel,50,,,,,,,
,,,,,,,,,,,,,,,,,,,,,,32.22222222,-32,20,75,-37.77777778,5.777777778,2.311111111,0.414500684,-0.289329685,1,0,0,0.112,submitButton,2.311111111,-0.184678523,-0.397400821,0,0,0,0,3,3,16,1,32,67708,blockP,180,2022-02-21_11h53.29,orientation adjustment blockP,2021.2.3,MacIntel,50,,,,,,,
,,,,,,,,,,,,,,,,,,,,,,69.44444444,53,20,75,222.4444444,10.55555556,4.222222222,0.203830369,-0.298905609,1,0,0,1.256,submitButton,3.266666667,-0.198358413,-0.401504788,0,0,0,0,4,4,37,1,53,67708,blockP,180,2022-02-21_11h53.29,orientation adjustment blockP,2021.2.3,MacIntel,50,,,,,,,
,,,,,,,,,,,,,,,,,,,,,,-48.88888889,34,20,75,34.11111111,0.111111111,0.044444444,-0.176470588,-0.413816689,1,0,0,1.146,submitButton,2.192592593,-0.176470588,-0.413816689,0,0,0,0,5,5,18,1,34,67708,blockP,180,2022-02-21_11h53.29,orientation adjustment blockP,2021.2.3,MacIntel,50,,,,,,,
,,,,,,,,,,,,,,,,,,,,,,58.33333333,-75,20,75,-75.66666667,0.666666667,0.266666667,0.39124487,-0.301641587,1,0,0,0.638,submitButton,0.266666667,-0.20246238,-0.401504788,0,0,0,0,6,6,59,1,75,67708,blockP,180,2022-02-21_11h53.29,orientation adjustment blockP,2021.2.3,MacIntel,50,,,,,,,
,,,,,,,,,,,,,,,,,,,,,,30,-60,20,75,-48,12,4.8,0.195622435,-0.298905609,1,0,0,0.738,submitButton,2.533333333,-0.186046512,-0.415184679,0,0,0,0,7,7,44,1,60,67708,blockP,180,2022-02-21_11h53.29,orientation adjustment blockP,2021.2.3,MacIntel,50,,,,,,,
,,,,,,,,,,,,,,,,,,,,,,23.88888889,49,20,75,65.88888889,16.88888889,10.97777778,0.409028728,-0.292065663,1,0,0,0.114,submitButton,5.348148148,-0.195622435,-0.379616963,0,0,0,0,8,8,33,1,49,67708,blockP,180,2022-02-21_11h53.29,orientation adjustment blockP,2021.2.3,MacIntel,50,,,,,,,
,,,,,,,,,,,,,,,,,,,,,,34.44444444,48,20,75,60.44444444,12.44444444,4.977777778,0.418604651,-0.309849521,1,0,0,0.269,submitButton,4.977777778,-0.254445964,-0.393296854,0,0,0,0,9,9,32,1,48,67708,blockP,180,2022-02-21_11h53.29,orientation adjustment blockP,2021.2.3,MacIntel,50,,,,,,,
,,,,,,,,,,,,,,,,,,,,,,-51.11111111,39,20,75,37.88888889,1.111111111,0.444444444,0.229822161,-0.334473324,1,0,0,0.096,submitButton,2.711111111,-0.169630643,-0.391928865,0,0,0,0,10,10,23,1,39,67708,blockP,180,2022-02-21_11h53.29,orientation adjustment blockP,2021.2.3,MacIntel,50,,,,,,,
,,,,,,,,,,,,,,,,,,,,,,57.22222222,44,20,75,49.22222222,5.222222222,2.088888889,0.436388509,-0.281121751,1,0,0,0.287,submitButton,2.503703704,-0.17373461,-0.372777018,0,0,0,0,11,11,28,1,44,67708,blockP,180,2022-02-21_11h53.29,orientation adjustment blockP,2021.2.3,MacIntel,50,,,,,,,
,,,,,,,,,,,,,,,,,,,,,,-47.22222222,16,20,75,12.77777778,3.222222222,1.288888889,0.207934337,-0.312585499,1,0,0,0.557,submitButton,1.288888889,-0.149110807,-0.406976744,0,0,0,0,12,12,0,1,16,67708,blockP,180,2022-02-21_11h53.29,orientation adjustment blockP,2021.2.3,MacIntel,50,,,,,,,
,,,,,,,,,,,,,,,,,,,,,,-61.11111111,68,20,75,54.88888889,13.11111111,5.244444444,-0.157318741,-0.413816689,1,0,0,0.805,submitButton,3.266666667,-0.157318741,-0.413816689,0,0,0,0,13,13,52,1,68,67708,blockP,180,2022-02-21_11h53.29,orientation adjustment blockP,2021.2.3,MacIntel,50,,,,,,,
,,,,,,,,,,,,,,,,,,,,,,-37.77777778,47,20,75,34.22222222,12.77777778,5.111111111,0.201094391,-0.294801642,1,0,0,0.789,submitButton,3.881481481,0.367989056,-0.393296854,1,0,0,0,14,14,31,1,47,67708,blockP,180,2022-02-21_11h53.29,orientation adjustment blockP,2021.2.3,MacIntel,50,continueButton,,,,,,
,,,,,,,,,,,,,,,,,,,,,,51.66666667,-42,20,75,-43.33333333,1.333333333,0.533333333,0.403556772,-0.324897401,1,0,0,1.507,submitButton,0.533333333,-0.253077975,-0.408344733,0,0,0,0,15,15,26,1,42,67708,blockP,180,2022-02-21_11h53.29,orientation adjustment blockP,2021.2.3,MacIntel,50,,,,,,,
,,,,,,,,,,,,,,,,,,,,,,75,58,20,75,230,8,3.2,-0.209302326,-0.409712722,1,0,0,1.555,submitButton,1.866666667,-0.209302326,-0.409712722,0,0,0,0,16,16,42,1,58,67708,blockP,180,2022-02-21_11h53.29,orientation adjustment blockP,2021.2.3,MacIntel,50,,,,,,,
,,,,,,,,,,,,,,,,,,,,,,65,55,20,75,73,18,11.7,0.43502052,-0.313953488,1,0,0,0.042,submitButton,5.144444444,-0.194254446,-0.385088919,0,0,0,0,17,17,39,1,55,67708,blockP,180,2022-02-21_11h53.29,orientation adjustment blockP,2021.2.3,MacIntel,50,,,,,,,
,,,,,,,,,,,,,,,,,,,,,,25.55555556,-71,20,75,-85.44444444,14.44444444,5.777777778,0.186046512,-0.313953488,1,0,0,0.475,submitButton,5.302777778,-0.209302326,-0.406976744,0,0,0,0,18,18,55,1,71,67708,blockP,180,2022-02-21_11h53.29,orientation adjustment blockP,2021.2.3,MacIntel,50,,,,,,,
,,,,,,,,,,,,,,,,,,,,,,-20,-18,20,75,-31,13,5.2,0.194254446,-0.303009576,1,0,0,0.572,submitButton,5.282222222,-0.201094391,-0.400136799,0,0,0,0,19,19,2,1,18,67708,blockP,180,2022-02-21_11h53.29,orientation adjustment blockP,2021.2.3,MacIntel,50,,,,,,,
,,,,,,,,,,,,,,,,,,,,,,-58.33333333,-63,20,75,-69.33333333,6.333333333,2.533333333,0.212038304,-0.315321477,1,0,0,1.071,submitButton,4.824074074,-0.180574555,-0.401504788,0,0,0,0,20,20,47,1,63,67708,blockP,180,2022-02-21_11h53.29,orientation adjustment blockP,2021.2.3,MacIntel,50,,,,,,,
,,,,,,,,,,,,,,,,,,,,,,49.44444444,-23,20,75,26.44444444,49.44444444,39.55555556,-0.149110807,-0.405608755,1,0,0,2.104,submitButton,9.785714286,-0.149110807,-0.405608755,0,0,0,0,21,21,7,1,23,67708,blockP,180,2022-02-21_11h53.29,orientation adjustment blockP,2021.2.3,MacIntel,50,,,,,,,
,,,,,,,,,,,,,,,,,,,,,,-23.33333333,73,20,75,69.66666667,3.333333333,1.333333333,-0.131326949,-0.413816689,1,0,0,0.537,submitButton,8.729166667,-0.131326949,-0.413816689,0,0,0,0,22,22,57,1,73,67708,blockP,180,2022-02-21_11h53.29,orientation adjustment blockP,2021.2.3,MacIntel,50,,,,,,,
,,,,,,,,,,,,,,,,,,,,,,-31.66666667,-25,20,75,-43.66666667,18.66666667,12.13333333,0.222982216,-0.305745554,1,0,0,0.531,submitButton,9.107407407,-0.181942544,-0.390560876,0,0,0,0,23,23,9,1,25,67708,blockP,180,2022-02-21_11h53.29,orientation adjustment blockP,2021.2.3,MacIntel,50,,,,,,,
,,,,,,,,,,,,,,,,,,,,,,38.88888889,-50,20,75,-38.11111111,11.88888889,4.755555556,0.37619699,-0.292065663,1,0,0,0.156,submitButton,8.672222222,-0.192886457,-0.411080711,0,0,0,0,24,24,34,1,50,67708,blockP,180,2022-02-21_11h53.29,orientation adjustment blockP,2021.2.3,MacIntel,50,,,,,,,
,,,,,,,,,,,,,,,,,,,,,,64.44444444,62,20,75,70.44444444,8.444444444,3.377777778,0.421340629,-0.293433653,1,0,0,0.687,submitButton,8.190909091,-0.225718194,-0.415184679,0,0,0,0,25,25,46,1,62,67708,blockP,180,2022-02-21_11h53.29,orientation adjustment blockP,2021.2.3,MacIntel,50,,,,,,,
,,,,,,,,,,,,,,,,,,,,,,25,59,20,75,51,8,3.2,-0.190150479,-0.428864569,1,0,0,1.04,submitButton,7.775,-0.216142271,-0.385088919,0,0,0,0,26,26,43,1,59,67708,blockP,180,2022-02-21_11h53.29,orientation adjustment blockP,2021.2.3,MacIntel,50,,,,,,,
,,,,,,,,,,,,,,,,,,,,,,-41.11111111,-36,20,75,-45.11111111,9.111111111,3.644444444,0.227086183,-0.341313269,1,0,0,0.49,submitButton,7.457264957,-0.150478796,-0.405608755,0,0,0,0,27,27,20,1,36,67708,blockP,180,2022-02-21_11h53.29,orientation adjustment blockP,2021.2.3,MacIntel,50,,,,,,,
,,,,,,,,,,,,,,,,,,,,,,73.33333333,21,20,75,20.33333333,0.666666667,0.266666667,0.398084815,-0.308481532,1,0,0,1.137,submitButton,6.943650794,-0.117647059,-0.382352941,0,0,0,0,28,28,5,1,21,67708,blockP,180,2022-02-21_11h53.29,orientation adjustment blockP,2021.2.3,MacIntel,50,,,,,,,
,,,,,,,,,,,,,,,,,,,,,,27.22222222,65,20,75,69.22222222,4.222222222,1.688888889,0.224350205,-0.279753762,1,0,0,1.148,submitButton,6.593333333,0.41997264,-0.400136799,1,0,0,0,29,29,49,1,65,67708,blockP,180,2022-02-21_11h53.29,orientation adjustment blockP,2021.2.3,MacIntel,50,continueButton,,,,,,
,,,,,,,,,,,,,,,,,,,,,,-60,74,20,75,58,16,10.4,0.229822161,-0.329001368,1,0,0,0.889,submitButton,6.83125,-0.21751026,-0.406976744,0,0,0,0,30,30,58,1,74,67708,blockP,180,2022-02-21_11h53.29,orientation adjustment blockP,2021.2.3,MacIntel,50,,,,,,,
,,,,,,,,,,,,,,,,,,,,,,66.11111111,-43,20,75,-35.88888889,7.111111111,2.844444444,-0.117647059,-0.372777018,1,0,0,1.439,submitButton,6.596732026,-0.117647059,-0.372777018,0,0,0,0,31,31,27,1,43,67708,blockP,180,2022-02-21_11h53.29,orientation adjustment blockP,2021.2.3,MacIntel,50,,,,,,,
,,,,,,,,,,,,,,,,,,,,,,36.11111111,29,20,75,46.11111111,17.11111111,11.12222222,0.21751026,-0.316689466,1,0,0,0.661,submitButton,6.848148148,-0.16005472,-0.402872777,0,0,0,0,32,32,13,1,29,67708,blockP,180,2022-02-21_11h53.29,orientation adjustment blockP,2021.2.3,MacIntel,50,,,,,,,
,,,,,,,,,,,,,,,,,,,,,,51.11111111,-52,20,75,-45.88888889,6.111111111,2.444444444,0.411764706,-0.29753762,1,0,0,0.763,submitButton,6.616374269,-0.127222982,-0.372777018,0,0,0,0,33,33,36,1,52,67708,blockP,180,2022-02-21_11h53.29,orientation adjustment blockP,2021.2.3,MacIntel,50,,,,,,,
,,,,,,,,,,,,,,,,,,,,,,65.55555556,-45,20,75,-39.44444444,5.555555556,2.222222222,0.418604651,-0.305745554,1,0,0,1.106,submitButton,6.396666667,-0.134062927,-0.417920657,0,0,0,0,34,34,29,1,45,67708,blockP,180,2022-02-21_11h53.29,orientation adjustment blockP,2021.2.3,MacIntel,50,,,,,,,
,,,,,,,,,,,,,,,,,,,,,,27.22222222,67,20,75,124.2222222,57.22222222,48.63888889,0.201094391,-0.315321477,1,0,0,0.964,submitButton,8.408201058,-0.165526676,-0.419288646,0,0,0,0,35,35,51,1,67,67708,blockP,180,2022-02-21_11h53.29,orientation adjustment blockP,2021.2.3,MacIntel,50,,,,,,,
,,,,,,,,,,,,,,,,,,,,,,60,-70,20,75,-147,77,69.3,0.277701778,-0.290697674,1,0,0,0.246,submitButton,11.1760101,-0.140902873,-0.417920657,0,0,0,0,36,36,54,1,70,67708,blockP,180,2022-02-21_11h53.29,orientation adjustment blockP,2021.2.3,MacIntel,50,,,,,,,
,,,,,,,,,,,,,,,,,,,,,,28.88888889,66,20,75,62.88888889,3.111111111,1.244444444,0.418604651,-0.305745554,1,0,0,0.174,submitButton,10.7442029,-0.17373461,-0.404240766,0,0,0,0,37,37,50,1,66,67708,blockP,180,2022-02-21_11h53.29,orientation adjustment blockP,2021.2.3,MacIntel,50,,,,,,,
,,,,,,,,,,,,,,,,,,,,,,-26.11111111,30,20,75,28.88888889,1.111111111,0.444444444,0.18878249,-0.335841313,1,0,0,0.045,submitButton,10.3150463,-0.16005472,-0.420656635,0,0,0,0,38,38,14,1,30,67708,blockP,180,2022-02-21_11h53.29,orientation adjustment blockP,2021.2.3,MacIntel,50,,,,,,,
,,,,,,,,,,,,,,,,,,,,,,67.77777778,-20,20,75,-38.22222222,18.22222222,11.84444444,0.389876881,-0.298905609,1,0,0,0.138,submitButton,10.37622222,-0.157318741,-0.394664843,0,0,0,0,39,39,4,1,20,67708,blockP,180,2022-02-21_11h53.29,orientation adjustment blockP,2021.2.3,MacIntel,50,,,,,,,
,,,,,,,,,,,,,,,,,,,,,,-69.44444444,37,20,75,33.55555556,3.444444444,1.377777778,0.227086183,-0.320793434,1,0,0,0.596,submitButton,10.03012821,-0.168262654,-0.4124487,0,0,0,0,40,40,21,1,37,67708,blockP,180,2022-02-21_11h53.29,orientation adjustment blockP,2021.2.3,MacIntel,50,,,,,,,
,,,,,,,,,,,,,,,,,,,,,,35.55555556,-64,20,75,-60.44444444,3.555555556,1.422222222,0.250341997,-0.28248974,1,0,0,0.077,submitButton,9.711316872,-0.212038304,-0.416552668,0,0,0,0,41,41,48,1,64,67708,blockP,180,2022-02-21_11h53.29,orientation adjustment blockP,2021.2.3,MacIntel,50,,,,,,,
,,,,,,,,,,,,,,,,,,,,,,75,22,20,75,26,4,1.6,0.403556772,-0.294801642,1,0,0,0.739,submitButton,9.421626984,-0.123119015,-0.4124487,0,0,0,0,42,42,6,1,22,67708,blockP,180,2022-02-21_11h53.29,orientation adjustment blockP,2021.2.3,MacIntel,50,,,,,,,
,,,,,,,,,,,,,,,,,,,,,,-25,-31,20,75,-34,3,1.2,0.21751026,-0.319425445,1,0,0,0.139,submitButton,9.138122605,-0.158686731,-0.406976744,0,0,0,0,43,43,15,1,31,67708,blockP,180,2022-02-21_11h53.29,orientation adjustment blockP,2021.2.3,MacIntel,50,,,,,,,
,,,,,,,,,,,,,,,,,,,,,,51.11111111,-51,20,75,-41.88888889,9.111111111,3.644444444,0.389876881,-0.298905609,1,0,0,0.805,submitButton,8.955,0.403556772,-0.396032832,1,0,0,0,44,44,35,1,51,67708,blockP,180,2022-02-21_11h53.29,orientation adjustment blockP,2021.2.3,MacIntel,50,continueButton,,,,,,
,,,,,,,,,,,,,,,,,,,,,,37.22222222,-72,20,75,-63.77777778,8.222222222,3.288888889,-0.14500684,-0.348153215,1,0,0,0.595,submitButton,8.772222222,-0.155950752,-0.413816689,0,0,0,0,45,45,56,1,72,67708,blockP,180,2022-02-21_11h53.29,orientation adjustment blockP,2021.2.3,MacIntel,50,,,,,,,
,,,,,,,,,,,,,,,,,,,,,,-35,57,20,75,44,13,5.2,-0.128590971,-0.368673051,1,0,0,0.544,submitButton,8.660590278,-0.168262654,-0.394664843,0,0,0,0,46,46,41,1,57,67708,blockP,180,2022-02-21_11h53.29,orientation adjustment blockP,2021.2.3,MacIntel,50,,,,,,,
,,,,,,,,,,,,,,,,,,,,,,53.88888889,35,20,75,41.88888889,6.888888889,2.755555556,-0.10123119,-0.352257182,1,0,0,0.982,submitButton,8.481649832,-0.142270862,-0.419288646,0,0,0,0,47,47,19,1,35,67708,blockP,180,2022-02-21_11h53.29,orientation adjustment blockP,2021.2.3,MacIntel,50,,,,,,,
,,,,,,,,,,,,,,,,,,,,,,62.22222222,28,20,75,35.22222222,7.222222222,2.888888889,0.372093023,-0.271545828,1,0,0,1.146,submitButton,8.317156863,-0.166894665,-0.413816689,0,0,0,0,48,48,12,1,28,67708,blockP,180,2022-02-21_11h53.29,orientation adjustment blockP,2021.2.3,MacIntel,50,,,,,,,
,,,,,,,,,,,,,,,,,,,,,,-61.66666667,26,20,75,32.33333333,6.333333333,2.533333333,0.191518468,-0.313953488,1,0,0,0.48,submitButton,8.151904762,-0.153214774,-0.424760602,0,0,0,0,49,49,10,1,26,67708,blockP,180,2022-02-21_11h53.29,orientation adjustment blockP,2021.2.3,MacIntel,50,,,,,,,
,,,,,,,,,,,,,,,,,,,,,,-20,69,20,75,69,0,0,-0.190150479,-0.401504788,1,0,0,0.647,submitButton,7.925462963,-0.190150479,-0.401504788,0,0,0,0,50,50,53,1,69,67708,blockP,180,2022-02-21_11h53.29,orientation adjustment blockP,2021.2.3,MacIntel,50,,,,,,,
,,,,,,,,,,,,,,,,,,,,,,-38.33333333,24,20,75,28.66666667,4.666666667,1.866666667,-0.131326949,-0.404240766,1,0,0,1.048,submitButton,7.761711712,-0.131326949,-0.404240766,0,0,0,0,51,51,8,1,24,67708,blockP,180,2022-02-21_11h53.29,orientation adjustment blockP,2021.2.3,MacIntel,50,,,,,,,
,,,,,,,,,,,,,,,,,,,,,,-36.66666667,-61,20,75,-75.66666667,14.66666667,5.866666667,0.186046512,-0.313953488,1,0,0,0.074,submitButton,7.711842105,-0.143638851,-0.420656635,0,0,0,0,52,52,45,1,61,67708,blockP,180,2022-02-21_11h53.29,orientation adjustment blockP,2021.2.3,MacIntel,50,,,,,,,
,,,,,,,,,,,,,,,,,,,,,,27.77777778,-19,20,75,-26.22222222,7.222222222,2.888888889,-0.125854993,-0.401504788,1,0,0,1.03,submitButton,7.588176638,-0.125854993,-0.401504788,0,0,0,0,53,53,3,1,19,67708,blockP,180,2022-02-21_11h53.29,orientation adjustment blockP,2021.2.3,MacIntel,50,,,,,,,
,,,,,,,,,,,,,,,,,,,,,,61.11111111,54,20,75,68.11111111,14.11111111,5.644444444,0.169630643,-0.319425445,1,0,0,0.104,submitButton,7.539583333,-0.165526676,-0.401504788,0,0,0,0,54,54,38,1,54,67708,blockP,180,2022-02-21_11h53.29,orientation adjustment blockP,2021.2.3,MacIntel,50,,,,,,,
,,,,,,,,,,,,,,,,,,,,,,42.77777778,46,20,75,53.77777778,7.777777778,3.111111111,0.393980848,-0.31121751,1,0,0,0.333,submitButton,7.431571816,-0.120383037,-0.391928865,0,0,0,0,55,55,30,1,46,67708,blockP,180,2022-02-21_11h53.29,orientation adjustment blockP,2021.2.3,MacIntel,50,,,,,,,
,,,,,,,,,,,,,,,,,,,,,,67.77777778,40,20,75,38.77777778,1.222222222,0.488888889,0.418604651,-0.28248974,1,0,0,1.262,submitButton,7.266269841,-0.134062927,-0.401504788,0,0,0,0,56,56,24,1,40,67708,blockP,180,2022-02-21_11h53.29,orientation adjustment blockP,2021.2.3,MacIntel,50,,,,,,,
,,,,,,,,,,,,,,,,,,,,,,-60.55555556,38,20,75,35.44444444,2.555555556,1.022222222,0.363885089,-0.287961696,1,0,0,1.473,submitButton,7.121059432,-0.169630643,-0.413816689,0,0,0,0,57,57,22,1,38,67708,blockP,180,2022-02-21_11h53.29,orientation adjustment blockP,2021.2.3,MacIntel,50,,,,,,,
,,,,,,,,,,,,,,,,,,,,,,-55,27,20,75,35,8,3.2,-0.121751026,-0.401504788,1,0,0,1.41,submitButton,7.031944444,-0.121751026,-0.401504788,0,0,0,0,58,58,11,1,27,67708,blockP,180,2022-02-21_11h53.29,orientation adjustment blockP,2021.2.3,MacIntel,50,,,,,,,
,,,,,,,,,,,,,,,,,,,,,,-46.11111111,-33,20,75,-43.11111111,10.11111111,4.044444444,0.179206566,-0.315321477,1,0,0,0.494,submitButton,6.965555556,0.407660739,-0.38372093,1,0,0,0,59,59,17,1,33,67708,blockP,180,2022-02-21_11h53.29,orientation adjustment blockP,2021.2.3,MacIntel,50,continueButton,,,,,,
,,,,,,,,,,,,,,,,,,,,,,-52.77777778,-21,20,75,-28.77777778,7.777777778,3.111111111,-0.11627907,-0.413816689,1,0,0,1.087,submitButton,6.881763285,-0.11627907,-0.413816689,0,0,0,1,0,60,5,1,21,67708,blockP,180,2022-02-21_11h53.29,orientation adjustment blockP,2021.2.3,MacIntel,50,,,,,,,
,,,,,,,,,,,,,,,,,,,,,,28.33333333,-20,20,75,-27.66666667,7.666666667,3.066666667,-0.142270862,-0.39876881,1,0,0,0.939,submitButton,6.800591017,-0.142270862,-0.39876881,0,0,0,1,1,61,4,1,20,67708,blockP,180,2022-02-21_11h53.29,orientation adjustment blockP,2021.2.3,MacIntel,50,,,,,,,
,,,,,,,,,,,,,,,,,,,,,,68.33333333,58,20,75,69.33333333,11.33333333,4.533333333,-0.175102599,-0.415184679,1,0,0,1.345,submitButton,6.753356481,-0.175102599,-0.415184679,0,0,0,1,2,62,42,1,58,67708,blockP,180,2022-02-21_11h53.29,orientation adjustment blockP,2021.2.3,MacIntel,50,,,,,,,
,,,,,,,,,,,,,,,,,,,,,,53.33333333,-59,20,75,-49.66666667,9.333333333,3.733333333,-0.150478796,-0.390560876,1,0,0,0.689,submitButton,6.691723356,-0.150478796,-0.390560876,0,0,0,1,3,63,43,1,59,67708,blockP,180,2022-02-21_11h53.29,orientation adjustment blockP,2021.2.3,MacIntel,50,,,,,,,
,,,,,,,,,,,,,,,,,,,,,,-57.22222222,39,20,75,43.77777778,4.777777778,1.911111111,0.176470588,-0.323529412,1,0,0,0.396,submitButton,6.596111111,-0.155950752,-0.393296854,0,0,0,1,4,64,23,1,39,67708,blockP,180,2022-02-21_11h53.29,orientation adjustment blockP,2021.2.3,MacIntel,50,,,,,,,
,,,,,,,,,,,,,,,,,,,,,,67.77777778,42,20,75,61.77777778,19.77777778,12.85555556,0.210670315,-0.315321477,1,0,0,1.587,submitButton,6.718845316,-0.191518468,-0.386456908,0,0,0,1,5,65,26,1,42,67708,blockP,180,2022-02-21_11h53.29,orientation adjustment blockP,2021.2.3,MacIntel,50,,,,,,,
,,,,,,,,,,,,,,,,,,,,,,62.77777778,62,20,75,64.77777778,2.777777778,1.111111111,0.450068399,-0.308481532,1,0,0,0.031,submitButton,6.611004274,-0.166894665,-0.394664843,0,0,0,1,6,66,46,1,62,67708,blockP,180,2022-02-21_11h53.29,orientation adjustment blockP,2021.2.3,MacIntel,50,,,,,,,
,,,,,,,,,,,,,,,,,,,,,,26.66666667,41,20,75,60.66666667,19.66666667,12.78333333,0.213406293,-0.334473324,1,0,0,0.838,submitButton,6.727463312,-0.149110807,-0.4124487,0,0,0,1,7,67,25,1,41,67708,blockP,180,2022-02-21_11h53.29,orientation adjustment blockP,2021.2.3,MacIntel,50,,,,,,,
,,,,,,,,,,,,,,,,,,,,,,70.55555556,-35,20,75,-33.44444444,1.555555556,0.622222222,0.425444596,-0.26880985,1,0,0,1.289,submitButton,6.614403292,-0.127222982,-0.423392613,0,0,0,1,8,68,19,1,35,67708,blockP,180,2022-02-21_11h53.29,orientation adjustment blockP,2021.2.3,MacIntel,50,,,,,,,
,,,,,,,,,,,,,,,,,,,,,,-61.66666667,-31,20,75,-46.66666667,15.66666667,10.18333333,-0.140902873,-0.404240766,1,0,0,1.249,submitButton,6.679292929,-0.140902873,-0.404240766,0,0,0,1,9,69,15,1,31,67708,blockP,180,2022-02-21_11h53.29,orientation adjustment blockP,2021.2.3,MacIntel,50,,,,,,,
,,,,,,,,,,,,,,,,,,,,,,41.66666667,-27,20,75,-36.33333333,9.333333333,3.733333333,-0.124487004,-0.357729138,1,0,0,0.757,submitButton,6.626686508,-0.125854993,-0.393296854,0,0,0,1,10,70,11,1,27,67708,blockP,180,2022-02-21_11h53.29,orientation adjustment blockP,2021.2.3,MacIntel,50,,,,,,,
,,,,,,,,,,,,,,,,,,,,,,71.11111111,-56,20,75,-57.88888889,1.888888889,0.755555556,0.396716826,-0.290697674,1,0,0,1.178,submitButton,6.523684211,-0.139534884,-0.382352941,0,0,0,1,11,71,40,1,56,67708,blockP,180,2022-02-21_11h53.29,orientation adjustment blockP,2021.2.3,MacIntel,50,,,,,,,
,,,,,,,,,,,,,,,,,,,,,,-34.44444444,75,20,75,55.55555556,19.44444444,12.63888889,-0.158686731,-0.415184679,1,0,0,0.779,submitButton,6.629118774,-0.158686731,-0.415184679,0,0,0,1,12,72,59,1,75,67708,blockP,180,2022-02-21_11h53.29,orientation adjustment blockP,2021.2.3,MacIntel,50,,,,,,,
,,,,,,,,,,,,,,,,,,,,,,-71.66666667,30,20,75,29.33333333,0.666666667,0.266666667,0.183310534,-0.308481532,1,0,0,0.394,submitButton,6.521280603,-0.117647059,-0.402872777,0,0,0,1,13,73,14,1,30,67708,blockP,180,2022-02-21_11h53.29,orientation adjustment blockP,2021.2.3,MacIntel,50,,,,,,,
,,,,,,,,,,,,,,,,,,,,,,-36.66666667,18,20,75,23.33333333,5.333333333,2.133333333,0.187414501,-0.31121751,1,0,0,0.167,submitButton,6.448148148,0.404924761,-0.385088919,1,0,0,1,14,74,2,1,18,67708,blockP,180,2022-02-21_11h53.29,orientation adjustment blockP,2021.2.3,MacIntel,50,continueButton,,,,,,
,,,,,,,,,,,,,,,,,,,,,,-59.44444444,46,20,75,38.55555556,7.444444444,2.977777778,-0.16005472,-0.404240766,1,0,0,1.097,submitButton,6.391256831,-0.16005472,-0.404240766,0,0,0,1,15,75,30,1,46,67708,blockP,180,2022-02-21_11h53.29,orientation adjustment blockP,2021.2.3,MacIntel,50,,,,,,,
,,,,,,,,,,,,,,,,,,,,,,-48.88888889,44,20,75,35.11111111,8.888888889,3.555555556,-0.177838577,-0.406976744,1,0,0,0.662,submitButton,6.345519713,-0.177838577,-0.406976744,0,0,0,1,16,76,28,1,44,67708,blockP,180,2022-02-21_11h53.29,orientation adjustment blockP,2021.2.3,MacIntel,50,,,,,,,
,,,,,,,,,,,,,,,,,,,,,,56.66666667,26,20,75,57.66666667,31.66666667,25.33333333,-0.150478796,-0.389192886,1,0,0,0.938,submitButton,6.64691358,-0.150478796,-0.389192886,0,0,0,1,17,77,10,1,26,67708,blockP,180,2022-02-21_11h53.29,orientation adjustment blockP,2021.2.3,MacIntel,50,,,,,,,
,,,,,,,,,,,,,,,,,,,,,,46.11111111,61,20,75,79.11111111,18.11111111,11.77222222,0.224350205,-0.305745554,1,0,0,1.029,submitButton,6.726996528,-0.128590971,-0.39876881,0,0,0,1,18,78,45,1,61,67708,blockP,180,2022-02-21_11h53.29,orientation adjustment blockP,2021.2.3,MacIntel,50,,,,,,,
,,,,,,,,,,,,,,,,,,,,,,-66.11111111,-72,20,75,-71.11111111,0.888888889,0.355555556,0.214774282,-0.342681259,1,0,0,1.314,submitButton,6.628974359,-0.103967168,-0.420656635,0,0,0,1,19,79,56,1,72,67708,blockP,180,2022-02-21_11h53.29,orientation adjustment blockP,2021.2.3,MacIntel,50,,,,,,,
,,,,,,,,,,,,,,,,,,,,,,-53.88888889,36,20,75,29.11111111,6.888888889,2.755555556,0.207934337,-0.309849521,1,0,0,0.846,submitButton,6.570286195,-0.164158687,-0.393296854,0,0,0,1,20,80,20,1,36,67708,blockP,180,2022-02-21_11h53.29,orientation adjustment blockP,2021.2.3,MacIntel,50,,,,,,,
,,,,,,,,,,,,,,,,,,,,,,-62.77777778,37,20,75,28.22222222,8.777777778,3.511111111,-0.146374829,-0.424760602,1,0,0,1.053,submitButton,6.524626866,-0.146374829,-0.424760602,0,0,0,1,21,81,21,1,37,67708,blockP,180,2022-02-21_11h53.29,orientation adjustment blockP,2021.2.3,MacIntel,50,,,,,,,
,,,,,,,,,,,,,,,,,,,,,,40.55555556,16,20,75,40.55555556,24.55555556,15.96111111,0.243502052,-0.342681259,1,0,0,0.647,submitButton,6.663398693,-0.127222982,-0.402872777,0,0,0,1,22,82,0,1,16,67708,blockP,180,2022-02-21_11h53.29,orientation adjustment blockP,2021.2.3,MacIntel,50,,,,,,,
,,,,,,,,,,,,,,,,,,,,,,62.77777778,29,20,75,50.77777778,21.77777778,14.15555556,-0.125854993,-0.385088919,1,0,0,1.106,submitButton,6.771980676,-0.125854993,-0.385088919,0,0,0,1,23,83,13,1,29,67708,blockP,180,2022-02-21_11h53.29,orientation adjustment blockP,2021.2.3,MacIntel,50,,,,,,,
,,,,,,,,,,,,,,,,,,,,,,-22.77777778,-40,20,75,-39.77777778,0.222222222,0.088888889,-0.090287278,-0.405608755,1,0,0,0.728,submitButton,6.676507937,-0.140902873,-0.404240766,0,0,0,1,24,84,24,1,40,67708,blockP,180,2022-02-21_11h53.29,orientation adjustment blockP,2021.2.3,MacIntel,50,,,,,,,
,,,,,,,,,,,,,,,,,,,,,,-71.11111111,47,20,75,-113.1111111,19.88888889,12.92777778,-0.136798906,-0.423392613,1,0,0,2.162,submitButton,6.764553991,-0.136798906,-0.423392613,0,0,0,1,25,85,31,1,47,67708,blockP,180,2022-02-21_11h53.29,orientation adjustment blockP,2021.2.3,MacIntel,50,,,,,,,
,,,,,,,,,,,,,,,,,,,,,,47.77777778,-23,20,75,-30.22222222,7.222222222,2.888888889,-0.120383037,-0.365937073,1,0,0,0.888,submitButton,6.710725309,-0.124487004,-0.419288646,0,0,0,1,26,86,7,1,23,67708,blockP,180,2022-02-21_11h53.29,orientation adjustment blockP,2021.2.3,MacIntel,50,,,,,,,
,,,,,,,,,,,,,,,,,,,,,,-49.44444444,25,20,75,34.55555556,9.555555556,3.822222222,0.183310534,-0.315321477,1,0,0,0.852,submitButton,6.671156773,-0.146374829,-0.385088919,0,0,0,1,27,87,9,1,25,67708,blockP,180,2022-02-21_11h53.29,orientation adjustment blockP,2021.2.3,MacIntel,50,,,,,,,
,,,,,,,,,,,,,,,,,,,,,,27.22222222,-24,20,75,-31.77777778,7.777777778,3.111111111,-0.120383037,-0.423392613,1,0,0,0.413,submitButton,6.623048048,-0.120383037,-0.423392613,0,0,0,1,28,88,8,1,24,67708,blockP,180,2022-02-21_11h53.29,orientation adjustment blockP,2021.2.3,MacIntel,50,,,,,,,
,,,,,,,,,,,,,,,,,,,,,,-75,28,20,75,29,1,0.4,-0.143638851,-0.390560876,1,0,0,1.621,submitButton,6.540074074,0.429548564,-0.402872777,1,0,0,1,29,89,12,1,28,67708,blockP,180,2022-02-21_11h53.29,orientation adjustment blockP,2021.2.3,MacIntel,50,continueButton,,,,,,
,,,,,,,,,,,,,,,,,,,,,,-56.66666667,-17,20,75,-211.6666667,14.66666667,5.866666667,0.411764706,-0.271545828,1,0,0,1.623,submitButton,6.53121345,-0.120383037,-0.416552668,0,0,0,1,30,90,1,1,17,67708,blockP,180,2022-02-21_11h53.29,orientation adjustment blockP,2021.2.3,MacIntel,50,,,,,,,
,,,,,,,,,,,,,,,,,,,,,,-50,38,20,75,31,7,2.8,0.224350205,-0.294801642,1,0,0,0.249,submitButton,6.482756133,-0.161422709,-0.42749658,0,0,0,1,31,91,22,1,38,67708,blockP,180,2022-02-21_11h53.29,orientation adjustment blockP,2021.2.3,MacIntel,50,,,,,,,
,,,,,,,,,,,,,,,,,,,,,,39.44444444,-67,20,75,-68.55555556,1.555555556,0.622222222,-0.0875513,-0.375512996,1,0,0,0.697,submitButton,6.407621083,-0.128590971,-0.401504788,0,0,0,1,32,92,51,1,67,67708,blockP,180,2022-02-21_11h53.29,orientation adjustment blockP,2021.2.3,MacIntel,50,,,,,,,
,,,,,,,,,,,,,,,,,,,,,,58.33333333,-52,20,75,-48.66666667,3.333333333,1.333333333,0.272229822,-0.301641587,1,0,0,0.879,submitButton,6.343389592,-0.205198358,-0.380984952,0,0,0,1,33,93,36,1,52,67708,blockP,180,2022-02-21_11h53.29,orientation adjustment blockP,2021.2.3,MacIntel,50,,,,,,,
,,,,,,,,,,,,,,,,,,,,,,-57.22222222,-55,20,75,-227.2222222,7.777777778,3.111111111,-0.120383037,-0.393296854,1,0,0,1.73,submitButton,6.302986111,-0.120383037,-0.393296854,0,0,0,1,34,94,39,1,55,67708,blockP,180,2022-02-21_11h53.29,orientation adjustment blockP,2021.2.3,MacIntel,50,,,,,,,
,,,,,,,,,,,,,,,,,,,,,,68.33333333,50,20,75,220.3333333,9.666666667,3.866666667,-0.10123119,-0.387824897,1,0,0,1.405,submitButton,6.272908093,-0.10123119,-0.387824897,0,0,0,1,35,95,34,1,50,67708,blockP,180,2022-02-21_11h53.29,orientation adjustment blockP,2021.2.3,MacIntel,50,,,,,,,
,,,,,,,,,,,,,,,,,,,,,,-55.55555556,71,20,75,53.44444444,17.55555556,11.41111111,-0.105335157,-0.385088919,1,0,0,0.513,submitButton,6.335569106,-0.105335157,-0.385088919,0,0,0,1,36,96,55,1,71,67708,blockP,180,2022-02-21_11h53.29,orientation adjustment blockP,2021.2.3,MacIntel,50,,,,,,,
,,,,,,,,,,,,,,,,,,,,,,29.44444444,-57,20,75,-57.55555556,0.555555556,0.222222222,0.388508892,-0.292065663,1,0,0,0.797,submitButton,6.261914324,-0.120383037,-0.405608755,0,0,0,1,37,97,41,1,57,67708,blockP,180,2022-02-21_11h53.29,orientation adjustment blockP,2021.2.3,MacIntel,50,,,,,,,
,,,,,,,,,,,,,,,,,,,,,,-31.66666667,-43,20,75,-62.66666667,19.66666667,12.78333333,0.17373461,-0.323529412,1,0,0,0.429,submitButton,6.339550265,-0.106703146,-0.387824897,0,0,0,1,38,98,27,1,43,67708,blockP,180,2022-02-21_11h53.29,orientation adjustment blockP,2021.2.3,MacIntel,50,,,,,,,
,,,,,,,,,,,,,,,,,,,,,,-74.44444444,-22,20,75,-41.44444444,19.44444444,12.63888889,-0.060191518,-0.409712722,1,0,0,0.855,submitButton,6.413660131,-0.119015048,-0.394664843,0,0,0,1,39,99,6,1,22,67708,blockP,180,2022-02-21_11h53.29,orientation adjustment blockP,2021.2.3,MacIntel,50,,,,,,,
,,,,,,,,,,,,,,,,,,,,,,-72.22222222,68,20,75,41.77777778,26.22222222,17.04444444,-0.097127223,-0.385088919,1,0,0,0.589,submitButton,6.537273902,-0.097127223,-0.385088919,0,0,0,1,40,100,52,1,68,67708,blockP,180,2022-02-21_11h53.29,orientation adjustment blockP,2021.2.3,MacIntel,50,,,,,,,
,,,,,,,,,,,,,,,,,,,,,,-38.88888889,70,20,75,53.11111111,16.88888889,10.97777778,-0.090287278,-0.401504788,1,0,0,0.462,submitButton,6.588314176,-0.140902873,-0.404240766,0,0,0,1,41,101,54,1,70,67708,blockP,180,2022-02-21_11h53.29,orientation adjustment blockP,2021.2.3,MacIntel,50,,,,,,,
,,,,,,,,,,,,,,,,,,,,,,73.88888889,64,20,75,224.8888889,19.11111111,12.42222222,0.181942544,-0.303009576,1,0,0,1.479,submitButton,6.654608586,-0.150478796,-0.42749658,0,0,0,1,42,102,48,1,64,67708,blockP,180,2022-02-21_11h53.29,orientation adjustment blockP,2021.2.3,MacIntel,50,,,,,,,
,,,,,,,,,,,,,,,,,,,,,,57.22222222,73,20,75,233.2222222,19.77777778,12.85555556,0.172366621,-0.304377565,1,0,0,1.322,submitButton,6.724282147,-0.143638851,-0.411080711,0,0,0,1,43,103,57,1,73,67708,blockP,180,2022-02-21_11h53.29,orientation adjustment blockP,2021.2.3,MacIntel,50,,,,,,,
,,,,,,,,,,,,,,,,,,,,,,23.88888889,-74,20,75,-73.11111111,0.888888889,0.355555556,-0.119015048,-0.380984952,1,0,0,0.622,submitButton,6.653518519,0.414500684,-0.406976744,1,0,0,1,44,104,58,1,74,67708,blockP,180,2022-02-21_11h53.29,orientation adjustment blockP,2021.2.3,MacIntel,50,continueButton,,,,,,
,,,,,,,,,,,,,,,,,,,,,,51.11111111,-66,20,75,-66.88888889,0.888888889,0.355555556,-0.142270862,-0.39876881,1,0,0,1.539,submitButton,6.584310134,-0.142270862,-0.39876881,0,0,0,1,45,105,50,1,66,67708,blockP,180,2022-02-21_11h53.29,orientation adjustment blockP,2021.2.3,MacIntel,50,,,,,,,
,,,,,,,,,,,,,,,,,,,,,,34.44444444,60,20,75,67.44444444,7.444444444,2.977777778,0.194254446,-0.287961696,1,0,0,0.721,submitButton,6.545108696,-0.149110807,-0.371409029,0,0,0,1,46,106,44,1,60,67708,blockP,180,2022-02-21_11h53.29,orientation adjustment blockP,2021.2.3,MacIntel,50,,,,,,,
,,,,,,,,,,,,,,,,,,,,,,-40,-33,20,75,-46,13,5.2,-0.110807114,-0.394664843,1,0,0,1.372,submitButton,6.530645161,-0.110807114,-0.394664843,0,0,0,1,47,107,17,1,33,67708,blockP,180,2022-02-21_11h53.29,orientation adjustment blockP,2021.2.3,MacIntel,50,,,,,,,
,,,,,,,,,,,,,,,,,,,,,,-36.11111111,-69,20,75,-75.11111111,6.111111111,2.444444444,-0.134062927,-0.382352941,1,0,0,0.62,submitButton,6.487174941,-0.134062927,-0.382352941,0,0,0,1,48,108,53,1,69,67708,blockP,180,2022-02-21_11h53.29,orientation adjustment blockP,2021.2.3,MacIntel,50,,,,,,,
,,,,,,,,,,,,,,,,,,,,,,-35.55555556,51,20,75,36.44444444,14.55555556,5.822222222,0.207934337,-0.305745554,1,0,0,0.413,submitButton,6.480175439,-0.123119015,-0.396032832,0,0,0,1,49,109,35,1,51,67708,blockP,180,2022-02-21_11h53.29,orientation adjustment blockP,2021.2.3,MacIntel,50,,,,,,,
,,,,,,,,,,,,,,,,,,,,,,-43.33333333,65,20,75,39.66666667,25.33333333,16.46666667,-0.128590971,-0.400136799,1,0,0,0.379,submitButton,6.584201389,-0.128590971,-0.400136799,0,0,0,1,50,110,49,1,65,67708,blockP,180,2022-02-21_11h53.29,orientation adjustment blockP,2021.2.3,MacIntel,50,,,,,,,
,,,,,,,,,,,,,,,,,,,,,,32.77777778,-19,20,75,-22.22222222,3.222222222,1.288888889,-0.090287278,-0.379616963,1,0,0,0.697,submitButton,6.529610538,-0.123119015,-0.404240766,0,0,0,1,51,111,3,1,19,67708,blockP,180,2022-02-21_11h53.29,orientation adjustment blockP,2021.2.3,MacIntel,50,,,,,,,
,,,,,,,,,,,,,,,,,,,,,,-28.33333333,32,20,75,26.66666667,5.333333333,2.133333333,-0.12995896,-0.390560876,1,0,0,0.455,submitButton,6.484750567,-0.12995896,-0.390560876,0,0,0,1,52,112,16,1,32,67708,blockP,180,2022-02-21_11h53.29,orientation adjustment blockP,2021.2.3,MacIntel,50,,,,,,,
,,,,,,,,,,,,,,,,,,,,,,37.77777778,45,20,75,54.77777778,9.777777778,3.911111111,0.428180575,-0.296169631,1,0,0,0.056,submitButton,6.458754209,-0.124487004,-0.401504788,0,0,0,1,53,113,29,1,45,67708,blockP,180,2022-02-21_11h53.29,orientation adjustment blockP,2021.2.3,MacIntel,50,,,,,,,
,,,,,,,,,,,,,,,,,,,,,,23.88888889,63,20,75,64.88888889,1.888888889,0.755555556,-0.105335157,-0.371409029,1,0,0,0.772,submitButton,6.401722222,-0.105335157,-0.371409029,0,0,0,1,54,114,47,1,63,67708,blockP,180,2022-02-21_11h53.29,orientation adjustment blockP,2021.2.3,MacIntel,50,,,,,,,
,,,,,,,,,,,,,,,,,,,,,,58.88888889,-48,20,75,-36.11111111,11.88888889,4.755555556,-0.080711354,-0.382352941,1,0,0,0.93,submitButton,6.385423542,-0.103967168,-0.415184679,0,0,0,1,55,115,32,1,48,67708,blockP,180,2022-02-21_11h53.29,orientation adjustment blockP,2021.2.3,MacIntel,50,,,,,,,
,,,,,,,,,,,,,,,,,,,,,,-46.11111111,-54,20,75,-41.11111111,12.88888889,5.155555556,0.221614227,-0.294801642,1,0,0,0.178,submitButton,6.373366013,-0.117647059,-0.405608755,0,0,0,1,56,116,38,1,54,67708,blockP,180,2022-02-21_11h53.29,orientation adjustment blockP,2021.2.3,MacIntel,50,,,,,,,
,,,,,,,,,,,,,,,,,,,,,,50,53,20,75,55,2,0.8,-0.120383037,-0.396032832,1,0,0,1.03,submitButton,6.319255663,-0.120383037,-0.396032832,0,0,0,1,57,117,37,1,53,67708,blockP,180,2022-02-21_11h53.29,orientation adjustment blockP,2021.2.3,MacIntel,50,,,,,,,
,,,,,,,,,,,,,,,,,,,,,,28.33333333,-34,20,75,-24.66666667,9.333333333,3.733333333,-0.097127223,-0.390560876,1,0,0,0.641,submitButton,6.294391026,-0.097127223,-0.390560876,0,0,0,1,58,118,18,1,34,67708,blockP,180,2022-02-21_11h53.29,orientation adjustment blockP,2021.2.3,MacIntel,50,,,,,,,
,,,,,,,,,,,,,,,,,,,,,,53.33333333,49,20,75,54.33333333,5.333333333,2.133333333,0.378932969,-0.286593707,1,0,0,0.506,submitButton,6.254761905,0.429548564,-0.417920657,1,0,0,1,59,119,33,1,49,67708,blockP,180,2022-02-21_11h53.29,orientation adjustment blockP,2021.2.3,MacIntel,50,continueButton,,,,,,
,,,,,,,,,,,,,,,,,,,,,,-21.66666667,-36,20,75,-45.66666667,9.666666667,3.866666667,-0.150478796,-0.428864569,1,0,0,0.956,submitButton,6.232232704,-0.113543092,-0.387824897,0,0,0,2,0,120,20,1,36,67708,blockP,180,2022-02-21_11h53.29,orientation adjustment blockP,2021.2.3,MacIntel,50,,,,,,,
,,,,,,,,,,,,,,,,,,,,,,66.66666667,33,20,75,44.66666667,11.66666667,4.666666667,-0.150478796,-0.411080711,1,0,0,1.156,submitButton,6.217601246,-0.150478796,-0.411080711,0,0,0,2,1,121,17,1,33,67708,blockP,180,2022-02-21_11h53.29,orientation adjustment blockP,2021.2.3,MacIntel,50,,,,,,,
,,,,,,,,,,,,,,,,,,,,,,-20.55555556,-56,20,75,-49.55555556,6.444444444,2.577777778,-0.139534884,-0.435704514,1,0,0,0.689,submitButton,6.183899177,-0.119015048,-0.386456908,0,0,0,2,2,122,40,1,56,67708,blockP,180,2022-02-21_11h53.29,orientation adjustment blockP,2021.2.3,MacIntel,50,,,,,,,
,,,,,,,,,,,,,,,,,,,,,,-66.66666667,65,20,75,42.33333333,22.66666667,14.73333333,-0.136798906,-0.386456908,1,0,0,0.654,submitButton,6.262334353,-0.136798906,-0.386456908,0,0,0,2,3,123,49,1,65,67708,blockP,180,2022-02-21_11h53.29,orientation adjustment blockP,2021.2.3,MacIntel,50,,,,,,,
,,,,,,,,,,,,,,,,,,,,,,25.55555556,38,20,75,40.55555556,2.555555556,1.022222222,-0.119015048,-0.390560876,1,0,0,0.647,submitButton,6.21469697,-0.119015048,-0.390560876,0,0,0,2,4,124,22,1,38,67708,blockP,180,2022-02-21_11h53.29,orientation adjustment blockP,2021.2.3,MacIntel,50,,,,,,,
,,,,,,,,,,,,,,,,,,,,,,45.55555556,-26,20,75,-25.44444444,0.555555556,0.222222222,-0.103967168,-0.382352941,1,0,0,0.904,submitButton,6.160710711,-0.103967168,-0.382352941,0,0,0,2,5,125,10,1,26,67708,blockP,180,2022-02-21_11h53.29,orientation adjustment blockP,2021.2.3,MacIntel,50,,,,,,,
,,,,,,,,,,,,,,,,,,,,,,-75,-32,20,75,-213,1,0.4,0.39124487,-0.286593707,1,0,0,1.795,submitButton,6.109275794,-0.095759234,-0.401504788,0,0,0,2,6,126,16,1,32,67708,blockP,180,2022-02-21_11h53.29,orientation adjustment blockP,2021.2.3,MacIntel,50,,,,,,,
,,,,,,,,,,,,,,,,,,,,,,-54.44444444,37,20,75,35.55555556,1.444444444,0.577777778,-0.121751026,-0.394664843,1,0,0,0.762,submitButton,6.060324484,-0.121751026,-0.394664843,0,0,0,2,7,127,21,1,37,67708,blockP,180,2022-02-21_11h53.29,orientation adjustment blockP,2021.2.3,MacIntel,50,,,,,,,
,,,,,,,,,,,,,,,,,,,,,,60.55555556,-48,20,75,-52.44444444,4.444444444,1.777777778,-0.138166895,-0.390560876,1,0,0,1.023,submitButton,6.022758285,-0.138166895,-0.390560876,0,0,0,2,8,128,32,1,48,67708,blockP,180,2022-02-21_11h53.29,orientation adjustment blockP,2021.2.3,MacIntel,50,,,,,,,
,,,,,,,,,,,,,,,,,,,,,,22.77777778,-31,20,75,-35.22222222,4.222222222,1.688888889,-0.127222982,-0.386456908,1,0,0,0.671,submitButton,5.985072464,-0.127222982,-0.386456908,0,0,0,2,9,129,15,1,31,67708,blockP,180,2022-02-21_11h53.29,orientation adjustment blockP,2021.2.3,MacIntel,50,,,,,,,
,,,,,,,,,,,,,,,,,,,,,,-56.11111111,63,20,75,49.88888889,13.11111111,5.244444444,-0.16005472,-0.387824897,1,0,0,0.523,submitButton,5.978687739,-0.16005472,-0.387824897,0,0,0,2,10,130,47,1,63,67708,blockP,180,2022-02-21_11h53.29,orientation adjustment blockP,2021.2.3,MacIntel,50,,,,,,,
,,,,,,,,,,,,,,,,,,,,,,46.66666667,27,20,75,32.66666667,5.666666667,2.266666667,-0.128590971,-0.394664843,1,0,0,1.132,submitButton,5.946961064,-0.128590971,-0.394664843,0,0,0,2,11,131,11,1,27,67708,blockP,180,2022-02-21_11h53.29,orientation adjustment blockP,2021.2.3,MacIntel,50,,,,,,,
,,,,,,,,,,,,,,,,,,,,,,46.11111111,-58,20,75,-70.88888889,12.88888889,5.155555556,-0.117647059,-0.389192886,1,0,0,1.229,submitButton,5.940254237,-0.117647059,-0.389192886,0,0,0,2,12,132,42,1,58,67708,blockP,180,2022-02-21_11h53.29,orientation adjustment blockP,2021.2.3,MacIntel,50,,,,,,,
,,,,,,,,,,,,,,,,,,,,,,34.44444444,-18,20,75,-36.55555556,18.55555556,12.06111111,-0.12995896,-0.387824897,1,0,0,1.065,submitButton,5.991690009,-0.12995896,-0.387824897,0,0,0,2,13,133,2,1,18,67708,blockP,180,2022-02-21_11h53.29,orientation adjustment blockP,2021.2.3,MacIntel,50,,,,,,,
,,,,,,,,,,,,,,,,,,,,,,-61.66666667,24,20,75,40.33333333,16.33333333,10.61666667,-0.095759234,-0.38372093,1,0,0,0.673,submitButton,6.030231481,0.578659371,-0.420656635,1,0,0,2,14,134,8,1,24,67708,blockP,180,2022-02-21_11h53.29,orientation adjustment blockP,2021.2.3,MacIntel,50,continueButton,,,,,,
,,,,,,,,,,,,,,,,,,,,,,-50,50,20,75,37,13,5.2,-0.127222982,-0.422024624,1,0,0,0.613,submitButton,6.023370064,-0.127222982,-0.422024624,0,0,0,2,15,135,34,1,50,67708,blockP,180,2022-02-21_11h53.29,orientation adjustment blockP,2021.2.3,MacIntel,50,,,,,,,
,,,,,,,,,,,,,,,,,,,,,,-32.77777778,-68,20,75,-70.77777778,2.777777778,1.111111111,0.213406293,-0.344049248,1,0,0,0.088,submitButton,5.983105647,-0.14500684,-0.380984952,0,0,0,2,16,136,52,1,68,67708,blockP,180,2022-02-21_11h53.29,orientation adjustment blockP,2021.2.3,MacIntel,50,,,,,,,
,,,,,,,,,,,,,,,,,,,,,,30,-47,20,75,-58,11,4.4,-0.11627907,-0.391928865,1,0,0,0.606,submitButton,5.970234869,-0.11627907,-0.391928865,0,0,0,2,17,137,31,1,47,67708,blockP,180,2022-02-21_11h53.29,orientation adjustment blockP,2021.2.3,MacIntel,50,,,,,,,
,,,,,,,,,,,,,,,,,,,,,,-29.44444444,41,20,75,49.55555556,8.555555556,3.422222222,0.195622435,-0.298905609,1,0,0,0.571,submitButton,5.94968638,-0.120383037,-0.419288646,0,0,0,2,18,138,25,1,41,67708,blockP,180,2022-02-21_11h53.29,orientation adjustment blockP,2021.2.3,MacIntel,50,,,,,,,
,,,,,,,,,,,,,,,,,,,,,,33.88888889,-35,20,75,-47.11111111,12.11111111,4.844444444,0.44870041,-0.330369357,1,0,0,0.092,submitButton,5.940844444,-0.176470588,-0.411080711,0,0,0,2,19,139,19,1,35,67708,blockP,180,2022-02-21_11h53.29,orientation adjustment blockP,2021.2.3,MacIntel,50,,,,,,,
,,,,,,,,,,,,,,,,,,,,,,69.44444444,-71,20,75,-81.55555556,10.55555556,4.222222222,-0.172366621,-0.378248974,1,0,0,1.289,submitButton,5.927204586,-0.172366621,-0.378248974,0,0,0,2,20,140,55,1,71,67708,blockP,180,2022-02-21_11h53.29,orientation adjustment blockP,2021.2.3,MacIntel,50,,,,,,,
,,,,,,,,,,,,,,,,,,,,,,-58.88888889,-53,20,75,-56.88888889,3.888888889,1.555555556,-0.153214774,-0.4124487,1,0,0,1.692,submitButton,5.892782152,-0.153214774,-0.4124487,0,0,0,2,21,141,37,1,53,67708,blockP,180,2022-02-21_11h53.29,orientation adjustment blockP,2021.2.3,MacIntel,50,,,,,,,
,,,,,,,,,,,,,,,,,,,,,,44.44444444,55,20,75,47.44444444,7.555555556,3.022222222,-0.14500684,-0.397400821,1,0,0,0.771,submitButton,5.870355903,-0.120383037,-0.39876881,0,0,0,2,22,142,39,1,55,67708,blockP,180,2022-02-21_11h53.29,orientation adjustment blockP,2021.2.3,MacIntel,50,,,,,,,
,,,,,,,,,,,,,,,,,,,,,,73.33333333,20,20,75,32.33333333,12.33333333,4.933333333,-0.139534884,-0.380984952,1,0,0,0.946,submitButton,5.863092162,-0.139534884,-0.380984952,0,0,0,2,23,143,4,1,20,67708,blockP,180,2022-02-21_11h53.29,orientation adjustment blockP,2021.2.3,MacIntel,50,,,,,,,
,,,,,,,,,,,,,,,,,,,,,,67.77777778,16,20,75,28.77777778,12.77777778,5.111111111,0.432284542,-0.275649795,1,0,0,1.27,submitButton,5.857307692,-0.132694938,-0.380984952,0,0,0,2,24,144,0,1,16,67708,blockP,180,2022-02-21_11h53.29,orientation adjustment blockP,2021.2.3,MacIntel,50,,,,,,,
,,,,,,,,,,,,,,,,,,,,,,36.66666667,-70,20,75,-70.33333333,0.333333333,0.133333333,-0.132694938,-0.390560876,1,0,0,1.279,submitButton,5.813613232,-0.132694938,-0.390560876,0,0,0,2,25,145,54,1,70,67708,blockP,180,2022-02-21_11h53.29,orientation adjustment blockP,2021.2.3,MacIntel,50,,,,,,,
,,,,,,,,,,,,,,,,,,,,,,-41.66666667,46,20,75,44.33333333,1.666666667,0.666666667,-0.117647059,-0.38372093,1,0,0,0.656,submitButton,5.774621212,-0.117647059,-0.38372093,0,0,0,2,26,146,30,1,46,67708,blockP,180,2022-02-21_11h53.29,orientation adjustment blockP,2021.2.3,MacIntel,50,,,,,,,
,,,,,,,,,,,,,,,,,,,,,,73.88888889,-67,20,75,109.8888889,3.111111111,1.244444444,-0.112175103,-0.375512996,1,0,0,1.672,submitButton,5.740559733,-0.112175103,-0.375512996,0,0,0,2,27,147,51,1,67,67708,blockP,180,2022-02-21_11h53.29,orientation adjustment blockP,2021.2.3,MacIntel,50,,,,,,,
,,,,,,,,,,,,,,,,,,,,,,34.44444444,64,20,75,58.44444444,5.555555556,2.222222222,-0.142270862,-0.356361149,1,0,0,0.528,submitButton,5.714303483,-0.108071135,-0.397400821,0,0,0,2,28,148,48,1,64,67708,blockP,180,2022-02-21_11h53.29,orientation adjustment blockP,2021.2.3,MacIntel,50,,,,,,,
,,,,,,,,,,,,,,,,,,,,,,-21.11111111,-62,20,75,-45.11111111,16.88888889,10.97777778,-0.127222982,-0.397400821,1,0,0,0.512,submitButton,5.753292181,0.415868673,-0.406976744,1,0,0,2,29,149,46,1,62,67708,blockP,180,2022-02-21_11h53.29,orientation adjustment blockP,2021.2.3,MacIntel,50,continueButton,,,,,,
,,,,,,,,,,,,,,,,,,,,,,-68.33333333,-69,20,75,-229.3333333,19.66666667,12.78333333,-0.142270862,-0.4124487,1,0,0,2.261,submitButton,5.80498366,-0.142270862,-0.4124487,0,0,0,2,30,150,53,1,69,67708,blockP,180,2022-02-21_11h53.29,orientation adjustment blockP,2021.2.3,MacIntel,50,,,,,,,
,,,,,,,,,,,,,,,,,,,,,,28.88888889,73,20,75,55.88888889,17.11111111,11.12222222,-0.138166895,-0.324897401,1,0,0,0.55,submitButton,5.84379562,-0.120383037,-0.39876881,0,0,0,2,31,151,57,1,73,67708,blockP,180,2022-02-21_11h53.29,orientation adjustment blockP,2021.2.3,MacIntel,50,,,,,,,
,,,,,,,,,,,,,,,,,,,,,,-56.11111111,42,20,75,31.88888889,10.11111111,4.044444444,-0.157318741,-0.367305062,1,0,0,1.106,submitButton,5.830756844,-0.169630643,-0.394664843,0,0,0,2,32,152,26,1,42,67708,blockP,180,2022-02-21_11h53.29,orientation adjustment blockP,2021.2.3,MacIntel,50,,,,,,,
,,,,,,,,,,,,,,,,,,,,,,-62.22222222,30,20,75,43.77777778,13.77777778,5.511111111,-0.080711354,-0.396032832,1,0,0,1.641,submitButton,5.828457234,-0.147742818,-0.387824897,0,0,0,2,33,153,14,1,30,67708,blockP,180,2022-02-21_11h53.29,orientation adjustment blockP,2021.2.3,MacIntel,50,,,,,,,
,,,,,,,,,,,,,,,,,,,,,,-61.11111111,43,20,75,36.88888889,6.111111111,2.444444444,-0.086183311,-0.405608755,1,0,0,0.945,submitButton,5.804285714,-0.139534884,-0.402872777,0,0,0,2,34,154,27,1,43,67708,blockP,180,2022-02-21_11h53.29,orientation adjustment blockP,2021.2.3,MacIntel,50,,,,,,,
,,,,,,,,,,,,,,,,,,,,,,43.88888889,25,20,75,37.88888889,12.88888889,5.155555556,-0.165526676,-0.415184679,1,0,0,0.494,submitButton,5.799684791,-0.165526676,-0.415184679,0,0,0,2,35,155,9,1,25,67708,blockP,180,2022-02-21_11h53.29,orientation adjustment blockP,2021.2.3,MacIntel,50,,,,,,,
,,,,,,,,,,,,,,,,,,,,,,-35.55555556,-34,20,75,-47.55555556,13.55555556,5.422222222,-0.153214774,-0.406976744,1,0,0,0.955,submitButton,5.797026604,-0.153214774,-0.406976744,0,0,0,2,36,156,18,1,34,67708,blockP,180,2022-02-21_11h53.29,orientation adjustment blockP,2021.2.3,MacIntel,50,,,,,,,
,,,,,,,,,,,,,,,,,,,,,,-55.55555556,-57,20,75,-228.5555556,8.444444444,3.377777778,-0.124487004,-0.385088919,1,0,0,2.355,submitButton,5.78010878,-0.124487004,-0.385088919,0,0,0,2,37,157,41,1,57,67708,blockP,180,2022-02-21_11h53.29,orientation adjustment blockP,2021.2.3,MacIntel,50,,,,,,,
,,,,,,,,,,,,,,,,,,,,,,-46.11111111,-23,20,75,-30.11111111,7.111111111,2.844444444,-0.121751026,-0.374145007,1,0,0,0.585,submitButton,5.759722222,-0.121751026,-0.374145007,0,0,0,2,38,158,7,1,23,67708,blockP,180,2022-02-21_11h53.29,orientation adjustment blockP,2021.2.3,MacIntel,50,,,,,,,
,,,,,,,,,,,,,,,,,,,,,,25,28,20,75,34,6,2.4,-0.090287278,-0.417920657,1,0,0,0.73,submitButton,5.736551724,-0.14500684,-0.405608755,0,0,0,2,39,159,12,1,28,67708,blockP,180,2022-02-21_11h53.29,orientation adjustment blockP,2021.2.3,MacIntel,50,,,,,,,
,,,,,,,,,,,,,,,,,,,,,,-36.66666667,-22,20,75,-29.66666667,7.666666667,3.066666667,-0.139534884,-0.413816689,1,0,0,0.596,submitButton,5.71826484,-0.139534884,-0.413816689,0,0,0,2,40,160,6,1,22,67708,blockP,180,2022-02-21_11h53.29,orientation adjustment blockP,2021.2.3,MacIntel,50,,,,,,,
,,,,,,,,,,,,,,,,,,,,,,-52.22222222,-75,20,75,-81.22222222,6.222222222,2.488888889,0.201094391,-0.304377565,1,0,0,0.154,submitButton,5.696296296,-0.125854993,-0.404240766,0,0,0,2,41,161,59,1,75,67708,blockP,180,2022-02-21_11h53.29,orientation adjustment blockP,2021.2.3,MacIntel,50,,,,,,,
,,,,,,,,,,,,,,,,,,,,,,61.66666667,-21,20,75,-36.33333333,15.33333333,9.966666667,-0.123119015,-0.390560876,1,0,0,1.435,submitButton,5.72515015,-0.123119015,-0.390560876,0,0,0,2,42,162,5,1,21,67708,blockP,180,2022-02-21_11h53.29,orientation adjustment blockP,2021.2.3,MacIntel,50,,,,,,,
,,,,,,,,,,,,,,,,,,,,,,-26.66666667,59,20,75,65.33333333,6.333333333,2.533333333,-0.142270862,-0.409712722,1,0,0,0.588,submitButton,5.703728561,-0.142270862,-0.409712722,0,0,0,2,43,163,43,1,59,67708,blockP,180,2022-02-21_11h53.29,orientation adjustment blockP,2021.2.3,MacIntel,50,,,,,,,
,,,,,,,,,,,,,,,,,,,,,,56.66666667,19,20,75,42.66666667,23.66666667,15.38333333,0.426812585,-0.293433653,1,0,0,0.504,submitButton,5.768259259,0.395348837,-0.39876881,1,0,0,2,44,164,3,1,19,67708,blockP,180,2022-02-21_11h53.29,orientation adjustment blockP,2021.2.3,MacIntel,50,continueButton,,,,,,
,,,,,,,,,,,,,,,,,,,,,,-48.88888889,-52,20,75,-66.88888889,14.88888889,5.955555556,0.198358413,-0.312585499,1,0,0,0.542,submitButton,5.769499632,-0.113543092,-0.406976744,0,0,0,2,45,165,36,1,52,67708,blockP,180,2022-02-21_11h53.29,orientation adjustment blockP,2021.2.3,MacIntel,50,,,,,,,
,,,,,,,,,,,,,,,,,,,,,,-36.11111111,-60,20,75,-57.11111111,2.888888889,1.155555556,-0.128590971,-0.417920657,1,0,0,0.839,submitButton,5.739144737,-0.128590971,-0.417920657,0,0,0,2,46,166,44,1,60,67708,blockP,180,2022-02-21_11h53.29,orientation adjustment blockP,2021.2.3,MacIntel,50,,,,,,,
,,,,,,,,,,,,,,,,,,,,,,50.55555556,-72,20,75,-75.44444444,3.444444444,1.377777778,-0.128590971,-0.401504788,1,0,0,0.878,submitButton,5.71063907,-0.128590971,-0.401504788,0,0,0,2,47,167,56,1,72,67708,blockP,180,2022-02-21_11h53.29,orientation adjustment blockP,2021.2.3,MacIntel,50,,,,,,,
,,,,,,,,,,,,,,,,,,,,,,22.77777778,-40,20,75,-57.22222222,17.22222222,11.19444444,-0.127222982,-0.389192886,1,0,0,0.92,submitButton,5.746248196,-0.119015048,-0.391928865,0,0,0,2,48,168,24,1,40,67708,blockP,180,2022-02-21_11h53.29,orientation adjustment blockP,2021.2.3,MacIntel,50,,,,,,,
,,,,,,,,,,,,,,,,,,,,,,-32.22222222,29,20,75,32.77777778,3.777777778,1.511111111,-0.099863201,-0.387824897,1,0,0,0.505,submitButton,5.718924731,-0.099863201,-0.387824897,0,0,0,2,49,169,13,1,29,67708,blockP,180,2022-02-21_11h53.29,orientation adjustment blockP,2021.2.3,MacIntel,50,,,,,,,
,,,,,,,,,,,,,,,,,,,,,,-62.22222222,54,20,75,44.77777778,9.222222222,3.688888889,-0.095759234,-0.387824897,1,0,0,0.729,submitButton,5.705911681,-0.095759234,-0.387824897,0,0,0,2,50,170,38,1,54,67708,blockP,180,2022-02-21_11h53.29,orientation adjustment blockP,2021.2.3,MacIntel,50,,,,,,,
,,,,,,,,,,,,,,,,,,,,,,-73.88888889,-44,20,75,-218.8888889,5.111111111,2.044444444,-0.106703146,-0.397400821,1,0,0,1.637,submitButton,5.682590234,-0.106703146,-0.397400821,0,0,0,2,51,171,28,1,44,67708,blockP,180,2022-02-21_11h53.29,orientation adjustment blockP,2021.2.3,MacIntel,50,,,,,,,
,,,,,,,,,,,,,,,,,,,,,,27.22222222,51,20,75,61.22222222,10.22222222,4.088888889,0.399452804,-0.305745554,1,0,0,0.562,submitButton,5.672503516,-0.098495212,-0.400136799,0,0,0,2,52,172,35,1,51,67708,blockP,180,2022-02-21_11h53.29,orientation adjustment blockP,2021.2.3,MacIntel,50,,,,,,,
,,,,,,,,,,,,,,,,,,,,,,23.88888889,-17,20,75,-33.11111111,16.11111111,10.47222222,-0.127222982,-0.396032832,1,0,0,0.632,submitButton,5.702690426,-0.127222982,-0.396032832,0,0,0,2,53,173,1,1,17,67708,blockP,180,2022-02-21_11h53.29,orientation adjustment blockP,2021.2.3,MacIntel,50,,,,,,,
,,,,,,,,,,,,,,,,,,,,,,-46.11111111,49,20,75,39.88888889,9.111111111,3.644444444,-0.127222982,-0.409712722,1,0,0,0.588,submitButton,5.689826389,-0.127222982,-0.409712722,0,0,0,2,54,174,33,1,49,67708,blockP,180,2022-02-21_11h53.29,orientation adjustment blockP,2021.2.3,MacIntel,50,,,,,,,
,,,,,,,,,,,,,,,,,,,,,,-25.55555556,61,20,75,49.44444444,11.55555556,4.622222222,-0.106703146,-0.408344733,1,0,0,0.386,submitButton,5.683195307,-0.106703146,-0.408344733,0,0,0,2,55,175,45,1,61,67708,blockP,180,2022-02-21_11h53.29,orientation adjustment blockP,2021.2.3,MacIntel,50,,,,,,,
,,,,,,,,,,,,,,,,,,,,,,25.55555556,-45,20,75,-43.44444444,1.555555556,0.622222222,-0.076607387,-0.400136799,1,0,0,0.462,submitButton,5.651954733,-0.169630643,-0.415184679,0,0,0,2,56,176,29,1,45,67708,blockP,180,2022-02-21_11h53.29,orientation adjustment blockP,2021.2.3,MacIntel,50,,,,,,,
,,,,,,,,,,,,,,,,,,,,,,63.88888889,74,20,75,233.8888889,20.11111111,13.07222222,-0.158686731,-0.376880985,1,0,0,1.429,submitButton,5.697477846,-0.158686731,-0.376880985,0,0,0,2,57,177,58,1,74,67708,blockP,180,2022-02-21_11h53.29,orientation adjustment blockP,2021.2.3,MacIntel,50,,,,,,,
,,,,,,,,,,,,,,,,,,,,,,-68.88888889,-66,20,75,-241.8888889,4.111111111,1.644444444,0.402188782,-0.277017784,1,0,0,1.588,submitButton,5.672764228,-0.120383037,-0.408344733,0,0,0,2,58,178,50,1,66,67708,blockP,180,2022-02-21_11h53.29,orientation adjustment blockP,2021.2.3,MacIntel,50,,,,,,,
,,,,,,,,,,,,,,,,,,,,,,56.11111111,-39,20,75,-44.88888889,5.888888889,2.355555556,0.407660739,-0.285225718,1,0,0,0.387,submitButton,5.652659933,-0.117647059,-0.417920657,0,0,0,2,59,179,23,1,39,67708,blockP,180,2022-02-21_11h53.29,orientation adjustment blockP,2021.2.3,MacIntel,50,,,,,,,
,,,,,,,,,,,,,,,,,,,,,,,,,,,,,,,,,,,,,,,,,,,,,,,,67708,blockP,180,2022-02-21_11h53.29,orientation adjustment blockP,2021.2.3,MacIntel,50,,0.441860465,-0.387824897,1,0,0,EndButtonTxt
