consentMouse1.x,consentMouse1.y,consentMouse1.leftButton,consentMouse1.midButton,consentMouse1.rightButton,consentMouse1.clicked_name,consent_Mouse.x,consent_Mouse.y,consent_Mouse.leftButton,consent_Mouse.midButton,consent_Mouse.rightButton,consent_Mouse.clicked_name,startMouse.x,startMouse.y,startMouse.leftButton,startMouse.midButton,startMouse.rightButton,startMouse_2.x,startMouse_2.y,startMouse_2.leftButton,startMouse_2.midButton,startMouse_2.rightButton,start_distance,fixedOri,minimalDistance,maxOri,this_ori,accuracy,presented_accuracy,submitMouse.x,submitMouse.y,submitMouse.leftButton,submitMouse.midButton,submitMouse.rightButton,submitMouse.time,submitMouse.clicked_name,block_accuracy,continueMouse.x,continueMouse.y,continueMouse.leftButton,continueMouse.midButton,continueMouse.rightButton,trials.thisRepN,trials.thisTrialN,trials.thisN,trials.thisIndex,trials.ran,startOri,participant,condition,nTrials,date,expName,psychopyVersion,OS,frameRate,continueMouse.clicked_name,EndButtonMouse.x,EndButtonMouse.y,EndButtonMouse.leftButton,EndButtonMouse.midButton,EndButtonMouse.rightButton,EndButtonMouse.clicked_name
0.352222222,-0.4,1,0,0,consent_button1,0.352222222,-0.4,1,0,0,consent_button,0.352222222,-0.4,1,0,0,0.233333333,-0.393333333,1,0,0,-43.88888889,21,20,75,27.11111111,6.111111111,2.444444444,0.19,-0.302222222,1,0,0,2.321,submitButton,2.444444444,-0.17,-0.378888889,0,0,0,0,0,0,5,1,21,68803,blockP,180,2022-02-15_11h49.47,orientation adjustment blockP,2021.2.3,MacIntel,58.82352941,,,,,,,
,,,,,,,,,,,,,,,,,,,,,,53.33333333,-27,20,75,-20.66666667,6.333333333,2.533333333,-0.218888889,-0.368888889,1,0,0,0.869,submitButton,2.488888889,0.256666667,-0.303333333,0,0,0,0,1,1,11,1,27,68803,blockP,180,2022-02-15_11h49.47,orientation adjustment blockP,2021.2.3,MacIntel,58.82352941,,,,,,,
,,,,,,,,,,,,,,,,,,,,,,-55.55555556,-73,20,75,-262.5555556,9.555555556,3.822222222,-0.254444444,-0.4,1,0,0,2.273,submitButton,2.933333333,0.126666667,-0.343333333,0,0,0,0,2,2,57,1,73,68803,blockP,180,2022-02-15_11h49.47,orientation adjustment blockP,2021.2.3,MacIntel,58.82352941,,,,,,,
,,,,,,,,,,,,,,,,,,,,,,22.22222222,-50,20,75,-27.77777778,22.22222222,14.44444444,-0.281111111,-0.424444444,1,0,0,0.368,submitButton,14.44444444,0.018888889,-0.373333333,0,0,0,0,3,3,34,1,50,68803,blockP,180,2022-02-15_11h49.47,orientation adjustment blockP,2021.2.3,MacIntel,58.82352941,,,,,,,
,,,,,,,,,,,,,,,,,,,,,,-34.44444444,-64,20,75,-222.4444444,21.55555556,14.01111111,-0.216666667,-0.387777778,1,0,0,2.339,submitButton,14.22777778,0.007777778,-0.312222222,0,0,0,0,4,4,48,1,64,68803,blockP,180,2022-02-15_11h49.47,orientation adjustment blockP,2021.2.3,MacIntel,58.82352941,,,,,,,
,,,,,,,,,,,,,,,,,,,,,,38.33333333,42,20,75,213.3333333,8.666666667,3.466666667,0.176666667,-0.295555556,1,0,0,1.438,submitButton,10.64074074,0.174444444,-0.256666667,0,0,0,0,5,5,26,1,42,68803,blockP,180,2022-02-15_11h49.47,orientation adjustment blockP,2021.2.3,MacIntel,58.82352941,,,,,,,
,,,,,,,,,,,,,,,,,,,,,,65,60,20,75,218,22,14.3,-0.103333333,-0.382222222,1,0,0,2.256,submitButton,14.3,0.001111111,-0.346666667,0,0,0,0,6,6,44,1,60,68803,blockP,180,2022-02-15_11h49.47,orientation adjustment blockP,2021.2.3,MacIntel,58.82352941,,,,,,,
,,,,,,,,,,,,,,,,,,,,,,51.66666667,32,20,75,209.6666667,2.333333333,0.933333333,0.183333333,-0.291111111,1,0,0,1.721,submitButton,7.616666667,-0.228888889,-0.39,0,0,0,0,7,7,16,1,32,68803,blockP,180,2022-02-15_11h49.47,orientation adjustment blockP,2021.2.3,MacIntel,58.82352941,,,,,,,
,,,,,,,,,,,,,,,,,,,,,,-20.55555556,-70,20,75,-80.55555556,10.55555556,4.222222222,0.156666667,-0.298888889,1,0,0,0.201,submitButton,6.485185185,0.175555556,-0.232222222,0,0,0,0,8,8,54,1,70,68803,blockP,180,2022-02-15_11h49.47,orientation adjustment blockP,2021.2.3,MacIntel,58.82352941,,,,,,,
,,,,,,,,,,,,,,,,,,,,,,-27.22222222,57,20,75,24.77777778,32.22222222,25.77777778,0.358888889,-0.297777778,1,0,0,0.435,submitButton,25.77777778,0.094444444,-0.264444444,0,0,0,0,9,9,41,1,57,68803,blockP,180,2022-02-15_11h49.47,orientation adjustment blockP,2021.2.3,MacIntel,58.82352941,,,,,,,
,,,,,,,,,,,,,,,,,,,,,,-26.11111111,-28,20,75,-35.11111111,7.111111111,2.844444444,-0.137777778,-0.417777778,1,0,0,1.002,submitButton,14.31111111,-0.137777778,-0.417777778,0,0,0,0,10,10,12,1,28,68803,blockP,180,2022-02-15_11h49.47,orientation adjustment blockP,2021.2.3,MacIntel,58.82352941,,,,,,,
,,,,,,,,,,,,,,,,,,,,,,-42.77777778,-17,20,75,-30.77777778,13.77777778,5.511111111,-0.335555556,-0.443333333,1,0,0,1.053,submitButton,11.37777778,-0.004444444,-0.272222222,0,0,0,0,11,11,1,1,17,68803,blockP,180,2022-02-15_11h49.47,orientation adjustment blockP,2021.2.3,MacIntel,58.82352941,,,,,,,
,,,,,,,,,,,,,,,,,,,,,,-58.33333333,61,20,75,-113.3333333,5.666666667,2.266666667,-0.26,-0.411111111,1,0,0,2.439,submitButton,2.266666667,-0.26,-0.411111111,0,0,0,0,12,12,45,1,61,68803,blockP,180,2022-02-15_11h49.47,orientation adjustment blockP,2021.2.3,MacIntel,58.82352941,,,,,,,
,,,,,,,,,,,,,,,,,,,,,,-71.11111111,65,20,75,43.88888889,21.11111111,13.72222222,-0.112222222,-0.4,1,0,0,1.604,submitButton,7.994444444,0.133333333,-0.318888889,0,0,0,0,13,13,49,1,65,68803,blockP,180,2022-02-15_11h49.47,orientation adjustment blockP,2021.2.3,MacIntel,58.82352941,,,,,,,
,,,,,,,,,,,,,,,,,,,,,,-37.22222222,31,20,75,36.77777778,5.777777778,2.311111111,-0.201111111,-0.377777778,1,0,0,0.819,submitButton,6.1,0.363333333,-0.398888889,1,0,0,0,14,14,15,1,31,68803,blockP,180,2022-02-15_11h49.47,orientation adjustment blockP,2021.2.3,MacIntel,58.82352941,continueButton,,,,,,
,,,,,,,,,,,,,,,,,,,,,,-25.55555556,-37,20,75,-25.55555556,11.44444444,4.577777778,0.242222222,-0.325555556,1,0,0,0.618,submitButton,4.577777778,-0.274444444,-0.418888889,0,0,0,0,15,15,21,1,37,68803,blockP,180,2022-02-15_11h49.47,orientation adjustment blockP,2021.2.3,MacIntel,58.82352941,,,,,,,
,,,,,,,,,,,,,,,,,,,,,,30.55555556,-71,20,75,-20.44444444,50.55555556,42.97222222,-0.237777778,-0.394444444,1,0,0,0.417,submitButton,23.775,0.216666667,-0.31,0,0,0,0,16,16,55,1,71,68803,blockP,180,2022-02-15_11h49.47,orientation adjustment blockP,2021.2.3,MacIntel,58.82352941,,,,,,,
,,,,,,,,,,,,,,,,,,,,,,36.66666667,19,20,75,29.66666667,10.66666667,4.266666667,0.043333333,-0.317777778,1,0,0,0.067,submitButton,17.27222222,0.226666667,-0.27,0,0,0,0,17,17,3,1,19,68803,blockP,180,2022-02-15_11h49.47,orientation adjustment blockP,2021.2.3,MacIntel,58.82352941,,,,,,,
,,,,,,,,,,,,,,,,,,,,,,-66.66666667,-16,20,75,-40.66666667,24.66666667,16.03333333,0.213333333,-0.27,1,0,0,0.551,submitButton,16.9625,0.042222222,-0.306666667,0,0,0,0,18,18,0,1,16,68803,blockP,180,2022-02-15_11h49.47,orientation adjustment blockP,2021.2.3,MacIntel,58.82352941,,,,,,,
,,,,,,,,,,,,,,,,,,,,,,-55,59,20,75,34,25,16.25,0.138888889,-0.264444444,1,0,0,0.702,submitButton,16.82,0.021111111,-0.317777778,0,0,0,0,19,19,43,1,59,68803,blockP,180,2022-02-15_11h49.47,orientation adjustment blockP,2021.2.3,MacIntel,58.82352941,,,,,,,
,,,,,,,,,,,,,,,,,,,,,,61.11111111,36,20,75,60.11111111,24.11111111,15.67222222,0.402222222,-0.278888889,1,0,0,0.885,submitButton,16.6287037,0.164444444,-0.22,0,0,0,0,20,20,20,1,36,68803,blockP,180,2022-02-15_11h49.47,orientation adjustment blockP,2021.2.3,MacIntel,58.82352941,,,,,,,
,,,,,,,,,,,,,,,,,,,,,,57.77777778,33,20,75,58.77777778,25.77777778,16.75555556,0.23,-0.297777778,1,0,0,0.201,submitButton,16.6468254,0.193333333,-0.32,0,0,0,0,21,21,17,1,33,68803,blockP,180,2022-02-15_11h49.47,orientation adjustment blockP,2021.2.3,MacIntel,58.82352941,,,,,,,
,,,,,,,,,,,,,,,,,,,,,,-54.44444444,-43,20,75,-44.44444444,1.444444444,0.577777778,0.166666667,-0.29,1,0,0,0.334,submitButton,14.63819444,0.052222222,-0.43,0,0,0,0,22,22,27,1,43,68803,blockP,180,2022-02-15_11h49.47,orientation adjustment blockP,2021.2.3,MacIntel,58.82352941,,,,,,,
,,,,,,,,,,,,,,,,,,,,,,-32.22222222,-44,20,75,-37.22222222,6.777777778,2.711111111,-0.164444444,-0.39,1,0,0,1.605,submitButton,13.31296296,0.17,-0.323333333,0,0,0,0,23,23,28,1,44,68803,blockP,180,2022-02-15_11h49.47,orientation adjustment blockP,2021.2.3,MacIntel,58.82352941,,,,,,,
,,,,,,,,,,,,,,,,,,,,,,-46.66666667,-67,20,75,-53.66666667,13.33333333,5.333333333,-0.187777778,-0.37,1,0,0,2.791,submitButton,12.515,-0.126666667,-0.356666667,0,0,0,0,24,24,51,1,67,68803,blockP,180,2022-02-15_11h49.47,orientation adjustment blockP,2021.2.3,MacIntel,58.82352941,,,,,,,
,,,,,,,,,,,,,,,,,,,,,,-47.22222222,-24,20,75,-21.22222222,2.777777778,1.111111111,-0.252222222,-0.405555556,1,0,0,1.421,submitButton,11.47828283,-0.2,-0.38,0,0,0,0,25,25,8,1,24,68803,blockP,180,2022-02-15_11h49.47,orientation adjustment blockP,2021.2.3,MacIntel,58.82352941,,,,,,,
,,,,,,,,,,,,,,,,,,,,,,-73.33333333,-68,20,75,-228.3333333,19.66666667,12.78333333,0.388888889,-0.278888889,1,0,0,0.118,submitButton,11.58703704,-0.246666667,-0.393333333,0,0,0,0,26,26,52,1,68,68803,blockP,180,2022-02-15_11h49.47,orientation adjustment blockP,2021.2.3,MacIntel,58.82352941,,,,,,,
,,,,,,,,,,,,,,,,,,,,,,51.66666667,-30,20,75,-38.33333333,8.333333333,3.333333333,-0.192222222,-0.387777778,1,0,0,2.507,submitButton,10.95213675,-0.193333333,-0.387777778,0,0,0,0,27,27,14,1,30,68803,blockP,180,2022-02-15_11h49.47,orientation adjustment blockP,2021.2.3,MacIntel,58.82352941,,,,,,,
,,,,,,,,,,,,,,,,,,,,,,-41.11111111,54,20,75,49.88888889,4.111111111,1.644444444,0.155555556,-0.294444444,1,0,0,0.552,submitButton,10.28730159,-0.283333333,-0.38,0,0,0,0,28,28,38,1,54,68803,blockP,180,2022-02-15_11h49.47,orientation adjustment blockP,2021.2.3,MacIntel,58.82352941,,,,,,,
,,,,,,,,,,,,,,,,,,,,,,-36.11111111,20,20,75,35.88888889,15.88888889,10.32777778,-0.283333333,-0.405555556,1,0,0,1.303,submitButton,10.29,0.311111111,-0.384444444,1,0,0,0,29,29,4,1,20,68803,blockP,180,2022-02-15_11h49.47,orientation adjustment blockP,2021.2.3,MacIntel,58.82352941,continueButton,,,,,,
,,,,,,,,,,,,,,,,,,,,,,-31.66666667,25,20,75,33.33333333,8.333333333,3.333333333,-0.276666667,-0.421111111,1,0,0,0.952,submitButton,9.855208333,-0.264444444,-0.422222222,0,0,0,0,30,30,9,1,25,68803,blockP,180,2022-02-15_11h49.47,orientation adjustment blockP,2021.2.3,MacIntel,58.82352941,,,,,,,
,,,,,,,,,,,,,,,,,,,,,,-37.22222222,-58,20,75,-71.22222222,13.22222222,5.288888889,0.215555556,-0.295555556,1,0,0,0.3,submitButton,9.586601307,-0.02,-0.346666667,0,0,0,0,31,31,42,1,58,68803,blockP,180,2022-02-15_11h49.47,orientation adjustment blockP,2021.2.3,MacIntel,58.82352941,,,,,,,
,,,,,,,,,,,,,,,,,,,,,,-46.66666667,74,20,75,42.33333333,31.66666667,25.33333333,0.235555556,-0.293333333,1,0,0,0.183,submitButton,10.46141975,-0.104444444,-0.346666667,0,0,0,0,32,32,58,1,74,68803,blockP,180,2022-02-15_11h49.47,orientation adjustment blockP,2021.2.3,MacIntel,58.82352941,,,,,,,
,,,,,,,,,,,,,,,,,,,,,,-56.66666667,53,20,75,36.33333333,16.66666667,10.83333333,-0.208888889,-0.411111111,1,0,0,0.968,submitButton,10.48099415,-0.208888889,-0.411111111,0,0,0,0,33,33,37,1,53,68803,blockP,180,2022-02-15_11h49.47,orientation adjustment blockP,2021.2.3,MacIntel,58.82352941,,,,,,,
,,,,,,,,,,,,,,,,,,,,,,-25,-23,20,75,-48,25,16.25,-0.298888889,-0.387777778,1,0,0,0.351,submitButton,10.76944444,-0.298888889,-0.387777778,0,0,0,0,34,34,7,1,23,68803,blockP,180,2022-02-15_11h49.47,orientation adjustment blockP,2021.2.3,MacIntel,58.82352941,,,,,,,
,,,,,,,,,,,,,,,,,,,,,,-72.77777778,-35,20,75,-25.77777778,9.222222222,3.688888889,0.157777778,-0.295555556,1,0,0,1.288,submitButton,10.43227513,0.176666667,-0.411111111,0,0,0,0,35,35,19,1,35,68803,blockP,180,2022-02-15_11h49.47,orientation adjustment blockP,2021.2.3,MacIntel,58.82352941,,,,,,,
,,,,,,,,,,,,,,,,,,,,,,-33.33333333,62,20,75,50.66666667,11.33333333,4.533333333,0.232222222,-0.321111111,1,0,0,0.202,submitButton,10.16414141,-0.154444444,-0.374444444,0,0,0,0,36,36,46,1,62,68803,blockP,180,2022-02-15_11h49.47,orientation adjustment blockP,2021.2.3,MacIntel,58.82352941,,,,,,,
,,,,,,,,,,,,,,,,,,,,,,51.66666667,-75,20,75,-49.33333333,25.66666667,16.68333333,0.32,-0.312222222,1,0,0,0.235,submitButton,10.44758454,-0.216666667,-0.384444444,0,0,0,0,37,37,59,1,75,68803,blockP,180,2022-02-15_11h49.47,orientation adjustment blockP,2021.2.3,MacIntel,58.82352941,,,,,,,
,,,,,,,,,,,,,,,,,,,,,,71.66666667,-39,20,75,-39.33333333,0.333333333,0.133333333,0.383333333,-0.292222222,1,0,0,0.184,submitButton,10.01782407,-0.324444444,-0.418888889,0,0,0,0,38,38,23,1,39,68803,blockP,180,2022-02-15_11h49.47,orientation adjustment blockP,2021.2.3,MacIntel,58.82352941,,,,,,,
,,,,,,,,,,,,,,,,,,,,,,-42.77777778,29,20,75,36.22222222,7.222222222,2.888888889,0.195555556,-0.306666667,1,0,0,0.635,submitButton,9.732666667,-0.203333333,-0.374444444,0,0,0,0,39,39,13,1,29,68803,blockP,180,2022-02-15_11h49.47,orientation adjustment blockP,2021.2.3,MacIntel,58.82352941,,,,,,,
,,,,,,,,,,,,,,,,,,,,,,66.11111111,55,20,75,221.1111111,13.88888889,5.555555556,-0.057777778,-0.333333333,1,0,0,2.122,submitButton,9.572008547,0.051111111,-0.262222222,0,0,0,0,40,40,39,1,55,68803,blockP,180,2022-02-15_11h49.47,orientation adjustment blockP,2021.2.3,MacIntel,58.82352941,,,,,,,
,,,,,,,,,,,,,,,,,,,,,,41.11111111,-26,20,75,-41.88888889,15.88888889,10.32777778,-0.164444444,-0.408888889,1,0,0,1.22,submitButton,9.6,-0.164444444,-0.408888889,0,0,0,0,41,41,10,1,26,68803,blockP,180,2022-02-15_11h49.47,orientation adjustment blockP,2021.2.3,MacIntel,58.82352941,,,,,,,
,,,,,,,,,,,,,,,,,,,,,,-36.66666667,-63,20,75,-53.66666667,9.333333333,3.733333333,-0.204444444,-0.414444444,1,0,0,1.052,submitButton,9.39047619,-0.204444444,-0.414444444,0,0,0,0,42,42,47,1,63,68803,blockP,180,2022-02-15_11h49.47,orientation adjustment blockP,2021.2.3,MacIntel,58.82352941,,,,,,,
,,,,,,,,,,,,,,,,,,,,,,-56.66666667,72,20,75,56.33333333,15.66666667,10.18333333,0.146666667,-0.302222222,1,0,0,0.067,submitButton,9.417816092,-0.241111111,-0.41,0,0,0,0,43,43,56,1,72,68803,blockP,180,2022-02-15_11h49.47,orientation adjustment blockP,2021.2.3,MacIntel,58.82352941,,,,,,,
,,,,,,,,,,,,,,,,,,,,,,66.11111111,69,20,75,160.1111111,88.88888889,80,0.212222222,-0.286666667,1,0,0,0.284,submitButton,11.77055556,0.417777778,-0.416666667,1,0,0,0,44,44,53,1,69,68803,blockP,180,2022-02-15_11h49.47,orientation adjustment blockP,2021.2.3,MacIntel,58.82352941,continueButton,,,,,,
,,,,,,,,,,,,,,,,,,,,,,45.55555556,-22,20,75,-33.44444444,11.44444444,4.577777778,0.136666667,-0.381111111,1,0,0,1.287,submitButton,11.53853047,-0.065555556,-0.383333333,0,0,0,0,45,45,6,1,22,68803,blockP,180,2022-02-15_11h49.47,orientation adjustment blockP,2021.2.3,MacIntel,58.82352941,,,,,,,
,,,,,,,,,,,,,,,,,,,,,,21.66666667,38,20,75,28.66666667,9.333333333,3.733333333,0.408888889,-0.283333333,1,0,0,1.672,submitButton,11.29461806,0.136666667,-0.21,0,0,0,0,46,46,22,1,38,68803,blockP,180,2022-02-15_11h49.47,orientation adjustment blockP,2021.2.3,MacIntel,58.82352941,,,,,,,
,,,,,,,,,,,,,,,,,,,,,,57.22222222,18,20,75,31.22222222,13.22222222,5.288888889,-0.165555556,-0.405555556,1,0,0,1.504,submitButton,11.11262626,-0.165555556,-0.405555556,0,0,0,0,47,47,2,1,18,68803,blockP,180,2022-02-15_11h49.47,orientation adjustment blockP,2021.2.3,MacIntel,58.82352941,,,,,,,
,,,,,,,,,,,,,,,,,,,,,,-32.77777778,49,20,75,39.22222222,9.777777778,3.911111111,0.2,-0.35,1,0,0,0.033,submitButton,10.90081699,0.175555556,-0.324444444,0,0,0,0,48,48,33,1,49,68803,blockP,180,2022-02-15_11h49.47,orientation adjustment blockP,2021.2.3,MacIntel,58.82352941,,,,,,,
,,,,,,,,,,,,,,,,,,,,,,37.22222222,-41,20,75,138.2222222,0.777777778,0.311111111,0.218888889,-0.284444444,1,0,0,2.155,submitButton,10.59825397,-0.163333333,-0.397777778,0,0,0,0,49,49,25,1,41,68803,blockP,180,2022-02-15_11h49.47,orientation adjustment blockP,2021.2.3,MacIntel,58.82352941,,,,,,,
,,,,,,,,,,,,,,,,,,,,,,-21.11111111,-52,20,75,-45.11111111,6.888888889,2.755555556,-0.284444444,-0.414444444,1,0,0,0.567,submitButton,10.38040123,-0.145555556,-0.298888889,0,0,0,0,50,50,36,1,52,68803,blockP,180,2022-02-15_11h49.47,orientation adjustment blockP,2021.2.3,MacIntel,58.82352941,,,,,,,
,,,,,,,,,,,,,,,,,,,,,,69.44444444,34,20,75,29.44444444,4.555555556,1.822222222,0.385555556,-0.286666667,1,0,0,0.653,submitButton,10.1490991,-0.233333333,-0.417777778,0,0,0,0,51,51,18,1,34,68803,blockP,180,2022-02-15_11h49.47,orientation adjustment blockP,2021.2.3,MacIntel,58.82352941,,,,,,,
,,,,,,,,,,,,,,,,,,,,,,-50.55555556,47,20,75,32.44444444,14.55555556,5.822222222,-0.253333333,-0.4,1,0,0,1.069,submitButton,10.03523392,-0.253333333,-0.398888889,0,0,0,0,52,52,31,1,47,68803,blockP,180,2022-02-15_11h49.47,orientation adjustment blockP,2021.2.3,MacIntel,58.82352941,,,,,,,
,,,,,,,,,,,,,,,,,,,,,,-60,-45,20,75,-49,4,1.6,0.163333333,-0.294444444,1,0,0,0.634,submitButton,9.818945869,-0.244444444,-0.401111111,0,0,0,0,53,53,29,1,45,68803,blockP,180,2022-02-15_11h49.47,orientation adjustment blockP,2021.2.3,MacIntel,58.82352941,,,,,,,
,,,,,,,,,,,,,,,,,,,,,,67.22222222,-56,20,75,143.2222222,19.22222222,12.49444444,0.155555556,-0.293333333,1,0,0,1.788,submitButton,9.885833333,-0.486666667,-0.372222222,0,0,0,0,54,54,40,1,56,68803,blockP,180,2022-02-15_11h49.47,orientation adjustment blockP,2021.2.3,MacIntel,58.82352941,,,,,,,
,,,,,,,,,,,,,,,,,,,,,,28.88888889,-66,20,75,-48.11111111,17.88888889,11.62777778,0.392222222,-0.317777778,1,0,0,0.151,submitButton,9.928319783,-0.27,-0.404444444,0,0,0,0,55,55,50,1,66,68803,blockP,180,2022-02-15_11h49.47,orientation adjustment blockP,2021.2.3,MacIntel,58.82352941,,,,,,,
,,,,,,,,,,,,,,,,,,,,,,-51.66666667,-40,20,75,-41.66666667,1.666666667,0.666666667,0.233333333,-0.284444444,1,0,0,0.87,submitButton,9.707804233,-0.111111111,-0.395555556,0,0,0,0,56,56,24,1,40,68803,blockP,180,2022-02-15_11h49.47,orientation adjustment blockP,2021.2.3,MacIntel,58.82352941,,,,,,,
,,,,,,,,,,,,,,,,,,,,,,64.44444444,46,20,75,25.44444444,20.55555556,13.36111111,0.413333333,-0.296666667,1,0,0,0.469,submitButton,9.792764858,-0.122222222,-0.395555556,0,0,0,0,57,57,30,1,46,68803,blockP,180,2022-02-15_11h49.47,orientation adjustment blockP,2021.2.3,MacIntel,58.82352941,,,,,,,
,,,,,,,,,,,,,,,,,,,,,,-48.88888889,51,20,75,39.11111111,11.88888889,4.755555556,-0.147777778,-0.408888889,1,0,0,1.304,submitButton,9.678282828,-0.147777778,-0.408888889,0,0,0,0,58,58,35,1,51,68803,blockP,180,2022-02-15_11h49.47,orientation adjustment blockP,2021.2.3,MacIntel,58.82352941,,,,,,,
,,,,,,,,,,,,,,,,,,,,,,-52.77777778,48,20,75,34.22222222,13.77777778,5.511111111,-0.202222222,-0.4,1,0,0,0.82,submitButton,9.585679012,0.304444444,-0.394444444,1,0,0,0,59,59,32,1,48,68803,blockP,180,2022-02-15_11h49.47,orientation adjustment blockP,2021.2.3,MacIntel,58.82352941,continueButton,,,,,,
,,,,,,,,,,,,,,,,,,,,,,35.55555556,-27,20,75,-38.44444444,11.44444444,4.577777778,0.384444444,-0.307777778,1,0,0,0.167,submitButton,9.476811594,0.12,-0.242222222,0,0,0,1,0,60,11,1,27,68803,blockP,180,2022-02-15_11h49.47,orientation adjustment blockP,2021.2.3,MacIntel,58.82352941,,,,,,,
,,,,,,,,,,,,,,,,,,,,,,66.11111111,16,20,75,30.11111111,14.11111111,5.644444444,0.362222222,-0.297777778,1,0,0,0.085,submitButton,9.395271868,-0.203333333,-0.405555556,0,0,0,1,1,61,0,1,16,68803,blockP,180,2022-02-15_11h49.47,orientation adjustment blockP,2021.2.3,MacIntel,58.82352941,,,,,,,
,,,,,,,,,,,,,,,,,,,,,,-34.44444444,-17,20,75,-24.44444444,7.444444444,2.977777778,-0.204444444,-0.41,1,0,0,0.87,submitButton,9.261574074,0.026666667,-0.398888889,0,0,0,1,2,62,1,1,17,68803,blockP,180,2022-02-15_11h49.47,orientation adjustment blockP,2021.2.3,MacIntel,58.82352941,,,,,,,
,,,,,,,,,,,,,,,,,,,,,,50,69,20,75,58,11,4.4,-0.438888889,-0.434444444,1,0,0,1.387,submitButton,9.162358277,-0.444444444,-0.411111111,0,0,0,1,3,63,53,1,69,68803,blockP,180,2022-02-15_11h49.47,orientation adjustment blockP,2021.2.3,MacIntel,58.82352941,,,,,,,
,,,,,,,,,,,,,,,,,,,,,,-44.44444444,-18,20,75,-62.44444444,44.44444444,35.55555556,-0.444444444,-0.411111111,1,0,0,1.537,submitButton,9.690222222,-0.444444444,-0.408888889,0,0,0,1,4,64,2,1,18,68803,blockP,180,2022-02-15_11h49.47,orientation adjustment blockP,2021.2.3,MacIntel,58.82352941,,,,,,,
,,,,,,,,,,,,,,,,,,,,,,50.55555556,21,20,75,23.55555556,2.555555556,1.022222222,0.324444444,-0.266666667,1,0,0,0.518,submitButton,9.520261438,-0.396666667,-0.407777778,0,0,0,1,5,65,5,1,21,68803,blockP,180,2022-02-15_11h49.47,orientation adjustment blockP,2021.2.3,MacIntel,58.82352941,,,,,,,
,,,,,,,,,,,,,,,,,,,,,,-41.11111111,23,20,75,31.88888889,8.888888889,3.555555556,-0.227777778,-0.411111111,1,0,0,1.788,submitButton,9.405555556,-0.227777778,-0.411111111,0,0,0,1,6,66,7,1,23,68803,blockP,180,2022-02-15_11h49.47,orientation adjustment blockP,2021.2.3,MacIntel,58.82352941,,,,,,,
,,,,,,,,,,,,,,,,,,,,,,-50,-70,20,75,-60,10,4,0.204444444,-0.316666667,1,0,0,0.601,submitButton,9.303563941,-0.307777778,-0.416666667,0,0,0,1,7,67,54,1,70,68803,blockP,180,2022-02-15_11h49.47,orientation adjustment blockP,2021.2.3,MacIntel,58.82352941,,,,,,,
,,,,,,,,,,,,,,,,,,,,,,43.88888889,44,20,75,42.88888889,1.111111111,0.444444444,-0.293333333,-0.416666667,1,0,0,0.72,submitButton,9.139506173,-0.068888889,-0.351111111,0,0,0,1,8,68,28,1,44,68803,blockP,180,2022-02-15_11h49.47,orientation adjustment blockP,2021.2.3,MacIntel,58.82352941,,,,,,,
,,,,,,,,,,,,,,,,,,,,,,40.55555556,19,20,75,27.55555556,8.555555556,3.422222222,0.348888889,-0.283333333,1,0,0,0.216,submitButton,9.035555556,-0.023333333,-0.293333333,0,0,0,1,9,69,3,1,19,68803,blockP,180,2022-02-15_11h49.47,orientation adjustment blockP,2021.2.3,MacIntel,58.82352941,,,,,,,
,,,,,,,,,,,,,,,,,,,,,,-47.77777778,-25,20,75,-34.77777778,9.777777778,3.911111111,-0.286666667,-0.44,1,0,0,0.92,submitButton,8.944047619,0.065555556,-0.333333333,0,0,0,1,10,70,9,1,25,68803,blockP,180,2022-02-15_11h49.47,orientation adjustment blockP,2021.2.3,MacIntel,58.82352941,,,,,,,
,,,,,,,,,,,,,,,,,,,,,,-73.88888889,33,20,75,-145.8888889,1.111111111,0.444444444,0.412222222,-0.292222222,1,0,0,1.419,submitButton,8.794931774,-0.105555556,-0.381111111,0,0,0,1,11,71,17,1,33,68803,blockP,180,2022-02-15_11h49.47,orientation adjustment blockP,2021.2.3,MacIntel,58.82352941,,,,,,,
,,,,,,,,,,,,,,,,,,,,,,66.11111111,-54,20,75,144.1111111,18.11111111,11.77222222,0.176666667,-0.287777778,1,0,0,1.704,submitButton,8.846264368,-0.332222222,-0.413333333,0,0,0,1,12,72,38,1,54,68803,blockP,180,2022-02-15_11h49.47,orientation adjustment blockP,2021.2.3,MacIntel,58.82352941,,,,,,,
,,,,,,,,,,,,,,,,,,,,,,-65.55555556,-57,20,75,-32.55555556,24.44444444,15.88888889,0.184444444,-0.285555556,1,0,0,1.271,submitButton,8.965630885,-0.322222222,-0.424444444,0,0,0,1,13,73,41,1,57,68803,blockP,180,2022-02-15_11h49.47,orientation adjustment blockP,2021.2.3,MacIntel,58.82352941,,,,,,,
,,,,,,,,,,,,,,,,,,,,,,-27.77777778,51,20,75,45.22222222,5.777777778,2.311111111,0.207777778,-0.303333333,1,0,0,0.267,submitButton,8.854722222,0.362195122,-0.4,1,0,0,1,14,74,35,1,51,68803,blockP,180,2022-02-15_11h49.47,orientation adjustment blockP,2021.2.3,MacIntel,58.82352941,continueButton,,,,,,
,,,,,,,,,,,,,,,,,,,,,,33.33333333,42,20,75,41.33333333,0.666666667,0.266666667,-0.292682927,-0.496341463,1,0,0,1.454,submitButton,8.713934426,-0.159756098,-0.415853659,0,0,0,1,15,75,26,1,42,68803,blockP,180,2022-02-15_11h49.47,orientation adjustment blockP,2021.2.3,MacIntel,58.82352941,,,,,,,
,,,,,,,,,,,,,,,,,,,,,,-60.55555556,75,20,75,71.44444444,3.555555556,1.422222222,-0.185365854,-0.447560976,1,0,0,0.987,submitButton,8.596326165,-0.241463415,-0.393902439,0,0,0,1,16,76,59,1,75,68803,blockP,180,2022-02-15_11h49.47,orientation adjustment blockP,2021.2.3,MacIntel,58.82352941,,,,,,,
,,,,,,,,,,,,,,,,,,,,,,56.66666667,37,20,75,20.66666667,16.33333333,10.61666667,0.453658537,-0.32195122,1,0,0,1.053,submitButton,8.628395062,-0.137804878,-0.304878049,0,0,0,1,17,77,21,1,37,68803,blockP,180,2022-02-15_11h49.47,orientation adjustment blockP,2021.2.3,MacIntel,58.82352941,,,,,,,
,,,,,,,,,,,,,,,,,,,,,,27.77777778,34,20,75,34.77777778,0.777777778,0.311111111,0.37804878,-0.335365854,1,0,0,0.301,submitButton,8.4984375,-0.17804878,-0.282926829,0,0,0,1,18,78,18,1,34,68803,blockP,180,2022-02-15_11h49.47,orientation adjustment blockP,2021.2.3,MacIntel,58.82352941,,,,,,,
,,,,,,,,,,,,,,,,,,,,,,39.44444444,73,20,75,60.44444444,12.55555556,5.022222222,0.409756098,-0.351219512,1,0,0,0.067,submitButton,8.444957265,-0.215853659,-0.42804878,0,0,0,1,19,79,57,1,73,68803,blockP,180,2022-02-15_11h49.47,orientation adjustment blockP,2021.2.3,MacIntel,58.82352941,,,,,,,
,,,,,,,,,,,,,,,,,,,,,,69.44444444,-46,20,75,144.4444444,10.44444444,4.177777778,0.224390244,-0.32195122,1,0,0,1.753,submitButton,8.38030303,-0.580487805,-0.391463415,0,0,0,1,20,80,30,1,46,68803,blockP,180,2022-02-15_11h49.47,orientation adjustment blockP,2021.2.3,MacIntel,58.82352941,,,,,,,
,,,,,,,,,,,,,,,,,,,,,,43.88888889,-64,20,75,-46.11111111,17.88888889,11.62777778,0.46097561,-0.320731707,1,0,0,0.233,submitButton,8.428772803,-0.546341463,-0.453658537,0,0,0,1,21,81,48,1,64,68803,blockP,180,2022-02-15_11h49.47,orientation adjustment blockP,2021.2.3,MacIntel,58.82352941,,,,,,,
,,,,,,,,,,,,,,,,,,,,,,-61.11111111,53,20,75,-16.11111111,69.11111111,58.74444444,0.43902439,-0.343902439,1,0,0,0.686,submitButton,9.16870915,-0.65,-0.351219512,0,0,0,1,22,82,37,1,53,68803,blockP,180,2022-02-15_11h49.47,orientation adjustment blockP,2021.2.3,MacIntel,58.82352941,,,,,,,
,,,,,,,,,,,,,,,,,,,,,,48.88888889,74,20,75,234.8888889,19.11111111,12.42222222,0.240243902,-0.334146341,1,0,0,0.016,submitButton,9.215861514,-0.624390244,-0.423170732,0,0,0,1,23,83,58,1,74,68803,blockP,180,2022-02-15_11h49.47,orientation adjustment blockP,2021.2.3,MacIntel,58.82352941,,,,,,,
,,,,,,,,,,,,,,,,,,,,,,-26.11111111,-49,20,75,-31.11111111,17.88888889,11.62777778,0.175609756,-0.335365854,1,0,0,0.936,submitButton,9.25031746,-0.508536585,-0.418292683,0,0,0,1,24,84,33,1,49,68803,blockP,180,2022-02-15_11h49.47,orientation adjustment blockP,2021.2.3,MacIntel,58.82352941,,,,,,,
,,,,,,,,,,,,,,,,,,,,,,-30,58,20,75,28,30,24,-0.435365854,-0.419512195,1,0,0,0.802,submitButton,9.458059468,-0.435365854,-0.419512195,0,0,0,1,25,85,42,1,58,68803,blockP,180,2022-02-15_11h49.47,orientation adjustment blockP,2021.2.3,MacIntel,58.82352941,,,,,,,
,,,,,,,,,,,,,,,,,,,,,,-47.77777778,63,20,75,46.22222222,16.77777778,10.90555556,-0.336585366,-0.45,1,0,0,1.003,submitButton,9.47816358,-0.520731707,-0.42195122,0,0,0,1,26,86,47,1,63,68803,blockP,180,2022-02-15_11h49.47,orientation adjustment blockP,2021.2.3,MacIntel,58.82352941,,,,,,,
,,,,,,,,,,,,,,,,,,,,,,28.33333333,-48,20,75,-34.66666667,13.33333333,5.333333333,0.420731707,-0.329268293,1,0,0,0.451,submitButton,9.421385084,-0.56097561,-0.414634146,0,0,0,1,27,87,32,1,48,68803,blockP,180,2022-02-15_11h49.47,orientation adjustment blockP,2021.2.3,MacIntel,58.82352941,,,,,,,
,,,,,,,,,,,,,,,,,,,,,,-21.11111111,-22,20,75,-22.11111111,0.111111111,0.044444444,-0.473170732,-0.431707317,1,0,0,0.635,submitButton,9.29466967,-0.465853659,-0.457317073,0,0,0,1,28,88,6,1,22,68803,blockP,180,2022-02-15_11h49.47,orientation adjustment blockP,2021.2.3,MacIntel,58.82352941,,,,,,,
,,,,,,,,,,,,,,,,,,,,,,-40,61,20,75,50,11,4.4,0.217073171,-0.331707317,1,0,0,0.584,submitButton,9.229407407,0.28902439,-0.412195122,1,0,0,1,29,89,45,1,61,68803,blockP,180,2022-02-15_11h49.47,orientation adjustment blockP,2021.2.3,MacIntel,58.82352941,continueButton,,,,,,
,,,,,,,,,,,,,,,,,,,,,,57.77777778,52,20,75,216.7777778,15.22222222,9.894444444,-0.368292683,-0.451219512,1,0,0,2.741,submitButton,9.238157895,-0.364634146,-0.334146341,0,0,0,1,30,90,36,1,52,68803,blockP,180,2022-02-15_11h49.47,orientation adjustment blockP,2021.2.3,MacIntel,58.82352941,,,,,,,
,,,,,,,,,,,,,,,,,,,,,,47.77777778,-26,20,75,-36.22222222,10.22222222,4.088888889,-0.467073171,-0.430487805,1,0,0,1.555,submitButton,9.171284271,0.007317073,-0.291463415,0,0,0,1,31,91,10,1,26,68803,blockP,180,2022-02-15_11h49.47,orientation adjustment blockP,2021.2.3,MacIntel,58.82352941,,,,,,,
,,,,,,,,,,,,,,,,,,,,,,62.22222222,24,20,75,220.2222222,16.22222222,10.54444444,-0.541463415,-0.434146341,1,0,0,2.624,submitButton,9.188888889,-0.370731707,-0.319512195,0,0,0,1,32,92,8,1,24,68803,blockP,180,2022-02-15_11h49.47,orientation adjustment blockP,2021.2.3,MacIntel,58.82352941,,,,,,,
,,,,,,,,,,,,,,,,,,,,,,-60.55555556,67,20,75,64.44444444,2.555555556,1.022222222,0.206097561,-0.312195122,1,0,0,0.434,submitButton,9.085513361,-0.485365854,-0.424390244,0,0,0,1,33,93,51,1,67,68803,blockP,180,2022-02-15_11h49.47,orientation adjustment blockP,2021.2.3,MacIntel,58.82352941,,,,,,,
,,,,,,,,,,,,,,,,,,,,,,-37.77777778,66,20,75,58.22222222,7.777777778,3.111111111,0.217073171,-0.308536585,1,0,0,0.469,submitButton,9.010833333,-0.17804878,-0.329268293,0,0,0,1,34,94,50,1,66,68803,blockP,180,2022-02-15_11h49.47,orientation adjustment blockP,2021.2.3,MacIntel,58.82352941,,,,,,,
,,,,,,,,,,,,,,,,,,,,,,-63.88888889,-62,20,75,-251.8888889,9.888888889,3.955555556,-0.21097561,-0.432926829,1,0,0,2.422,submitButton,8.948422497,-0.503658537,-0.414634146,0,0,0,1,35,95,46,1,62,68803,blockP,180,2022-02-15_11h49.47,orientation adjustment blockP,2021.2.3,MacIntel,58.82352941,,,,,,,
,,,,,,,,,,,,,,,,,,,,,,-39.44444444,-71,20,75,-72.44444444,1.444444444,0.577777778,-0.617073171,-0.432926829,1,0,0,1.219,submitButton,8.846341463,-0.495121951,-0.31097561,0,0,0,1,36,96,55,1,71,68803,blockP,180,2022-02-15_11h49.47,orientation adjustment blockP,2021.2.3,MacIntel,58.82352941,,,,,,,
,,,,,,,,,,,,,,,,,,,,,,-68.88888889,20,20,75,-151.8888889,8.111111111,3.244444444,0.429268293,-0.337804878,1,0,0,1.772,submitButton,8.778848728,-0.580487805,-0.393902439,0,0,0,1,37,97,4,1,20,68803,blockP,180,2022-02-15_11h49.47,orientation adjustment blockP,2021.2.3,MacIntel,58.82352941,,,,,,,
,,,,,,,,,,,,,,,,,,,,,,-37.22222222,56,20,75,48.77777778,7.222222222,2.888888889,-0.56097561,-0.417073171,1,0,0,0.985,submitButton,8.708730159,-0.112195122,-0.298780488,0,0,0,1,38,98,40,1,56,68803,blockP,180,2022-02-15_11h49.47,orientation adjustment blockP,2021.2.3,MacIntel,58.82352941,,,,,,,
,,,,,,,,,,,,,,,,,,,,,,-40,-59,20,75,-46,13,5.2,-0.584146341,-0.417073171,1,0,0,1.137,submitButton,8.66745098,0.135365854,-0.356097561,0,0,0,1,39,99,43,1,59,68803,blockP,180,2022-02-15_11h49.47,orientation adjustment blockP,2021.2.3,MacIntel,58.82352941,,,,,,,
,,,,,,,,,,,,,,,,,,,,,,-68.33333333,-65,20,75,-44.33333333,20.66666667,13.43333333,-0.509756098,-0.403658537,1,0,0,1.704,submitButton,8.722868217,0.143902439,-0.374390244,0,0,0,1,40,100,49,1,65,68803,blockP,180,2022-02-15_11h49.47,orientation adjustment blockP,2021.2.3,MacIntel,58.82352941,,,,,,,
,,,,,,,,,,,,,,,,,,,,,,-63.33333333,43,20,75,-127.3333333,9.666666667,3.866666667,-0.502439024,-0.398780488,1,0,0,2.423,submitButton,8.667049808,-0.013414634,-0.290243902,0,0,0,1,41,101,27,1,43,68803,blockP,180,2022-02-15_11h49.47,orientation adjustment blockP,2021.2.3,MacIntel,58.82352941,,,,,,,
,,,,,,,,,,,,,,,,,,,,,,38.88888889,-29,20,75,151.8888889,0.888888889,0.355555556,-0.51097561,-0.407317073,1,0,0,2.824,submitButton,8.57260101,-0.007317073,-0.443902439,0,0,0,1,42,102,13,1,29,68803,blockP,180,2022-02-15_11h49.47,orientation adjustment blockP,2021.2.3,MacIntel,58.82352941,,,,,,,
,,,,,,,,,,,,,,,,,,,,,,-45.55555556,30,20,75,-148.5555556,1.444444444,0.577777778,0.445121951,-0.347560976,1,0,0,1.721,submitButton,8.482771536,0.107317073,-0.226829268,0,0,0,1,43,103,14,1,30,68803,blockP,180,2022-02-15_11h49.47,orientation adjustment blockP,2021.2.3,MacIntel,58.82352941,,,,,,,
,,,,,,,,,,,,,,,,,,,,,,-63.33333333,50,20,75,-147.3333333,17.33333333,11.26666667,0.443902439,-0.365853659,1,0,0,0.634,submitButton,8.513703704,0.247560976,-0.413414634,1,0,0,1,44,104,34,1,50,68803,blockP,180,2022-02-15_11h49.47,orientation adjustment blockP,2021.2.3,MacIntel,58.82352941,continueButton,,,,,,
,,,,,,,,,,,,,,,,,,,,,,-70,-35,20,75,-24,11,4.4,-0.559756098,-0.393902439,1,0,0,1.354,submitButton,8.468498168,-0.103658537,-0.343902439,0,0,0,1,45,105,19,1,35,68803,blockP,180,2022-02-15_11h49.47,orientation adjustment blockP,2021.2.3,MacIntel,58.82352941,,,,,,,
,,,,,,,,,,,,,,,,,,,,,,-43.33333333,45,20,75,-124.3333333,10.66666667,4.266666667,-0.437804878,-0.448780488,1,0,0,2.255,submitButton,8.422826087,0.070731707,-0.354878049,0,0,0,1,46,106,29,1,45,68803,blockP,180,2022-02-15_11h49.47,orientation adjustment blockP,2021.2.3,MacIntel,58.82352941,,,,,,,
,,,,,,,,,,,,,,,,,,,,,,53.88888889,60,20,75,46.88888889,13.11111111,5.244444444,0.425609756,-0.345121951,1,0,0,0.017,submitButton,8.38864994,0.074390244,-0.374390244,0,0,0,1,47,107,44,1,60,68803,blockP,180,2022-02-15_11h49.47,orientation adjustment blockP,2021.2.3,MacIntel,58.82352941,,,,,,,
,,,,,,,,,,,,,,,,,,,,,,-71.11111111,-31,20,75,-32.11111111,1.111111111,0.444444444,-0.415853659,-0.38902439,1,0,0,0.834,submitButton,8.304137116,0.112195122,-0.303658537,0,0,0,1,48,108,15,1,31,68803,blockP,180,2022-02-15_11h49.47,orientation adjustment blockP,2021.2.3,MacIntel,58.82352941,,,,,,,
,,,,,,,,,,,,,,,,,,,,,,-46.66666667,28,20,75,44.33333333,16.33333333,10.61666667,-0.5,-0.38902439,1,0,0,1.052,submitButton,8.328479532,0.179268293,-0.376829268,0,0,0,1,49,109,12,1,28,68803,blockP,180,2022-02-15_11h49.47,orientation adjustment blockP,2021.2.3,MacIntel,58.82352941,,,,,,,
,,,,,,,,,,,,,,,,,,,,,,-42.77777778,36,20,75,46.22222222,10.22222222,4.088888889,-0.418292683,-0.380487805,1,0,0,0.952,submitButton,8.28431713,0.236585366,-0.309756098,0,0,0,1,50,110,20,1,36,68803,blockP,180,2022-02-15_11h49.47,orientation adjustment blockP,2021.2.3,MacIntel,58.82352941,,,,,,,
,,,,,,,,,,,,,,,,,,,,,,-65.55555556,40,20,75,-142.5555556,2.555555556,1.022222222,0.41097561,-0.318292683,1,0,0,1.22,submitButton,8.209450172,-0.385365854,-0.395121951,0,0,0,1,51,111,24,1,40,68803,blockP,180,2022-02-15_11h49.47,orientation adjustment blockP,2021.2.3,MacIntel,58.82352941,,,,,,,
,,,,,,,,,,,,,,,,,,,,,,-55,41,20,75,55,14,5.6,-0.431707317,-0.385365854,1,0,0,0.869,submitButton,8.182823129,-0.141463415,-0.340243902,0,0,0,1,52,112,25,1,41,68803,blockP,180,2022-02-15_11h49.47,orientation adjustment blockP,2021.2.3,MacIntel,58.82352941,,,,,,,
,,,,,,,,,,,,,,,,,,,,,,56.11111111,55,20,75,231.1111111,3.888888889,1.555555556,-0.346341463,-0.373170732,1,0,0,2.407,submitButton,8.115881033,0.290243902,-0.270731707,0,0,0,1,53,113,39,1,55,68803,blockP,180,2022-02-15_11h49.47,orientation adjustment blockP,2021.2.3,MacIntel,58.82352941,,,,,,,
,,,,,,,,,,,,,,,,,,,,,,23.88888889,-47,20,75,-68.11111111,21.11111111,13.72222222,-0.368292683,-0.37195122,1,0,0,0.669,submitButton,8.171944444,0.230487805,-0.274390244,0,0,0,1,54,114,31,1,47,68803,blockP,180,2022-02-15_11h49.47,orientation adjustment blockP,2021.2.3,MacIntel,58.82352941,,,,,,,
,,,,,,,,,,,,,,,,,,,,,,21.11111111,-72,20,75,-90.88888889,18.88888889,12.27777778,-0.384146341,-0.325609756,1,0,0,0.352,submitButton,8.21259626,0.165853659,-0.291463415,0,0,0,1,55,115,56,1,72,68803,blockP,180,2022-02-15_11h49.47,orientation adjustment blockP,2021.2.3,MacIntel,58.82352941,,,,,,,
,,,,,,,,,,,,,,,,,,,,,,-41.66666667,-32,20,75,-25.66666667,6.333333333,2.533333333,-0.465853659,-0.365853659,1,0,0,0.534,submitButton,8.156917211,0.259756098,-0.370731707,0,0,0,1,56,116,16,1,32,68803,blockP,180,2022-02-15_11h49.47,orientation adjustment blockP,2021.2.3,MacIntel,58.82352941,,,,,,,
,,,,,,,,,,,,,,,,,,,,,,24.44444444,39,20,75,31.44444444,7.555555556,3.022222222,-0.42195122,-0.396341463,1,0,0,0.567,submitButton,8.107065804,0.134146341,-0.343902439,0,0,0,1,57,117,23,1,39,68803,blockP,180,2022-02-15_11h49.47,orientation adjustment blockP,2021.2.3,MacIntel,58.82352941,,,,,,,
,,,,,,,,,,,,,,,,,,,,,,55.55555556,68,20,75,57.55555556,10.44444444,4.177777778,-0.413414634,-0.365853659,1,0,0,0.568,submitButton,8.069284188,0.006097561,-0.367073171,0,0,0,1,58,118,52,1,68,68803,blockP,180,2022-02-15_11h49.47,orientation adjustment blockP,2021.2.3,MacIntel,58.82352941,,,,,,,
,,,,,,,,,,,,,,,,,,,,,,-58.33333333,38,20,75,-144.3333333,2.333333333,0.933333333,0.398780488,-0.340243902,1,0,0,1.187,submitButton,8.001322751,0.358536585,-0.41097561,1,0,0,1,59,119,22,1,38,68803,blockP,180,2022-02-15_11h49.47,orientation adjustment blockP,2021.2.3,MacIntel,58.82352941,continueButton,,,,,,
,,,,,,,,,,,,,,,,,,,,,,-52.77777778,-60,20,75,-45.77777778,14.22222222,5.688888889,-0.465853659,-0.367073171,1,0,0,0.618,submitButton,7.979507338,0.163414634,-0.457317073,0,0,0,2,0,120,44,1,60,68803,blockP,180,2022-02-15_11h49.47,orientation adjustment blockP,2021.2.3,MacIntel,58.82352941,,,,,,,
,,,,,,,,,,,,,,,,,,,,,,49.44444444,-52,20,75,-48.55555556,3.444444444,1.377777778,-0.423170732,-0.393902439,1,0,0,0.434,submitButton,7.91780893,0.308536585,-0.33902439,0,0,0,2,1,121,36,1,52,68803,blockP,180,2022-02-15_11h49.47,orientation adjustment blockP,2021.2.3,MacIntel,58.82352941,,,,,,,
,,,,,,,,,,,,,,,,,,,,,,-30.55555556,-57,20,75,-41.55555556,15.44444444,10.03888889,-0.295121951,-0.417073171,1,0,0,1.002,submitButton,7.93744856,0.217073171,-0.364634146,0,0,0,2,2,122,41,1,57,68803,blockP,180,2022-02-15_11h49.47,orientation adjustment blockP,2021.2.3,MacIntel,58.82352941,,,,,,,
,,,,,,,,,,,,,,,,,,,,,,65.55555556,-67,20,75,-58.44444444,8.555555556,3.422222222,-0.353658537,-0.356097561,1,0,0,1.236,submitButton,7.896024465,0.185365854,-0.320731707,0,0,0,2,3,123,51,1,67,68803,blockP,180,2022-02-15_11h49.47,orientation adjustment blockP,2021.2.3,MacIntel,58.82352941,,,,,,,
,,,,,,,,,,,,,,,,,,,,,,25.55555556,-17,20,75,157.5555556,5.444444444,2.177777778,-0.469512195,-0.391463415,1,0,0,2.157,submitButton,7.844040404,-0.459756098,-0.402439024,0,0,0,2,4,124,1,1,17,68803,blockP,180,2022-02-15_11h49.47,orientation adjustment blockP,2021.2.3,MacIntel,58.82352941,,,,,,,
,,,,,,,,,,,,,,,,,,,,,,-71.66666667,-55,20,75,-28.66666667,26.33333333,17.11666667,-0.342682927,-0.386585366,1,0,0,1.789,submitButton,7.927577578,0.13902439,-0.330487805,0,0,0,2,5,125,39,1,55,68803,blockP,180,2022-02-15_11h49.47,orientation adjustment blockP,2021.2.3,MacIntel,58.82352941,,,,,,,
,,,,,,,,,,,,,,,,,,,,,,-64.44444444,65,20,75,61.55555556,3.444444444,1.377777778,-0.45,-0.463414634,1,0,0,0.635,submitButton,7.869097222,0.22804878,-0.336585366,0,0,0,2,6,126,49,1,65,68803,blockP,180,2022-02-15_11h49.47,orientation adjustment blockP,2021.2.3,MacIntel,58.82352941,,,,,,,
,,,,,,,,,,,,,,,,,,,,,,71.66666667,-25,20,75,-44.33333333,19.33333333,12.56666667,-0.497560976,-0.382926829,1,0,0,1.185,submitButton,7.910668633,0.218292683,-0.303658537,0,0,0,2,7,127,9,1,25,68803,blockP,180,2022-02-15_11h49.47,orientation adjustment blockP,2021.2.3,MacIntel,58.82352941,,,,,,,
,,,,,,,,,,,,,,,,,,,,,,26.66666667,-56,20,75,-57.33333333,1.333333333,0.533333333,-0.387804878,-0.348780488,1,0,0,0.285,submitButton,7.845955166,0.164634146,-0.298780488,0,0,0,2,8,128,40,1,56,68803,blockP,180,2022-02-15_11h49.47,orientation adjustment blockP,2021.2.3,MacIntel,58.82352941,,,,,,,
,,,,,,,,,,,,,,,,,,,,,,41.11111111,-74,20,75,-36.88888889,37.11111111,29.68888889,0.447560976,-0.331707317,1,0,0,0.269,submitButton,8.03589372,-0.047560976,-0.356097561,0,0,0,2,9,129,58,1,74,68803,blockP,180,2022-02-15_11h49.47,orientation adjustment blockP,2021.2.3,MacIntel,58.82352941,,,,,,,
,,,,,,,,,,,,,,,,,,,,,,62.77777778,-22,20,75,155.7777778,2.222222222,0.888888889,0.240243902,-0.302439024,1,0,0,1.185,submitButton,7.974281609,0.092682927,-0.413414634,0,0,0,2,10,130,6,1,22,68803,blockP,180,2022-02-15_11h49.47,orientation adjustment blockP,2021.2.3,MacIntel,58.82352941,,,,,,,
,,,,,,,,,,,,,,,,,,,,,,-71.66666667,26,20,75,-146.6666667,7.333333333,2.933333333,-0.357317073,-0.402439024,1,0,0,1.855,submitButton,7.931196581,0.218292683,-0.336585366,0,0,0,2,11,131,10,1,26,68803,blockP,180,2022-02-15_11h49.47,orientation adjustment blockP,2021.2.3,MacIntel,58.82352941,,,,,,,
,,,,,,,,,,,,,,,,,,,,,,46.66666667,-53,20,75,147.6666667,20.66666667,13.43333333,0.237804878,-0.320731707,1,0,0,1.654,submitButton,7.977824859,0.163414634,-0.335365854,0,0,0,2,12,132,37,1,53,68803,blockP,180,2022-02-15_11h49.47,orientation adjustment blockP,2021.2.3,MacIntel,58.82352941,,,,,,,
,,,,,,,,,,,,,,,,,,,,,,-42.77777778,70,20,75,-123.7777778,13.77777778,5.511111111,-0.515853659,-0.340243902,1,0,0,2.255,submitButton,7.957096172,0.048780488,-0.269512195,0,0,0,2,13,133,54,1,70,68803,blockP,180,2022-02-15_11h49.47,orientation adjustment blockP,2021.2.3,MacIntel,58.82352941,,,,,,,
,,,,,,,,,,,,,,,,,,,,,,23.33333333,58,20,75,51.33333333,6.666666667,2.666666667,0.393902439,-0.317073171,1,0,0,0.235,submitButton,7.913009259,0.282926829,-0.387804878,1,0,0,2,14,134,42,1,58,68803,blockP,180,2022-02-15_11h49.47,orientation adjustment blockP,2021.2.3,MacIntel,58.82352941,continueButton,,,,,,
,,,,,,,,,,,,,,,,,,,,,,38.88888889,45,20,75,89.88888889,44.88888889,35.91111111,0.187804878,-0.32804878,1,0,0,0.618,submitButton,8.144398531,0.092682927,-0.204878049,0,0,0,2,15,135,29,1,45,68803,blockP,180,2022-02-15_11h49.47,orientation adjustment blockP,2021.2.3,MacIntel,58.82352941,,,,,,,
,,,,,,,,,,,,,,,,,,,,,,-43.88888889,-47,20,75,-50.88888889,3.888888889,1.555555556,-0.557317073,-0.406097561,1,0,0,0.818,submitButton,8.090391621,-0.556097561,-0.406097561,0,0,0,2,16,136,31,1,47,68803,blockP,180,2022-02-15_11h49.47,orientation adjustment blockP,2021.2.3,MacIntel,58.82352941,,,,,,,
,,,,,,,,,,,,,,,,,,,,,,-62.77777778,-69,20,75,-222.7777778,26.22222222,17.04444444,0.474390244,-0.293902439,1,0,0,0.034,submitButton,8.163188799,-0.340243902,-0.401219512,0,0,0,2,17,137,53,1,69,68803,blockP,180,2022-02-15_11h49.47,orientation adjustment blockP,2021.2.3,MacIntel,58.82352941,,,,,,,
,,,,,,,,,,,,,,,,,,,,,,74.44444444,71,20,75,247.4444444,3.555555556,1.422222222,0.169512195,-0.307317073,1,0,0,0.033,submitButton,8.108826165,0.156097561,-0.326829268,0,0,0,2,18,138,55,1,71,68803,blockP,180,2022-02-15_11h49.47,orientation adjustment blockP,2021.2.3,MacIntel,58.82352941,,,,,,,
,,,,,,,,,,,,,,,,,,,,,,41.11111111,54,20,75,59.11111111,5.111111111,2.044444444,-0.420731707,-0.384146341,1,0,0,0.634,submitButton,8.060311111,0.217073171,-0.292682927,0,0,0,2,19,139,38,1,54,68803,blockP,180,2022-02-15_11h49.47,orientation adjustment blockP,2021.2.3,MacIntel,58.82352941,,,,,,,
,,,,,,,,,,,,,,,,,,,,,,48.33333333,51,20,75,235.3333333,4.333333333,1.733333333,-0.475609756,-0.435365854,1,0,0,2.223,submitButton,8.010097002,0.331707317,-0.337804878,0,0,0,2,20,140,35,1,51,68803,blockP,180,2022-02-15_11h49.47,orientation adjustment blockP,2021.2.3,MacIntel,58.82352941,,,,,,,
,,,,,,,,,,,,,,,,,,,,,,-21.66666667,61,20,75,29.33333333,31.66666667,25.33333333,-0.475609756,-0.362195122,1,0,0,0.3,submitButton,8.146500437,0.175609756,-0.284146341,0,0,0,2,21,141,45,1,61,68803,blockP,180,2022-02-15_11h49.47,orientation adjustment blockP,2021.2.3,MacIntel,58.82352941,,,,,,,
,,,,,,,,,,,,,,,,,,,,,,35,-43,20,75,-46,3,1.2,0.445121951,-0.314634146,1,0,0,0.1,submitButton,8.092230903,-0.098780488,-0.295121951,0,0,0,2,22,142,27,1,43,68803,blockP,180,2022-02-15_11h49.47,orientation adjustment blockP,2021.2.3,MacIntel,58.82352941,,,,,,,
,,,,,,,,,,,,,,,,,,,,,,73.33333333,73,20,75,52.33333333,20.66666667,13.43333333,-0.37804878,-0.404878049,1,0,0,1.57,submitButton,8.133634798,0.229268293,-0.337804878,0,0,0,2,23,143,57,1,73,68803,blockP,180,2022-02-15_11h49.47,orientation adjustment blockP,2021.2.3,MacIntel,58.82352941,,,,,,,
,,,,,,,,,,,,,,,,,,,,,,-51.11111111,40,20,75,-153.1111111,13.11111111,5.244444444,0.424390244,-0.317073171,1,0,0,1.706,submitButton,8.111410256,0.176829268,-0.315853659,0,0,0,2,24,144,24,1,40,68803,blockP,180,2022-02-15_11h49.47,orientation adjustment blockP,2021.2.3,MacIntel,58.82352941,,,,,,,
,,,,,,,,,,,,,,,,,,,,,,-73.88888889,-46,20,75,-27.88888889,18.11111111,11.77222222,-0.481707317,-0.387804878,1,0,0,1.687,submitButton,8.139355386,0.257317073,-0.345121951,0,0,0,2,25,145,30,1,46,68803,blockP,180,2022-02-15_11h49.47,orientation adjustment blockP,2021.2.3,MacIntel,58.82352941,,,,,,,
,,,,,,,,,,,,,,,,,,,,,,-28.33333333,-34,20,75,-23.33333333,10.66666667,4.266666667,-0.285365854,-0.387804878,1,0,0,0.767,submitButton,8.110016835,0.362195122,-0.32804878,0,0,0,2,26,146,18,1,34,68803,blockP,180,2022-02-15_11h49.47,orientation adjustment blockP,2021.2.3,MacIntel,58.82352941,,,,,,,
,,,,,,,,,,,,,,,,,,,,,,66.11111111,29,20,75,30.11111111,1.111111111,0.444444444,-0.340243902,-0.397560976,1,0,0,1.352,submitButton,8.052380952,0.198780488,-0.323170732,0,0,0,2,27,147,13,1,29,68803,blockP,180,2022-02-15_11h49.47,orientation adjustment blockP,2021.2.3,MacIntel,58.82352941,,,,,,,
,,,,,,,,,,,,,,,,,,,,,,-50.55555556,-20,20,75,-17.55555556,2.444444444,0.977777778,0.215853659,-0.319512195,1,0,0,0.553,submitButton,7.999585406,0.442682927,-0.326829268,0,0,0,2,28,148,4,1,20,68803,blockP,180,2022-02-15_11h49.47,orientation adjustment blockP,2021.2.3,MacIntel,58.82352941,,,,,,,
,,,,,,,,,,,,,,,,,,,,,,-57.77777778,-68,20,75,-243.7777778,4.222222222,1.688888889,0.441463415,-0.32195122,1,0,0,1.804,submitButton,7.952839506,0.370731707,-0.41097561,1,0,0,2,29,149,52,1,68,68803,blockP,180,2022-02-15_11h49.47,orientation adjustment blockP,2021.2.3,MacIntel,58.82352941,continueButton,,,,,,
,,,,,,,,,,,,,,,,,,,,,,-31.11111111,-33,20,75,-44.11111111,11.11111111,4.444444444,-0.487804878,-0.356097561,1,0,0,0.569,submitButton,7.927042484,-0.075609756,-0.343902439,0,0,0,2,30,150,17,1,33,68803,blockP,180,2022-02-15_11h49.47,orientation adjustment blockP,2021.2.3,MacIntel,58.82352941,,,,,,,
,,,,,,,,,,,,,,,,,,,,,,36.66666667,-31,20,75,-23.33333333,7.666666667,3.066666667,0.446341463,-0.324390244,1,0,0,0.569,submitButton,7.891565288,0.3,-0.31097561,0,0,0,2,31,151,15,1,31,68803,blockP,180,2022-02-15_11h49.47,orientation adjustment blockP,2021.2.3,MacIntel,58.82352941,,,,,,,
,,,,,,,,,,,,,,,,,,,,,,-22.22222222,32,20,75,43.77777778,11.77777778,4.711111111,0.270731707,-0.307317073,1,0,0,0.134,submitButton,7.868518519,0.201219512,-0.232926829,0,0,0,2,32,152,16,1,32,68803,blockP,180,2022-02-15_11h49.47,orientation adjustment blockP,2021.2.3,MacIntel,58.82352941,,,,,,,
,,,,,,,,,,,,,,,,,,,,,,-51.11111111,19,20,75,49.88888889,30.88888889,24.71111111,-0.379268293,-0.401219512,1,0,0,1.305,submitButton,7.989688249,0.125609756,-0.345121951,0,0,0,2,33,153,3,1,19,68803,blockP,180,2022-02-15_11h49.47,orientation adjustment blockP,2021.2.3,MacIntel,58.82352941,,,,,,,
,,,,,,,,,,,,,,,,,,,,,,38.33333333,49,20,75,38.33333333,10.66666667,4.266666667,0.441463415,-0.351219512,1,0,0,0.016,submitButton,7.963095238,-0.156097561,-0.382926829,0,0,0,2,34,154,33,1,49,68803,blockP,180,2022-02-15_11h49.47,orientation adjustment blockP,2021.2.3,MacIntel,58.82352941,,,,,,,
,,,,,,,,,,,,,,,,,,,,,,-31.11111111,-39,20,75,-39.11111111,0.111111111,0.044444444,0.219512195,-0.332926829,1,0,0,0.018,submitButton,7.906934594,0.356097561,-0.362195122,0,0,0,2,35,155,23,1,39,68803,blockP,180,2022-02-15_11h49.47,orientation adjustment blockP,2021.2.3,MacIntel,58.82352941,,,,,,,
,,,,,,,,,,,,,,,,,,,,,,-27.22222222,66,20,75,47.77777778,18.22222222,11.84444444,-0.306097561,-0.362195122,1,0,0,0.768,submitButton,7.934663537,0.18902439,-0.302439024,0,0,0,2,36,156,50,1,66,68803,blockP,180,2022-02-15_11h49.47,orientation adjustment blockP,2021.2.3,MacIntel,58.82352941,,,,,,,
,,,,,,,,,,,,,,,,,,,,,,-31.66666667,16,20,75,29.33333333,13.33333333,5.333333333,0.231707317,-0.296341463,1,0,0,0.369,submitButton,7.916472416,0.056097561,-0.346341463,0,0,0,2,37,157,0,1,16,68803,blockP,180,2022-02-15_11h49.47,orientation adjustment blockP,2021.2.3,MacIntel,58.82352941,,,,,,,
,,,,,,,,,,,,,,,,,,,,,,-40,-21,20,75,-33,12,4.8,0.225609756,-0.298780488,1,0,0,0.518,submitButton,7.894830247,0.165853659,-0.293902439,0,0,0,2,38,158,5,1,21,68803,blockP,180,2022-02-15_11h49.47,orientation adjustment blockP,2021.2.3,MacIntel,58.82352941,,,,,,,
,,,,,,,,,,,,,,,,,,,,,,-62.77777778,-59,20,75,-58.77777778,0.222222222,0.088888889,-0.332926829,-0.364634146,1,0,0,0.551,submitButton,7.840996169,0.062195122,-0.373170732,0,0,0,2,39,159,43,1,59,68803,blockP,180,2022-02-15_11h49.47,orientation adjustment blockP,2021.2.3,MacIntel,58.82352941,,,,,,,
,,,,,,,,,,,,,,,,,,,,,,-48.33333333,-64,20,75,-39.33333333,24.66666667,16.03333333,-0.323170732,-0.382926829,1,0,0,0.586,submitButton,7.897108067,0.001219512,-0.332926829,0,0,0,2,40,160,48,1,64,68803,blockP,180,2022-02-15_11h49.47,orientation adjustment blockP,2021.2.3,MacIntel,58.82352941,,,,,,,
,,,,,,,,,,,,,,,,,,,,,,46.66666667,-24,20,75,-32.33333333,8.333333333,3.333333333,0.441463415,-0.335365854,1,0,0,0.034,submitButton,7.86606198,-0.498780488,-0.37804878,0,0,0,2,41,161,8,1,24,68803,blockP,180,2022-02-15_11h49.47,orientation adjustment blockP,2021.2.3,MacIntel,58.82352941,,,,,,,
,,,,,,,,,,,,,,,,,,,,,,69.44444444,42,20,75,42.44444444,0.444444444,0.177777778,0.267073171,-0.330487805,1,0,0,0.534,submitButton,7.814114114,-0.254878049,-0.381707317,0,0,0,2,42,162,26,1,42,68803,blockP,180,2022-02-15_11h49.47,orientation adjustment blockP,2021.2.3,MacIntel,58.82352941,,,,,,,
,,,,,,,,,,,,,,,,,,,,,,-60,-37,20,75,-84,47,37.6,0.16097561,-0.318292683,1,0,0,0.168,submitButton,8.014019389,-0.285365854,-0.401219512,0,0,0,2,43,163,21,1,37,68803,blockP,180,2022-02-15_11h49.47,orientation adjustment blockP,2021.2.3,MacIntel,58.82352941,,,,,,,
,,,,,,,,,,,,,,,,,,,,,,69.44444444,-23,20,75,53.44444444,76.44444444,68.8,0.182926829,-0.337804878,1,0,0,0.151,submitButton,8.419259259,0.347560976,-0.408536585,1,0,0,2,44,164,7,1,23,68803,blockP,180,2022-02-15_11h49.47,orientation adjustment blockP,2021.2.3,MacIntel,58.82352941,continueButton,,,,,,
,,,,,,,,,,,,,,,,,,,,,,26.66666667,-50,20,75,-47.33333333,2.666666667,1.066666667,0.424390244,-0.303658537,1,0,0,0.284,submitButton,8.370566593,-0.276829268,-0.437804878,0,0,0,2,45,165,34,1,50,68803,blockP,180,2022-02-15_11h49.47,orientation adjustment blockP,2021.2.3,MacIntel,58.82352941,,,,,,,
,,,,,,,,,,,,,,,,,,,,,,62.77777778,27,20,75,41.77777778,14.77777778,5.911111111,-0.5,-0.362195122,1,0,0,1.152,submitButton,8.354385965,0.136585366,-0.257317073,0,0,0,2,46,166,11,1,27,68803,blockP,180,2022-02-15_11h49.47,orientation adjustment blockP,2021.2.3,MacIntel,58.82352941,,,,,,,
,,,,,,,,,,,,,,,,,,,,,,-40,44,20,75,39,5,2,-0.401219512,-0.392682927,1,0,0,1.354,submitButton,8.312854031,0.235365854,-0.252439024,0,0,0,2,47,167,28,1,44,68803,blockP,180,2022-02-15_11h49.47,orientation adjustment blockP,2021.2.3,MacIntel,58.82352941,,,,,,,
,,,,,,,,,,,,,,,,,,,,,,52.77777778,36,20,75,37.77777778,1.777777778,0.711111111,-0.406097561,-0.417073171,1,0,0,1.269,submitButton,8.263492063,0.041463415,-0.418292683,0,0,0,2,48,168,20,1,36,68803,blockP,180,2022-02-15_11h49.47,orientation adjustment blockP,2021.2.3,MacIntel,58.82352941,,,,,,,
,,,,,,,,,,,,,,,,,,,,,,43.88888889,41,20,75,219.8888889,1.111111111,0.444444444,-0.436585366,-0.396341463,1,0,0,2.924,submitButton,8.213046595,-0.436585366,-0.396341463,0,0,0,2,49,169,25,1,41,68803,blockP,180,2022-02-15_11h49.47,orientation adjustment blockP,2021.2.3,MacIntel,58.82352941,,,,,,,
,,,,,,,,,,,,,,,,,,,,,,-20.55555556,35,20,75,24.44444444,10.55555556,4.222222222,0.230487805,-0.329268293,1,0,0,0.033,submitButton,8.187464387,-0.02195122,-0.358536585,0,0,0,2,50,170,19,1,35,68803,blockP,180,2022-02-15_11h49.47,orientation adjustment blockP,2021.2.3,MacIntel,58.82352941,,,,,,,
,,,,,,,,,,,,,,,,,,,,,,70,-75,20,75,-22,53,45.05,0.435365854,-0.324390244,1,0,0,0.268,submitButton,8.422257608,0.267073171,-0.32195122,0,0,0,2,51,171,59,1,75,68803,blockP,180,2022-02-15_11h49.47,orientation adjustment blockP,2021.2.3,MacIntel,58.82352941,,,,,,,
,,,,,,,,,,,,,,,,,,,,,,-67.77777778,48,20,75,60.22222222,12.22222222,4.888888889,-0.32804878,-0.396341463,1,0,0,1.354,submitButton,8.399894515,0.197560976,-0.303658537,0,0,0,2,52,172,32,1,48,68803,blockP,180,2022-02-15_11h49.47,orientation adjustment blockP,2021.2.3,MacIntel,58.82352941,,,,,,,
,,,,,,,,,,,,,,,,,,,,,,-27.77777778,62,20,75,36.22222222,25.77777778,16.75555556,-0.325609756,-0.365853659,1,0,0,0.97,submitButton,8.452445842,-0.393902439,-0.37804878,0,0,0,2,53,173,46,1,62,68803,blockP,180,2022-02-15_11h49.47,orientation adjustment blockP,2021.2.3,MacIntel,58.82352941,,,,,,,
,,,,,,,,,,,,,,,,,,,,,,26.11111111,28,20,75,30.11111111,2.111111111,0.844444444,-0.343902439,-0.381707317,1,0,0,0.569,submitButton,8.404895833,0.173170732,-0.314634146,0,0,0,2,54,174,12,1,28,68803,blockP,180,2022-02-15_11h49.47,orientation adjustment blockP,2021.2.3,MacIntel,58.82352941,,,,,,,
,,,,,,,,,,,,,,,,,,,,,,56.11111111,63,20,75,254.1111111,11.11111111,4.444444444,0.237804878,-0.308536585,1,0,0,2.139,submitButton,8.380296756,-0.008536585,-0.379268293,0,0,0,2,55,175,47,1,63,68803,blockP,180,2022-02-15_11h49.47,orientation adjustment blockP,2021.2.3,MacIntel,58.82352941,,,,,,,
,,,,,,,,,,,,,,,,,,,,,,-21.11111111,-72,20,75,-66.11111111,5.888888889,2.355555556,-0.217073171,-0.396341463,1,0,0,0.587,submitButton,8.343106996,-0.217073171,-0.396341463,0,0,0,2,56,176,56,1,72,68803,blockP,180,2022-02-15_11h49.47,orientation adjustment blockP,2021.2.3,MacIntel,58.82352941,,,,,,,
,,,,,,,,,,,,,,,,,,,,,,-45.55555556,-18,20,75,-22.55555556,4.555555556,1.822222222,0.174390244,-0.317073171,1,0,0,0.018,submitButton,8.303101568,-0.31097561,-0.395121951,0,0,0,2,57,177,2,1,18,68803,blockP,180,2022-02-15_11h49.47,orientation adjustment blockP,2021.2.3,MacIntel,58.82352941,,,,,,,
,,,,,,,,,,,,,,,,,,,,,,74.44444444,-38,20,75,-29.55555556,8.444444444,3.377777778,-0.354878049,-0.367073171,1,0,0,2.29,submitButton,8.273069106,0.241463415,-0.32195122,0,0,0,2,58,178,22,1,38,68803,blockP,180,2022-02-15_11h49.47,orientation adjustment blockP,2021.2.3,MacIntel,58.82352941,,,,,,,
,,,,,,,,,,,,,,,,,,,,,,-23.33333333,-30,20,75,-36.33333333,6.333333333,2.533333333,-0.393902439,-0.403658537,1,0,0,0.451,submitButton,8.238282828,0.114634146,-0.351219512,0,0,0,2,59,179,14,1,30,68803,blockP,180,2022-02-15_11h49.47,orientation adjustment blockP,2021.2.3,MacIntel,58.82352941,,,,,,,
,,,,,,,,,,,,,,,,,,,,,,,,,,,,,,,,,,,,,,,,,,,,,,,,68803,blockP,180,2022-02-15_11h49.47,orientation adjustment blockP,2021.2.3,MacIntel,58.82352941,,0.22195122,-0.37804878,1,0,0,EndButtonTxt
