consentMouse1.x,consentMouse1.y,consentMouse1.leftButton,consentMouse1.midButton,consentMouse1.rightButton,consentMouse1.clicked_name,consent_Mouse.x,consent_Mouse.y,consent_Mouse.leftButton,consent_Mouse.midButton,consent_Mouse.rightButton,consent_Mouse.clicked_name,startMouse.x,startMouse.y,startMouse.leftButton,startMouse.midButton,startMouse.rightButton,startMouse_2.x,startMouse_2.y,startMouse_2.leftButton,startMouse_2.midButton,startMouse_2.rightButton,start_distance,fixedOri,minimalDistance,maxOri,this_ori,accuracy,presented_accuracy,submitMouse.x,submitMouse.y,submitMouse.leftButton,submitMouse.midButton,submitMouse.rightButton,submitMouse.time,submitMouse.clicked_name,block_accuracy,continueMouse.x,continueMouse.y,continueMouse.leftButton,continueMouse.midButton,continueMouse.rightButton,trials.thisRepN,trials.thisTrialN,trials.thisN,trials.thisIndex,trials.ran,startOri,participant,condition,nTrials,date,expName,psychopyVersion,OS,frameRate,continueMouse.clicked_name,EndButtonMouse.x,EndButtonMouse.y,EndButtonMouse.leftButton,EndButtonMouse.midButton,EndButtonMouse.rightButton,EndButtonMouse.clicked_name
0.366666667,-0.405555556,1,0,0,consent_button1,0.366666667,-0.404444444,1,0,0,consent_button,0.094444444,-0.28,1,0,0,0.003333333,-0.341111111,1,0,0,-41.11111111,32,20,75,-15.11111111,47.11111111,37.68888889,0.383333333,-0.29,1,0,0,2.782,submitButton,37.68888889,-0.552222222,-0.4,0,0,0,0,0,0,16,1,32,68926,blockP,180,2022-02-22_09h35.54.448,orientation adjustment blockP,2021.2.3,MacIntel,58.82352941,,,,,,,
,,,,,,,,,,,,,,,,,,,,,,-67.77777778,39,20,75,49.22222222,10.22222222,4.088888889,0.221111111,-0.298888889,1,0,0,0.217,submitButton,20.88888889,-0.465555556,-0.388888889,0,0,0,0,1,1,23,1,39,68926,blockP,180,2022-02-22_09h35.54.448,orientation adjustment blockP,2021.2.3,MacIntel,58.82352941,,,,,,,
,,,,,,,,,,,,,,,,,,,,,,-72.77777778,-50,20,75,-242.7777778,12.77777778,5.111111111,0.39,-0.291111111,1,0,0,1.749,submitButton,15.62962963,-0.101111111,-0.25,0,0,0,0,2,2,34,1,50,68926,blockP,180,2022-02-22_09h35.54.448,orientation adjustment blockP,2021.2.3,MacIntel,58.82352941,,,,,,,
,,,,,,,,,,,,,,,,,,,,,,48.88888889,17,20,75,207.8888889,10.88888889,4.355555556,0.19,-0.266666667,1,0,0,1.732,submitButton,4.355555556,-0.061111111,-0.332222222,0,0,0,0,3,3,1,1,17,68926,blockP,180,2022-02-22_09h35.54.448,orientation adjustment blockP,2021.2.3,MacIntel,58.82352941,,,,,,,
,,,,,,,,,,,,,,,,,,,,,,-71.66666667,-60,20,75,-252.6666667,12.66666667,5.066666667,-0.546666667,-0.405555556,1,0,0,3.9,submitButton,4.711111111,-0.544444444,-0.405555556,0,0,0,0,4,4,44,1,60,68926,blockP,180,2022-02-22_09h35.54.448,orientation adjustment blockP,2021.2.3,MacIntel,58.82352941,,,,,,,
,,,,,,,,,,,,,,,,,,,,,,-21.66666667,-45,20,75,-43.66666667,1.333333333,0.533333333,0.161111111,-0.308888889,1,0,0,0.416,submitButton,3.318518519,-0.414444444,-0.4,0,0,0,0,5,5,29,1,45,68926,blockP,180,2022-02-22_09h35.54.448,orientation adjustment blockP,2021.2.3,MacIntel,58.82352941,,,,,,,
,,,,,,,,,,,,,,,,,,,,,,66.11111111,35,20,75,234.1111111,19.11111111,12.42222222,0.216666667,-0.275555556,1,0,0,1.601,submitButton,12.42222222,-0.297777778,-0.372222222,0,0,0,0,6,6,19,1,35,68926,blockP,180,2022-02-22_09h35.54.448,orientation adjustment blockP,2021.2.3,MacIntel,58.82352941,,,,,,,
,,,,,,,,,,,,,,,,,,,,,,-45.55555556,-75,20,75,-262.5555556,7.555555556,3.022222222,0.41,-0.305555556,1,0,0,2.6,submitButton,7.722222222,-0.364444444,-0.411111111,0,0,0,0,7,7,59,1,75,68926,blockP,180,2022-02-22_09h35.54.448,orientation adjustment blockP,2021.2.3,MacIntel,58.82352941,,,,,,,
,,,,,,,,,,,,,,,,,,,,,,27.22222222,28,20,75,210.2222222,2.222222222,0.888888889,0.222222222,-0.321111111,1,0,0,1.9,submitButton,5.444444444,-0.295555556,-0.394444444,0,0,0,0,8,8,12,1,28,68926,blockP,180,2022-02-22_09h35.54.448,orientation adjustment blockP,2021.2.3,MacIntel,58.82352941,,,,,,,
,,,,,,,,,,,,,,,,,,,,,,-26.11111111,-65,20,75,-252.1111111,7.111111111,2.844444444,0.377777778,-0.312222222,1,0,0,2.283,submitButton,2.844444444,-0.542222222,-0.41,0,0,0,0,9,9,49,1,65,68926,blockP,180,2022-02-22_09h35.54.448,orientation adjustment blockP,2021.2.3,MacIntel,58.82352941,,,,,,,
,,,,,,,,,,,,,,,,,,,,,,-50,-48,20,75,-52,4,1.6,0.208888889,-0.294444444,1,0,0,0.166,submitButton,2.222222222,-0.527777778,-0.406666667,0,0,0,0,10,10,32,1,48,68926,blockP,180,2022-02-22_09h35.54.448,orientation adjustment blockP,2021.2.3,MacIntel,58.82352941,,,,,,,
,,,,,,,,,,,,,,,,,,,,,,-35.55555556,63,20,75,72.44444444,9.444444444,3.777777778,0.205555556,-0.321111111,1,0,0,0.368,submitButton,2.740740741,-0.341111111,-0.397777778,0,0,0,0,11,11,47,1,63,68926,blockP,180,2022-02-22_09h35.54.448,orientation adjustment blockP,2021.2.3,MacIntel,58.82352941,,,,,,,
,,,,,,,,,,,,,,,,,,,,,,58.33333333,43,20,75,227.3333333,4.333333333,1.733333333,0.182222222,-0.301111111,1,0,0,1.466,submitButton,1.733333333,-0.328888889,-0.393333333,0,0,0,0,12,12,27,1,43,68926,blockP,180,2022-02-22_09h35.54.448,orientation adjustment blockP,2021.2.3,MacIntel,58.82352941,,,,,,,
,,,,,,,,,,,,,,,,,,,,,,40,31,20,75,45,14,5.6,0.45,-0.271111111,1,0,0,0.499,submitButton,3.666666667,-0.304444444,-0.38,0,0,0,0,13,13,15,1,31,68926,blockP,180,2022-02-22_09h35.54.448,orientation adjustment blockP,2021.2.3,MacIntel,58.82352941,,,,,,,
,,,,,,,,,,,,,,,,,,,,,,22.77777778,30,20,75,32.77777778,2.777777778,1.111111111,0.395555556,-0.293333333,1,0,0,0.266,submitButton,2.814814815,0.443333333,-0.408888889,1,0,0,0,14,14,14,1,30,68926,blockP,180,2022-02-22_09h35.54.448,orientation adjustment blockP,2021.2.3,MacIntel,58.82352941,continueButton,,,,,,
,,,,,,,,,,,,,,,,,,,,,,26.11111111,38,20,75,43.11111111,5.111111111,2.044444444,0.42,-0.301111111,1,0,0,0.417,submitButton,2.044444444,-0.4,-0.407777778,0,0,0,0,15,15,22,1,38,68926,blockP,180,2022-02-22_09h35.54.448,orientation adjustment blockP,2021.2.3,MacIntel,58.82352941,,,,,,,
,,,,,,,,,,,,,,,,,,,,,,23.88888889,34,20,75,34.88888889,0.888888889,0.355555556,-0.478888889,-0.401111111,1,0,0,1.766,submitButton,1.2,-0.041111111,-0.338888889,0,0,0,0,16,16,18,1,34,68926,blockP,180,2022-02-22_09h35.54.448,orientation adjustment blockP,2021.2.3,MacIntel,58.82352941,,,,,,,
,,,,,,,,,,,,,,,,,,,,,,-62.77777778,-41,20,75,-238.7777778,17.77777778,11.55555556,0.392222222,-0.293333333,1,0,0,1.766,submitButton,4.651851852,-0.295555556,-0.381111111,0,0,0,0,17,17,25,1,41,68926,blockP,180,2022-02-22_09h35.54.448,orientation adjustment blockP,2021.2.3,MacIntel,58.82352941,,,,,,,
,,,,,,,,,,,,,,,,,,,,,,-27.77777778,69,20,75,60.22222222,8.777777778,3.511111111,0.183333333,-0.305555556,1,0,0,0.3,submitButton,4.366666667,-0.202222222,-0.412222222,0,0,0,0,18,18,53,1,69,68926,blockP,180,2022-02-22_09h35.54.448,orientation adjustment blockP,2021.2.3,MacIntel,58.82352941,,,,,,,
,,,,,,,,,,,,,,,,,,,,,,-42.22222222,21,20,75,25.77777778,4.777777778,1.911111111,0.213333333,-0.285555556,1,0,0,1.048,submitButton,3.875555556,0.02,-0.34,0,0,0,0,19,19,5,1,21,68926,blockP,180,2022-02-22_09h35.54.448,orientation adjustment blockP,2021.2.3,MacIntel,58.82352941,,,,,,,
,,,,,,,,,,,,,,,,,,,,,,-46.11111111,-58,20,75,-244.1111111,6.111111111,2.444444444,0.383333333,-0.296666667,1,0,0,1.984,submitButton,3.637037037,-0.324444444,-0.405555556,0,0,0,0,20,20,42,1,58,68926,blockP,180,2022-02-22_09h35.54.448,orientation adjustment blockP,2021.2.3,MacIntel,58.82352941,,,,,,,
,,,,,,,,,,,,,,,,,,,,,,57.77777778,-57,20,75,-57.22222222,0.222222222,0.088888889,-0.49,-0.408888889,1,0,0,1.9,submitButton,3.13015873,-0.49,-0.408888889,0,0,0,0,21,21,41,1,57,68926,blockP,180,2022-02-22_09h35.54.448,orientation adjustment blockP,2021.2.3,MacIntel,58.82352941,,,,,,,
,,,,,,,,,,,,,,,,,,,,,,49.44444444,19,20,75,220.4444444,21.44444444,13.93888889,0.197777778,-0.301111111,1,0,0,0.067,submitButton,4.48125,-0.191111111,-0.401111111,0,0,0,0,22,22,3,1,19,68926,blockP,180,2022-02-22_09h35.54.448,orientation adjustment blockP,2021.2.3,MacIntel,58.82352941,,,,,,,
,,,,,,,,,,,,,,,,,,,,,,-23.33333333,23,20,75,29.66666667,6.666666667,2.666666667,-0.131111111,-0.396666667,1,0,0,0.951,submitButton,4.27962963,-0.131111111,-0.396666667,0,0,0,0,23,23,7,1,23,68926,blockP,180,2022-02-22_09h35.54.448,orientation adjustment blockP,2021.2.3,MacIntel,58.82352941,,,,,,,
,,,,,,,,,,,,,,,,,,,,,,-23.88888889,-24,20,75,-34.88888889,10.88888889,4.355555556,0.186666667,-0.287777778,1,0,0,0.365,submitButton,4.287222222,-0.181111111,-0.403333333,0,0,0,0,24,24,8,1,24,68926,blockP,180,2022-02-22_09h35.54.448,orientation adjustment blockP,2021.2.3,MacIntel,58.82352941,,,,,,,
,,,,,,,,,,,,,,,,,,,,,,-37.77777778,-53,20,75,-43.77777778,9.222222222,3.688888889,0.225555556,-0.296666667,1,0,0,0.617,submitButton,4.232828283,-0.283333333,-0.401111111,0,0,0,0,25,25,37,1,53,68926,blockP,180,2022-02-22_09h35.54.448,orientation adjustment blockP,2021.2.3,MacIntel,58.82352941,,,,,,,
,,,,,,,,,,,,,,,,,,,,,,-31.11111111,18,20,75,39.88888889,21.88888889,14.22777778,0.165555556,-0.298888889,1,0,0,0.65,submitButton,5.065740741,-0.222222222,-0.386666667,0,0,0,0,26,26,2,1,18,68926,blockP,180,2022-02-22_09h35.54.448,orientation adjustment blockP,2021.2.3,MacIntel,58.82352941,,,,,,,
,,,,,,,,,,,,,,,,,,,,,,57.22222222,71,20,75,253.2222222,2.222222222,0.888888889,0.206666667,-0.311111111,1,0,0,1.683,submitButton,4.744444444,-0.173333333,-0.405555556,0,0,0,0,27,27,55,1,71,68926,blockP,180,2022-02-22_09h35.54.448,orientation adjustment blockP,2021.2.3,MacIntel,58.82352941,,,,,,,
,,,,,,,,,,,,,,,,,,,,,,21.66666667,-64,20,75,-68.33333333,4.333333333,1.733333333,-0.21,-0.4,1,0,0,1.25,submitButton,4.529365079,-0.21,-0.4,0,0,0,0,28,28,48,1,64,68926,blockP,180,2022-02-22_09h35.54.448,orientation adjustment blockP,2021.2.3,MacIntel,58.82352941,,,,,,,
,,,,,,,,,,,,,,,,,,,,,,-63.88888889,-22,20,75,-229.8888889,27.88888889,18.12777778,0.386666667,-0.296666667,1,0,0,2.184,submitButton,5.435925926,0.355555556,-0.403333333,1,0,0,0,29,29,6,1,22,68926,blockP,180,2022-02-22_09h35.54.448,orientation adjustment blockP,2021.2.3,MacIntel,58.82352941,continueButton,,,,,,
,,,,,,,,,,,,,,,,,,,,,,58.33333333,-59,20,75,-54.66666667,4.333333333,1.733333333,0.397777778,-0.292222222,1,0,0,0.1,submitButton,5.204513889,-0.221111111,-0.4,0,0,0,0,30,30,43,1,59,68926,blockP,180,2022-02-22_09h35.54.448,orientation adjustment blockP,2021.2.3,MacIntel,58.82352941,,,,,,,
,,,,,,,,,,,,,,,,,,,,,,27.77777778,-61,20,75,-79.22222222,18.22222222,11.84444444,0.393333333,-0.303333333,1,0,0,0.099,submitButton,5.595098039,0.272222222,-0.346666667,0,0,0,0,31,31,45,1,61,68926,blockP,180,2022-02-22_09h35.54.448,orientation adjustment blockP,2021.2.3,MacIntel,58.82352941,,,,,,,
,,,,,,,,,,,,,,,,,,,,,,69.44444444,-56,20,75,-63.55555556,7.555555556,3.022222222,0.392222222,-0.297777778,1,0,0,0.916,submitButton,5.452160494,-0.322222222,-0.405555556,0,0,0,0,32,32,40,1,56,68926,blockP,180,2022-02-22_09h35.54.448,orientation adjustment blockP,2021.2.3,MacIntel,58.82352941,,,,,,,
,,,,,,,,,,,,,,,,,,,,,,25,25,20,75,56,31,24.8,0.23,-0.302222222,1,0,0,0.567,submitButton,6.470467836,-0.237777778,-0.411111111,0,0,0,0,33,33,9,1,25,68926,blockP,180,2022-02-22_09h35.54.448,orientation adjustment blockP,2021.2.3,MacIntel,58.82352941,,,,,,,
,,,,,,,,,,,,,,,,,,,,,,-72.22222222,-49,20,75,-249.2222222,20.22222222,13.14444444,0.368888889,-0.292222222,1,0,0,2,submitButton,6.804166667,-0.288888889,-0.415555556,0,0,0,0,34,34,33,1,49,68926,blockP,180,2022-02-22_09h35.54.448,orientation adjustment blockP,2021.2.3,MacIntel,58.82352941,,,,,,,
,,,,,,,,,,,,,,,,,,,,,,-25.55555556,44,20,75,68.44444444,24.44444444,15.88888889,0.202222222,-0.312222222,1,0,0,0.4,submitButton,7.236772487,-0.253333333,-0.4,0,0,0,0,35,35,28,1,44,68926,blockP,180,2022-02-22_09h35.54.448,orientation adjustment blockP,2021.2.3,MacIntel,58.82352941,,,,,,,
,,,,,,,,,,,,,,,,,,,,,,53.33333333,-55,20,75,-61.66666667,6.666666667,2.666666667,-0.237777778,-0.401111111,1,0,0,1.633,submitButton,7.029040404,-0.237777778,-0.401111111,0,0,0,0,36,36,39,1,55,68926,blockP,180,2022-02-22_09h35.54.448,orientation adjustment blockP,2021.2.3,MacIntel,58.82352941,,,,,,,
,,,,,,,,,,,,,,,,,,,,,,61.11111111,73,20,75,247.1111111,5.888888889,2.355555556,0.18,-0.316666667,1,0,0,2.017,submitButton,6.825845411,0.02,-0.394444444,0,0,0,0,37,37,57,1,73,68926,blockP,180,2022-02-22_09h35.54.448,orientation adjustment blockP,2021.2.3,MacIntel,58.82352941,,,,,,,
,,,,,,,,,,,,,,,,,,,,,,-46.66666667,-40,20,75,-238.6666667,18.66666667,12.13333333,0.411111111,-0.293333333,1,0,0,2.101,submitButton,7.046990741,-0.292222222,-0.414444444,0,0,0,0,38,38,24,1,40,68926,blockP,180,2022-02-22_09h35.54.448,orientation adjustment blockP,2021.2.3,MacIntel,58.82352941,,,,,,,
,,,,,,,,,,,,,,,,,,,,,,29.44444444,67,20,75,235.4444444,11.55555556,4.622222222,0.181111111,-0.285555556,1,0,0,0.601,submitButton,6.95,-0.157777778,-0.403333333,0,0,0,0,39,39,51,1,67,68926,blockP,180,2022-02-22_09h35.54.448,orientation adjustment blockP,2021.2.3,MacIntel,58.82352941,,,,,,,
,,,,,,,,,,,,,,,,,,,,,,-55.55555556,-70,20,75,-263.5555556,13.55555556,5.422222222,0.405555556,-0.295555556,1,0,0,2.134,submitButton,6.891239316,-0.284444444,-0.381111111,0,0,0,0,40,40,54,1,70,68926,blockP,180,2022-02-22_09h35.54.448,orientation adjustment blockP,2021.2.3,MacIntel,58.82352941,,,,,,,
,,,,,,,,,,,,,,,,,,,,,,65,62,20,75,236,6,2.4,0.194444444,-0.305555556,1,0,0,1.618,submitButton,6.724897119,-0.171111111,-0.415555556,0,0,0,0,41,41,46,1,62,68926,blockP,180,2022-02-22_09h35.54.448,orientation adjustment blockP,2021.2.3,MacIntel,58.82352941,,,,,,,
,,,,,,,,,,,,,,,,,,,,,,22.22222222,51,20,75,54.22222222,3.222222222,1.288888889,0.424444444,-0.284444444,1,0,0,0.432,submitButton,6.530753968,-0.305555556,-0.394444444,0,0,0,0,42,42,35,1,51,68926,blockP,180,2022-02-22_09h35.54.448,orientation adjustment blockP,2021.2.3,MacIntel,58.82352941,,,,,,,
,,,,,,,,,,,,,,,,,,,,,,-22.77777778,46,20,75,64.22222222,18.22222222,11.84444444,-0.397777778,-0.398888889,1,0,0,1.599,submitButton,6.713984674,-0.397777778,-0.398888889,0,0,0,0,43,43,30,1,46,68926,blockP,180,2022-02-22_09h35.54.448,orientation adjustment blockP,2021.2.3,MacIntel,58.82352941,,,,,,,
,,,,,,,,,,,,,,,,,,,,,,-65,-37,20,75,-249,32,25.6,0.384444444,-0.321111111,1,0,0,2.083,submitButton,7.343518519,0.421111111,-0.407777778,1,0,0,0,44,44,21,1,37,68926,blockP,180,2022-02-22_09h35.54.448,orientation adjustment blockP,2021.2.3,MacIntel,58.82352941,continueButton,,,,,,
,,,,,,,,,,,,,,,,,,,,,,48.33333333,74,20,75,247.3333333,6.666666667,2.666666667,-0.185555556,-0.395555556,1,0,0,2.318,submitButton,7.19265233,-0.185555556,-0.395555556,0,0,0,0,45,45,58,1,74,68926,blockP,180,2022-02-22_09h35.54.448,orientation adjustment blockP,2021.2.3,MacIntel,58.82352941,,,,,,,
,,,,,,,,,,,,,,,,,,,,,,56.66666667,26,20,75,36.66666667,10.66666667,4.266666667,0.434444444,-0.283333333,1,0,0,0.217,submitButton,7.101215278,-0.181111111,-0.405555556,0,0,0,0,46,46,10,1,26,68926,blockP,180,2022-02-22_09h35.54.448,orientation adjustment blockP,2021.2.3,MacIntel,58.82352941,,,,,,,
,,,,,,,,,,,,,,,,,,,,,,-72.77777778,-36,20,75,-239.7777778,23.77777778,15.45555556,0.394444444,-0.286666667,1,0,0,0.316,submitButton,7.354377104,-0.198888889,-0.416666667,0,0,0,0,47,47,20,1,36,68926,blockP,180,2022-02-22_09h35.54.448,orientation adjustment blockP,2021.2.3,MacIntel,58.82352941,,,,,,,
,,,,,,,,,,,,,,,,,,,,,,44.44444444,-16,20,75,-27.55555556,11.55555556,4.622222222,-0.202222222,-0.405555556,1,0,0,1.967,submitButton,7.274019608,-0.202222222,-0.405555556,0,0,0,0,48,48,0,1,16,68926,blockP,180,2022-02-22_09h35.54.448,orientation adjustment blockP,2021.2.3,MacIntel,58.82352941,,,,,,,
,,,,,,,,,,,,,,,,,,,,,,-65,54,20,75,57,3,1.2,0.213333333,-0.294444444,1,0,0,0.484,submitButton,7.10047619,-0.144444444,-0.394444444,0,0,0,0,49,49,38,1,54,68926,blockP,180,2022-02-22_09h35.54.448,orientation adjustment blockP,2021.2.3,MacIntel,58.82352941,,,,,,,
,,,,,,,,,,,,,,,,,,,,,,-63.33333333,47,20,75,41.66666667,5.333333333,2.133333333,-0.152222222,-0.372222222,1,0,0,2.084,submitButton,6.9625,-0.152222222,-0.405555556,0,0,0,0,50,50,31,1,47,68926,blockP,180,2022-02-22_09h35.54.448,orientation adjustment blockP,2021.2.3,MacIntel,58.82352941,,,,,,,
,,,,,,,,,,,,,,,,,,,,,,-42.77777778,-20,20,75,-40.77777778,20.77777778,13.50555556,0.192222222,-0.292222222,1,0,0,0.333,submitButton,7.139339339,-0.22,-0.393333333,0,0,0,0,51,51,4,1,20,68926,blockP,180,2022-02-22_09h35.54.448,orientation adjustment blockP,2021.2.3,MacIntel,58.82352941,,,,,,,
,,,,,,,,,,,,,,,,,,,,,,-60,52,20,75,62,10,4,-0.401111111,-0.418888889,1,0,0,1.45,submitButton,7.056725146,-0.401111111,-0.418888889,0,0,0,0,52,52,36,1,52,68926,blockP,180,2022-02-22_09h35.54.448,orientation adjustment blockP,2021.2.3,MacIntel,58.82352941,,,,,,,
,,,,,,,,,,,,,,,,,,,,,,-47.77777778,-29,20,75,-38.77777778,9.777777778,3.911111111,0.201111111,-0.294444444,1,0,0,0.317,submitButton,6.976068376,-0.268888889,-0.403333333,0,0,0,0,53,53,13,1,29,68926,blockP,180,2022-02-22_09h35.54.448,orientation adjustment blockP,2021.2.3,MacIntel,58.82352941,,,,,,,
,,,,,,,,,,,,,,,,,,,,,,-31.11111111,33,20,75,45.88888889,12.88888889,5.155555556,-0.196666667,-0.396666667,1,0,0,1.35,submitButton,6.930555556,-0.196666667,-0.396666667,0,0,0,0,54,54,17,1,33,68926,blockP,180,2022-02-22_09h35.54.448,orientation adjustment blockP,2021.2.3,MacIntel,58.82352941,,,,,,,
,,,,,,,,,,,,,,,,,,,,,,-57.22222222,-27,20,75,-237.2222222,30.22222222,24.17777778,0.421111111,-0.294444444,1,0,0,0.832,submitButton,7.351219512,-0.237777778,-0.4,0,0,0,0,55,55,11,1,27,68926,blockP,180,2022-02-22_09h35.54.448,orientation adjustment blockP,2021.2.3,MacIntel,58.82352941,,,,,,,
,,,,,,,,,,,,,,,,,,,,,,-57.22222222,42,20,75,60.77777778,18.77777778,12.20555556,-0.235555556,-0.393333333,1,0,0,1.666,submitButton,7.466798942,-0.235555556,-0.393333333,0,0,0,0,56,56,26,1,42,68926,blockP,180,2022-02-22_09h35.54.448,orientation adjustment blockP,2021.2.3,MacIntel,58.82352941,,,,,,,
,,,,,,,,,,,,,,,,,,,,,,25,-68,20,75,-75,7,2.8,-0.228888889,-0.413333333,1,0,0,1.2,submitButton,7.358268734,-0.228888889,-0.413333333,0,0,0,0,57,57,52,1,68,68926,blockP,180,2022-02-22_09h35.54.448,orientation adjustment blockP,2021.2.3,MacIntel,58.82352941,,,,,,,
,,,,,,,,,,,,,,,,,,,,,,-29.44444444,72,20,75,73.55555556,1.555555556,0.622222222,-0.231111111,-0.402222222,1,0,0,1.366,submitButton,7.205176768,-0.23,-0.402222222,0,0,0,0,58,58,56,1,72,68926,blockP,180,2022-02-22_09h35.54.448,orientation adjustment blockP,2021.2.3,MacIntel,58.82352941,,,,,,,
,,,,,,,,,,,,,,,,,,,,,,-26.11111111,66,20,75,76.88888889,10.88888889,4.355555556,-0.298888889,-0.407777778,1,0,0,1.084,submitButton,7.141851852,0.342222222,-0.407777778,1,0,0,0,59,59,50,1,66,68926,blockP,180,2022-02-22_09h35.54.448,orientation adjustment blockP,2021.2.3,MacIntel,58.82352941,continueButton,,,,,,
,,,,,,,,,,,,,,,,,,,,,,34.44444444,61,20,75,242.4444444,1.444444444,0.577777778,0.227777778,-0.316666667,1,0,0,1.783,submitButton,6.999154589,-0.238888889,-0.398888889,0,0,0,1,0,60,45,1,61,68926,blockP,180,2022-02-22_09h35.54.448,orientation adjustment blockP,2021.2.3,MacIntel,58.82352941,,,,,,,
,,,,,,,,,,,,,,,,,,,,,,65,50,20,75,236,6,2.4,-0.181111111,-0.414444444,1,0,0,2.667,submitButton,6.901300236,-0.123333333,-0.331111111,0,0,0,1,1,61,34,1,50,68926,blockP,180,2022-02-22_09h35.54.448,orientation adjustment blockP,2021.2.3,MacIntel,58.82352941,,,,,,,
,,,,,,,,,,,,,,,,,,,,,,32.77777778,-24,20,75,-37.22222222,13.22222222,5.288888889,-0.297777778,-0.397777778,1,0,0,1.166,submitButton,6.867708333,-0.297777778,-0.397777778,0,0,0,1,2,62,8,1,24,68926,blockP,180,2022-02-22_09h35.54.448,orientation adjustment blockP,2021.2.3,MacIntel,58.82352941,,,,,,,
,,,,,,,,,,,,,,,,,,,,,,-50,-25,20,75,-44,19,12.35,0.194444444,-0.316666667,1,0,0,0.432,submitButton,6.979591837,-0.283333333,-0.407777778,0,0,0,1,3,63,9,1,25,68926,blockP,180,2022-02-22_09h35.54.448,orientation adjustment blockP,2021.2.3,MacIntel,58.82352941,,,,,,,
,,,,,,,,,,,,,,,,,,,,,,67.77777778,-31,20,75,-64.22222222,33.22222222,26.57777778,-0.234444444,-0.396666667,1,0,0,2.333,submitButton,7.371555556,-0.234444444,-0.396666667,0,0,0,1,4,64,15,1,31,68926,blockP,180,2022-02-22_09h35.54.448,orientation adjustment blockP,2021.2.3,MacIntel,58.82352941,,,,,,,
,,,,,,,,,,,,,,,,,,,,,,58.88888889,-65,20,75,58.88888889,56.11111111,47.69444444,0.231111111,-0.283333333,1,0,0,0.334,submitButton,8.162200436,-0.383333333,-0.402222222,0,0,0,1,5,65,49,1,65,68926,blockP,180,2022-02-22_09h35.54.448,orientation adjustment blockP,2021.2.3,MacIntel,58.82352941,,,,,,,
,,,,,,,,,,,,,,,,,,,,,,70.55555556,-17,20,75,-56.44444444,39.44444444,31.55555556,0.433333333,-0.298888889,1,0,0,1.733,submitButton,8.61207265,-0.313333333,-0.404444444,0,0,0,1,6,66,1,1,17,68926,blockP,180,2022-02-22_09h35.54.448,orientation adjustment blockP,2021.2.3,MacIntel,58.82352941,,,,,,,
,,,,,,,,,,,,,,,,,,,,,,-71.66666667,-49,20,75,-239.6666667,10.66666667,4.266666667,-0.27,-0.398888889,1,0,0,2.817,submitButton,8.530083857,-0.27,-0.398888889,0,0,0,1,7,67,33,1,49,68926,blockP,180,2022-02-22_09h35.54.448,orientation adjustment blockP,2021.2.3,MacIntel,58.82352941,,,,,,,
,,,,,,,,,,,,,,,,,,,,,,-49.44444444,-68,20,75,-259.4444444,11.44444444,4.577777778,-0.296666667,-0.401111111,1,0,0,2.965,submitButton,8.456893004,-0.296666667,-0.401111111,0,0,0,1,8,68,52,1,68,68926,blockP,180,2022-02-22_09h35.54.448,orientation adjustment blockP,2021.2.3,MacIntel,58.82352941,,,,,,,
,,,,,,,,,,,,,,,,,,,,,,33.88888889,-73,20,75,-82.11111111,9.111111111,3.644444444,0.23,-0.297777778,1,0,0,1.583,submitButton,8.369393939,-0.294444444,-0.403333333,0,0,0,1,9,69,57,1,73,68926,blockP,180,2022-02-22_09h35.54.448,orientation adjustment blockP,2021.2.3,MacIntel,58.82352941,,,,,,,
,,,,,,,,,,,,,,,,,,,,,,57.77777778,-46,20,75,-54.22222222,8.222222222,3.288888889,-0.307777778,-0.4,1,0,0,1.45,submitButton,8.278670635,-0.306666667,-0.36,0,0,0,1,10,70,30,1,46,68926,blockP,180,2022-02-22_09h35.54.448,orientation adjustment blockP,2021.2.3,MacIntel,58.82352941,,,,,,,
,,,,,,,,,,,,,,,,,,,,,,34.44444444,52,20,75,236.4444444,4.444444444,1.777777778,-0.226666667,-0.391111111,1,0,0,2.866,submitButton,8.164619883,-0.226666667,-0.391111111,0,0,0,1,11,71,36,1,52,68926,blockP,180,2022-02-22_09h35.54.448,orientation adjustment blockP,2021.2.3,MacIntel,58.82352941,,,,,,,
,,,,,,,,,,,,,,,,,,,,,,-68.88888889,-40,20,75,-239.8888889,19.88888889,12.92777778,-0.5,-0.408888889,1,0,0,2.65,submitButton,8.246743295,-0.5,-0.408888889,0,0,0,1,12,72,24,1,40,68926,blockP,180,2022-02-22_09h35.54.448,orientation adjustment blockP,2021.2.3,MacIntel,58.82352941,,,,,,,
,,,,,,,,,,,,,,,,,,,,,,-52.22222222,-57,20,75,-254.2222222,17.22222222,11.19444444,0.397777778,-0.318888889,1,0,0,2.334,submitButton,8.296704331,-0.323333333,-0.382222222,0,0,0,1,13,73,41,1,57,68926,blockP,180,2022-02-22_09h35.54.448,orientation adjustment blockP,2021.2.3,MacIntel,58.82352941,,,,,,,
,,,,,,,,,,,,,,,,,,,,,,28.33333333,67,20,75,254.3333333,7.333333333,2.933333333,0.175555556,-0.292222222,1,0,0,0.516,submitButton,8.207314815,0.47,-0.404444444,1,0,0,1,14,74,51,1,67,68926,blockP,180,2022-02-22_09h35.54.448,orientation adjustment blockP,2021.2.3,MacIntel,58.82352941,continueButton,,,,,,
,,,,,,,,,,,,,,,,,,,,,,71.11111111,71,20,75,252.1111111,1.111111111,0.444444444,-0.228888889,-0.402222222,1,0,0,2.383,submitButton,8.080054645,-0.228888889,-0.402222222,0,0,0,1,15,75,55,1,71,68926,blockP,180,2022-02-22_09h35.54.448,orientation adjustment blockP,2021.2.3,MacIntel,58.82352941,,,,,,,
,,,,,,,,,,,,,,,,,,,,,,-71.66666667,75,20,75,82.33333333,7.333333333,2.933333333,-0.194444444,-0.406666667,1,0,0,1.349,submitButton,7.997043011,0.16,-0.347777778,0,0,0,1,16,76,59,1,75,68926,blockP,180,2022-02-22_09h35.54.448,orientation adjustment blockP,2021.2.3,MacIntel,58.82352941,,,,,,,
,,,,,,,,,,,,,,,,,,,,,,-74.44444444,22,20,75,25.55555556,3.555555556,1.422222222,-0.231111111,-0.406666667,1,0,0,1.983,submitButton,7.892680776,-0.228888889,-0.406666667,0,0,0,1,17,77,6,1,22,68926,blockP,180,2022-02-22_09h35.54.448,orientation adjustment blockP,2021.2.3,MacIntel,58.82352941,,,,,,,
,,,,,,,,,,,,,,,,,,,,,,-30,69,20,75,53,16,10.4,-0.14,-0.421111111,1,0,0,0.883,submitButton,7.931857639,-0.14,-0.421111111,0,0,0,1,18,78,53,1,69,68926,blockP,180,2022-02-22_09h35.54.448,orientation adjustment blockP,2021.2.3,MacIntel,58.82352941,,,,,,,
,,,,,,,,,,,,,,,,,,,,,,39.44444444,48,20,75,222.4444444,5.555555556,2.222222222,-0.308888889,-0.393333333,1,0,0,2.85,submitButton,7.844017094,-0.308888889,-0.393333333,0,0,0,1,19,79,32,1,48,68926,blockP,180,2022-02-22_09h35.54.448,orientation adjustment blockP,2021.2.3,MacIntel,58.82352941,,,,,,,
,,,,,,,,,,,,,,,,,,,,,,-26.66666667,60,20,75,65.33333333,5.333333333,2.133333333,0.206666667,-0.291111111,1,0,0,0.017,submitButton,7.757491582,-0.205555556,-0.396666667,0,0,0,1,20,80,44,1,60,68926,blockP,180,2022-02-22_09h35.54.448,orientation adjustment blockP,2021.2.3,MacIntel,58.82352941,,,,,,,
,,,,,,,,,,,,,,,,,,,,,,-21.11111111,16,20,75,31.88888889,15.88888889,10.32777778,-0.231111111,-0.401111111,1,0,0,1.216,submitButton,7.795854063,-0.231111111,-0.401111111,0,0,0,1,21,81,0,1,16,68926,blockP,180,2022-02-22_09h35.54.448,orientation adjustment blockP,2021.2.3,MacIntel,58.82352941,,,,,,,
,,,,,,,,,,,,,,,,,,,,,,-20,45,20,75,44,1,0.4,-0.271111111,-0.414444444,1,0,0,0.683,submitButton,7.687091503,-0.271111111,-0.414444444,0,0,0,1,22,82,29,1,45,68926,blockP,180,2022-02-22_09h35.54.448,orientation adjustment blockP,2021.2.3,MacIntel,58.82352941,,,,,,,
,,,,,,,,,,,,,,,,,,,,,,69.44444444,66,20,75,241.4444444,4.555555556,1.822222222,0.177777778,-0.273333333,1,0,0,1.467,submitButton,7.602093398,-0.203333333,-0.403333333,0,0,0,1,23,83,50,1,66,68926,blockP,180,2022-02-22_09h35.54.448,orientation adjustment blockP,2021.2.3,MacIntel,58.82352941,,,,,,,
,,,,,,,,,,,,,,,,,,,,,,-75,21,20,75,33,12,4.8,-0.364444444,-0.396666667,1,0,0,1.983,submitButton,7.562063492,-0.364444444,-0.396666667,0,0,0,1,24,84,5,1,21,68926,blockP,180,2022-02-22_09h35.54.448,orientation adjustment blockP,2021.2.3,MacIntel,58.82352941,,,,,,,
,,,,,,,,,,,,,,,,,,,,,,-41.11111111,-42,20,75,-52.11111111,10.11111111,4.044444444,0.202222222,-0.273333333,1,0,0,0.766,submitButton,7.512519562,-0.224444444,-0.396666667,0,0,0,1,25,85,26,1,42,68926,blockP,180,2022-02-22_09h35.54.448,orientation adjustment blockP,2021.2.3,MacIntel,58.82352941,,,,,,,
,,,,,,,,,,,,,,,,,,,,,,20,-39,20,75,-39,0,0,-0.191111111,-0.412222222,1,0,0,0.917,submitButton,7.408179012,-0.191111111,-0.412222222,0,0,0,1,26,86,23,1,39,68926,blockP,180,2022-02-22_09h35.54.448,orientation adjustment blockP,2021.2.3,MacIntel,58.82352941,,,,,,,
,,,,,,,,,,,,,,,,,,,,,,-31.66666667,35,20,75,32.33333333,2.666666667,1.066666667,-0.304444444,-0.41,1,0,0,0.983,submitButton,7.32130898,-0.304444444,-0.41,0,0,0,1,27,87,19,1,35,68926,blockP,180,2022-02-22_09h35.54.448,orientation adjustment blockP,2021.2.3,MacIntel,58.82352941,,,,,,,
,,,,,,,,,,,,,,,,,,,,,,-67.22222222,-27,20,75,-246.2222222,39.22222222,31.37777778,0.433333333,-0.307777778,1,0,0,0.334,submitButton,7.646396396,-0.351111111,-0.412222222,0,0,0,1,28,88,11,1,27,68926,blockP,180,2022-02-22_09h35.54.448,orientation adjustment blockP,2021.2.3,MacIntel,58.82352941,,,,,,,
,,,,,,,,,,,,,,,,,,,,,,38.33333333,28,20,75,39.33333333,11.33333333,4.533333333,0.366666667,-0.29,1,0,0,0.301,submitButton,7.604888889,0.397777778,-0.393333333,1,0,0,1,29,89,12,1,28,68926,blockP,180,2022-02-22_09h35.54.448,orientation adjustment blockP,2021.2.3,MacIntel,58.82352941,continueButton,,,,,,
,,,,,,,,,,,,,,,,,,,,,,-35.55555556,64,20,75,63.44444444,0.555555556,0.222222222,0.226666667,-0.295555556,1,0,0,0.101,submitButton,7.507748538,-0.204444444,-0.417777778,0,0,0,1,30,90,48,1,64,68926,blockP,180,2022-02-22_09h35.54.448,orientation adjustment blockP,2021.2.3,MacIntel,58.82352941,,,,,,,
,,,,,,,,,,,,,,,,,,,,,,51.66666667,-34,20,75,-40.33333333,6.333333333,2.533333333,-0.273333333,-0.411111111,1,0,0,1.666,submitButton,7.443145743,0.114444444,-0.398888889,0,0,0,1,31,91,18,1,34,68926,blockP,180,2022-02-22_09h35.54.448,orientation adjustment blockP,2021.2.3,MacIntel,58.82352941,,,,,,,
,,,,,,,,,,,,,,,,,,,,,,45.55555556,-23,20,75,-33.44444444,10.44444444,4.177777778,-0.243333333,-0.413333333,1,0,0,1.916,submitButton,7.401282051,-0.243333333,-0.413333333,0,0,0,1,32,92,7,1,23,68926,blockP,180,2022-02-22_09h35.54.448,orientation adjustment blockP,2021.2.3,MacIntel,58.82352941,,,,,,,
,,,,,,,,,,,,,,,,,,,,,,-58.33333333,-41,20,75,-55.33333333,14.33333333,5.733333333,0.202222222,-0.29,1,0,0,0.233,submitButton,7.380168776,-0.234444444,-0.405555556,0,0,0,1,33,93,25,1,41,68926,blockP,180,2022-02-22_09h35.54.448,orientation adjustment blockP,2021.2.3,MacIntel,58.82352941,,,,,,,
,,,,,,,,,,,,,,,,,,,,,,66.66666667,58,20,75,233.6666667,4.333333333,1.733333333,0.177777778,-0.303333333,1,0,0,1.801,submitButton,7.309583333,-0.332222222,-0.406666667,0,0,0,1,34,94,42,1,58,68926,blockP,180,2022-02-22_09h35.54.448,orientation adjustment blockP,2021.2.3,MacIntel,58.82352941,,,,,,,
,,,,,,,,,,,,,,,,,,,,,,-54.44444444,-19,20,75,-36.44444444,17.44444444,11.33888889,0.21,-0.268888889,1,0,0,0.4,submitButton,7.359327846,-0.253333333,-0.398888889,0,0,0,1,35,95,3,1,19,68926,blockP,180,2022-02-22_09h35.54.448,orientation adjustment blockP,2021.2.3,MacIntel,58.82352941,,,,,,,
,,,,,,,,,,,,,,,,,,,,,,55,-70,20,75,-68,2,0.8,-0.313333333,-0.39,1,0,0,1.367,submitButton,7.279336043,-0.313333333,-0.39,0,0,0,1,36,96,54,1,70,68926,blockP,180,2022-02-22_09h35.54.448,orientation adjustment blockP,2021.2.3,MacIntel,58.82352941,,,,,,,
,,,,,,,,,,,,,,,,,,,,,,70.55555556,55,20,75,238.5555556,3.555555556,1.422222222,0.21,-0.28,1,0,0,1.35,submitButton,7.208768407,-0.2,-0.394444444,0,0,0,1,37,97,39,1,55,68926,blockP,180,2022-02-22_09h35.54.448,orientation adjustment blockP,2021.2.3,MacIntel,58.82352941,,,,,,,
,,,,,,,,,,,,,,,,,,,,,,-57.22222222,38,20,75,54.77777778,16.77777778,10.90555556,0.208888889,-0.317777778,1,0,0,0.251,submitButton,7.252777778,-0.156666667,-0.394444444,0,0,0,1,38,98,22,1,38,68926,blockP,180,2022-02-22_09h35.54.448,orientation adjustment blockP,2021.2.3,MacIntel,58.82352941,,,,,,,
,,,,,,,,,,,,,,,,,,,,,,42.22222222,44,20,75,44.22222222,0.222222222,0.088888889,0.385555556,-0.257777778,1,0,0,0.299,submitButton,7.168496732,-0.223333333,-0.396666667,0,0,0,1,39,99,28,1,44,68926,blockP,180,2022-02-22_09h35.54.448,orientation adjustment blockP,2021.2.3,MacIntel,58.82352941,,,,,,,
,,,,,,,,,,,,,,,,,,,,,,-51.66666667,-36,20,75,-49.66666667,13.66666667,5.466666667,0.176666667,-0.28,1,0,0,0.2,submitButton,7.14870801,-0.192222222,-0.398888889,0,0,0,1,40,100,20,1,36,68926,blockP,180,2022-02-22_09h35.54.448,orientation adjustment blockP,2021.2.3,MacIntel,58.82352941,,,,,,,
,,,,,,,,,,,,,,,,,,,,,,69.44444444,-26,20,75,-46.55555556,20.55555556,13.36111111,0.382222222,-0.283333333,1,0,0,1.1,submitButton,7.220114943,-0.266666667,-0.414444444,0,0,0,1,41,101,10,1,26,68926,blockP,180,2022-02-22_09h35.54.448,orientation adjustment blockP,2021.2.3,MacIntel,58.82352941,,,,,,,
,,,,,,,,,,,,,,,,,,,,,,-22.77777778,-43,20,75,-45.77777778,2.777777778,1.111111111,0.193333333,-0.318888889,1,0,0,0.201,submitButton,7.150694444,-0.152222222,-0.417777778,0,0,0,1,42,102,27,1,43,68926,blockP,180,2022-02-22_09h35.54.448,orientation adjustment blockP,2021.2.3,MacIntel,58.82352941,,,,,,,
,,,,,,,,,,,,,,,,,,,,,,-43.88888889,20,20,75,26.11111111,6.111111111,2.444444444,-0.292222222,-0.403333333,1,0,0,1.216,submitButton,7.097815231,-0.292222222,-0.403333333,0,0,0,1,43,103,4,1,20,68926,blockP,180,2022-02-22_09h35.54.448,orientation adjustment blockP,2021.2.3,MacIntel,58.82352941,,,,,,,
,,,,,,,,,,,,,,,,,,,,,,28.33333333,-72,20,75,-84.66666667,12.66666667,5.066666667,-0.295555556,-0.424444444,1,0,0,1.433,submitButton,7.075246914,0.485555556,-0.398888889,1,0,0,1,44,104,56,1,72,68926,blockP,180,2022-02-22_09h35.54.448,orientation adjustment blockP,2021.2.3,MacIntel,58.82352941,continueButton,,,,,,
,,,,,,,,,,,,,,,,,,,,,,62.77777778,-59,20,75,-70.22222222,11.22222222,4.488888889,-0.265555556,-0.412222222,1,0,0,1.684,submitButton,7.046825397,-0.265555556,-0.412222222,0,0,0,1,45,105,43,1,59,68926,blockP,180,2022-02-22_09h35.54.448,orientation adjustment blockP,2021.2.3,MacIntel,58.82352941,,,,,,,
,,,,,,,,,,,,,,,,,,,,,,72.22222222,74,20,75,250.2222222,3.777777778,1.511111111,0.204444444,-0.293333333,1,0,0,1.2,submitButton,6.986654589,-0.175555556,-0.4,0,0,0,1,46,106,58,1,74,68926,blockP,180,2022-02-22_09h35.54.448,orientation adjustment blockP,2021.2.3,MacIntel,58.82352941,,,,,,,
,,,,,,,,,,,,,,,,,,,,,,30.55555556,-53,20,75,-60.44444444,7.444444444,2.977777778,-0.191111111,-0.417777778,1,0,0,1.45,submitButton,6.943548387,-0.188888889,-0.417777778,0,0,0,1,47,107,37,1,53,68926,blockP,180,2022-02-22_09h35.54.448,orientation adjustment blockP,2021.2.3,MacIntel,58.82352941,,,,,,,
,,,,,,,,,,,,,,,,,,,,,,42.22222222,-56,20,75,-67.77777778,11.77777778,4.711111111,-0.177777778,-0.397777778,1,0,0,1.533,submitButton,6.919799054,-0.177777778,-0.397777778,0,0,0,1,48,108,40,1,56,68926,blockP,180,2022-02-22_09h35.54.448,orientation adjustment blockP,2021.2.3,MacIntel,58.82352941,,,,,,,
,,,,,,,,,,,,,,,,,,,,,,-46.11111111,-62,20,75,-74.11111111,12.11111111,4.844444444,0.214444444,-0.292222222,1,0,0,0.034,submitButton,6.897953216,-0.221111111,-0.398888889,0,0,0,1,49,109,46,1,62,68926,blockP,180,2022-02-22_09h35.54.448,orientation adjustment blockP,2021.2.3,MacIntel,58.82352941,,,,,,,
,,,,,,,,,,,,,,,,,,,,,,-66.11111111,-29,20,75,-41.11111111,12.11111111,4.844444444,0.18,-0.276666667,1,0,0,0.516,submitButton,6.8765625,-0.215555556,-0.396666667,0,0,0,1,50,110,13,1,29,68926,blockP,180,2022-02-22_09h35.54.448,orientation adjustment blockP,2021.2.3,MacIntel,58.82352941,,,,,,,
,,,,,,,,,,,,,,,,,,,,,,-67.22222222,30,20,75,33.77777778,3.777777778,1.511111111,-0.195555556,-0.406666667,1,0,0,2.033,submitButton,6.821248568,-0.195555556,-0.406666667,0,0,0,1,51,111,14,1,30,68926,blockP,180,2022-02-22_09h35.54.448,orientation adjustment blockP,2021.2.3,MacIntel,58.82352941,,,,,,,
,,,,,,,,,,,,,,,,,,,,,,55.55555556,-63,20,75,-81.44444444,18.44444444,11.98888889,0.392222222,-0.271111111,1,0,0,1.166,submitButton,6.873979592,-0.234444444,-0.402222222,0,0,0,1,52,112,47,1,63,68926,blockP,180,2022-02-22_09h35.54.448,orientation adjustment blockP,2021.2.3,MacIntel,58.82352941,,,,,,,
,,,,,,,,,,,,,,,,,,,,,,49.44444444,51,20,75,46.44444444,4.555555556,1.822222222,0.406666667,-0.276666667,1,0,0,0.516,submitButton,6.82295174,-0.172222222,-0.391111111,0,0,0,1,53,113,35,1,51,68926,blockP,180,2022-02-22_09h35.54.448,orientation adjustment blockP,2021.2.3,MacIntel,58.82352941,,,,,,,
,,,,,,,,,,,,,,,,,,,,,,37.77777778,-18,20,75,-41.22222222,23.22222222,15.09444444,0.411111111,-0.301111111,1,0,0,0.866,submitButton,6.905666667,-0.234444444,-0.418888889,0,0,0,1,54,114,2,1,18,68926,blockP,180,2022-02-22_09h35.54.448,orientation adjustment blockP,2021.2.3,MacIntel,58.82352941,,,,,,,
,,,,,,,,,,,,,,,,,,,,,,30.55555556,37,20,75,42.55555556,5.555555556,2.222222222,0.402222222,-0.298888889,1,0,0,0.601,submitButton,6.85929593,-0.197777778,-0.404444444,0,0,0,1,55,115,21,1,37,68926,blockP,180,2022-02-22_09h35.54.448,orientation adjustment blockP,2021.2.3,MacIntel,58.82352941,,,,,,,
,,,,,,,,,,,,,,,,,,,,,,-33.88888889,-54,20,75,-59.88888889,5.888888889,2.355555556,0.246666667,-0.301111111,1,0,0,0.1,submitButton,6.815141612,-0.357777778,-0.413333333,0,0,0,1,56,116,38,1,54,68926,blockP,180,2022-02-22_09h35.54.448,orientation adjustment blockP,2021.2.3,MacIntel,58.82352941,,,,,,,
,,,,,,,,,,,,,,,,,,,,,,39.44444444,32,20,75,39.44444444,7.444444444,2.977777778,0.426666667,-0.274444444,1,0,0,0.25,submitButton,6.777885653,-0.112222222,-0.41,0,0,0,1,57,117,16,1,32,68926,blockP,180,2022-02-22_09h35.54.448,orientation adjustment blockP,2021.2.3,MacIntel,58.82352941,,,,,,,
,,,,,,,,,,,,,,,,,,,,,,33.88888889,-33,20,75,-60.11111111,27.11111111,17.62222222,0.401111111,-0.298888889,1,0,0,0.35,submitButton,6.88215812,-0.255555556,-0.401111111,0,0,0,1,58,118,17,1,33,68926,blockP,180,2022-02-22_09h35.54.448,orientation adjustment blockP,2021.2.3,MacIntel,58.82352941,,,,,,,
,,,,,,,,,,,,,,,,,,,,,,34.44444444,47,20,75,59.44444444,12.44444444,4.977777778,0.385555556,-0.288888889,1,0,0,0.534,submitButton,6.864021164,0.418888889,-0.398888889,1,0,0,1,59,119,31,1,47,68926,blockP,180,2022-02-22_09h35.54.448,orientation adjustment blockP,2021.2.3,MacIntel,58.82352941,continueButton,,,,,,
,,,,,,,,,,,,,,,,,,,,,,-22.77777778,-28,20,75,-22.77777778,5.222222222,2.088888889,0.178888889,-0.321111111,1,0,0,0.249,submitButton,6.818972746,-0.205555556,-0.421111111,0,0,0,2,0,120,12,1,28,68926,blockP,180,2022-02-22_09h35.54.448,orientation adjustment blockP,2021.2.3,MacIntel,58.82352941,,,,,,,
,,,,,,,,,,,,,,,,,,,,,,-61.66666667,-70,20,75,-247.6666667,2.333333333,0.933333333,-0.176666667,-0.413333333,1,0,0,2.417,submitButton,6.763966771,-0.176666667,-0.413333333,0,0,0,2,1,121,54,1,70,68926,blockP,180,2022-02-22_09h35.54.448,orientation adjustment blockP,2021.2.3,MacIntel,58.82352941,,,,,,,
,,,,,,,,,,,,,,,,,,,,,,30,-58,20,75,-54,4,1.6,-0.153333333,-0.428888889,1,0,0,1.234,submitButton,6.716152263,-0.142222222,-0.392222222,0,0,0,2,2,122,42,1,58,68926,blockP,180,2022-02-22_09h35.54.448,orientation adjustment blockP,2021.2.3,MacIntel,58.82352941,,,,,,,
,,,,,,,,,,,,,,,,,,,,,,-46.11111111,55,20,75,56.88888889,1.888888889,0.755555556,0.183333333,-0.31,1,0,0,0.766,submitButton,6.66146789,-0.163333333,-0.407777778,0,0,0,2,3,123,39,1,55,68926,blockP,180,2022-02-22_09h35.54.448,orientation adjustment blockP,2021.2.3,MacIntel,58.82352941,,,,,,,
,,,,,,,,,,,,,,,,,,,,,,-43.88888889,-51,20,75,-251.8888889,20.88888889,13.57777778,0.402222222,-0.291111111,1,0,0,0.4,submitButton,6.724343434,-0.161111111,-0.401111111,0,0,0,2,4,124,35,1,51,68926,blockP,180,2022-02-22_09h35.54.448,orientation adjustment blockP,2021.2.3,MacIntel,58.82352941,,,,,,,
,,,,,,,,,,,,,,,,,,,,,,53.88888889,-44,20,75,-69.11111111,25.11111111,16.32222222,-0.155555556,-0.404444444,1,0,0,1.898,submitButton,6.810810811,-0.155555556,-0.404444444,0,0,0,2,5,125,28,1,44,68926,blockP,180,2022-02-22_09h35.54.448,orientation adjustment blockP,2021.2.3,MacIntel,58.82352941,,,,,,,
,,,,,,,,,,,,,,,,,,,,,,-65,67,20,75,67,0,0,-0.147777778,-0.41,1,0,0,1.501,submitButton,6.75,-0.147777778,-0.41,0,0,0,2,6,126,51,1,67,68926,blockP,180,2022-02-22_09h35.54.448,orientation adjustment blockP,2021.2.3,MacIntel,58.82352941,,,,,,,
,,,,,,,,,,,,,,,,,,,,,,-33.88888889,64,20,75,86.11111111,22.11111111,14.37222222,-0.192222222,-0.417777778,1,0,0,1.417,submitButton,6.817453294,-0.192222222,-0.417777778,0,0,0,2,7,127,48,1,64,68926,blockP,180,2022-02-22_09h35.54.448,orientation adjustment blockP,2021.2.3,MacIntel,58.82352941,,,,,,,
,,,,,,,,,,,,,,,,,,,,,,71.11111111,26,20,75,36.11111111,10.11111111,4.044444444,0.376666667,-0.303333333,1,0,0,0.215,submitButton,6.793128655,-0.118888889,-0.405555556,0,0,0,2,8,128,10,1,26,68926,blockP,180,2022-02-22_09h35.54.448,orientation adjustment blockP,2021.2.3,MacIntel,58.82352941,,,,,,,
,,,,,,,,,,,,,,,,,,,,,,22.22222222,52,20,75,51.22222222,0.777777778,0.311111111,0.368888889,-0.304444444,1,0,0,0.133,submitButton,6.736763285,-0.381111111,-0.417777778,0,0,0,2,9,129,36,1,52,68926,blockP,180,2022-02-22_09h35.54.448,orientation adjustment blockP,2021.2.3,MacIntel,58.82352941,,,,,,,
,,,,,,,,,,,,,,,,,,,,,,-27.77777778,-63,20,75,-66.77777778,3.777777778,1.511111111,-0.241111111,-0.401111111,1,0,0,1.4,submitButton,6.691714559,-0.241111111,-0.401111111,0,0,0,2,10,130,47,1,63,68926,blockP,180,2022-02-22_09h35.54.448,orientation adjustment blockP,2021.2.3,MacIntel,58.82352941,,,,,,,
,,,,,,,,,,,,,,,,,,,,,,41.66666667,25,20,75,28.66666667,3.666666667,1.466666667,0.371111111,-0.314444444,1,0,0,0.032,submitButton,6.64705603,-0.253333333,-0.41,0,0,0,2,11,131,9,1,25,68926,blockP,180,2022-02-22_09h35.54.448,orientation adjustment blockP,2021.2.3,MacIntel,58.82352941,,,,,,,
,,,,,,,,,,,,,,,,,,,,,,-53.88888889,-71,20,75,-258.8888889,7.888888889,3.155555556,-0.354444444,-0.407777778,1,0,0,2.983,submitButton,6.617467043,-0.354444444,-0.407777778,0,0,0,2,12,132,55,1,71,68926,blockP,180,2022-02-22_09h35.54.448,orientation adjustment blockP,2021.2.3,MacIntel,58.82352941,,,,,,,
,,,,,,,,,,,,,,,,,,,,,,-61.11111111,45,20,75,37.88888889,7.111111111,2.844444444,0.173333333,-0.305555556,1,0,0,0.85,submitButton,6.585760971,-0.173333333,-0.398888889,0,0,0,2,13,133,29,1,45,68926,blockP,180,2022-02-22_09h35.54.448,orientation adjustment blockP,2021.2.3,MacIntel,58.82352941,,,,,,,
,,,,,,,,,,,,,,,,,,,,,,-30,29,20,75,32,3,1.2,-0.281111111,-0.402222222,1,0,0,1.25,submitButton,6.54087963,0.434444444,-0.385555556,1,0,0,2,14,134,13,1,29,68926,blockP,180,2022-02-22_09h35.54.448,orientation adjustment blockP,2021.2.3,MacIntel,58.82352941,continueButton,,,,,,
,,,,,,,,,,,,,,,,,,,,,,-27.77777778,-54,20,75,-54.77777778,0.777777778,0.311111111,0.2,-0.313333333,1,0,0,0.166,submitButton,6.489393939,-0.212222222,-0.415555556,0,0,0,2,15,135,38,1,54,68926,blockP,180,2022-02-22_09h35.54.448,orientation adjustment blockP,2021.2.3,MacIntel,58.82352941,,,,,,,
,,,,,,,,,,,,,,,,,,,,,,28.33333333,21,20,75,26.33333333,5.333333333,2.133333333,0.423333333,-0.283333333,1,0,0,0.216,submitButton,6.453688525,-0.244444444,-0.406666667,0,0,0,2,16,136,5,1,21,68926,blockP,180,2022-02-22_09h35.54.448,orientation adjustment blockP,2021.2.3,MacIntel,58.82352941,,,,,,,
,,,,,,,,,,,,,,,,,,,,,,-35.55555556,-37,20,75,-52.55555556,15.55555556,10.11111111,0.224444444,-0.316666667,1,0,0,0.449,submitButton,6.483423668,-0.228888889,-0.414444444,0,0,0,2,17,137,21,1,37,68926,blockP,180,2022-02-22_09h35.54.448,orientation adjustment blockP,2021.2.3,MacIntel,58.82352941,,,,,,,
,,,,,,,,,,,,,,,,,,,,,,36.11111111,16,20,75,14.11111111,1.888888889,0.755555556,0.413333333,-0.288888889,1,0,0,2.749,submitButton,6.437231183,-0.17,-0.416666667,0,0,0,2,18,138,0,1,16,68926,blockP,180,2022-02-22_09h35.54.448,orientation adjustment blockP,2021.2.3,MacIntel,58.82352941,,,,,,,
,,,,,,,,,,,,,,,,,,,,,,-55,46,20,75,45,1,0.4,-0.161111111,-0.405555556,1,0,0,1.784,submitButton,6.388933333,-0.161111111,-0.405555556,0,0,0,2,19,139,30,1,46,68926,blockP,180,2022-02-22_09h35.54.448,orientation adjustment blockP,2021.2.3,MacIntel,58.82352941,,,,,,,
,,,,,,,,,,,,,,,,,,,,,,45.55555556,-73,20,75,-76.44444444,3.444444444,1.377777778,-0.297777778,-0.395555556,1,0,0,1.267,submitButton,6.349162257,-0.297777778,-0.395555556,0,0,0,2,20,140,57,1,73,68926,blockP,180,2022-02-22_09h35.54.448,orientation adjustment blockP,2021.2.3,MacIntel,58.82352941,,,,,,,
,,,,,,,,,,,,,,,,,,,,,,-45.55555556,-48,20,75,-48.55555556,0.555555556,0.222222222,0.2,-0.314444444,1,0,0,0.116,submitButton,6.300918635,-0.166666667,-0.4,0,0,0,2,21,141,32,1,48,68926,blockP,180,2022-02-22_09h35.54.448,orientation adjustment blockP,2021.2.3,MacIntel,58.82352941,,,,,,,
,,,,,,,,,,,,,,,,,,,,,,70,-36,20,75,-46,10,4,0.415555556,-0.287777778,1,0,0,1.317,submitButton,6.282942708,-0.206666667,-0.375555556,0,0,0,2,22,142,20,1,36,68926,blockP,180,2022-02-22_09h35.54.448,orientation adjustment blockP,2021.2.3,MacIntel,58.82352941,,,,,,,
,,,,,,,,,,,,,,,,,,,,,,-75,-47,20,75,-54,7,2.8,0.244444444,-0.292222222,1,0,0,1.134,submitButton,6.255943152,-0.194444444,-0.388888889,0,0,0,2,23,143,31,1,47,68926,blockP,180,2022-02-22_09h35.54.448,orientation adjustment blockP,2021.2.3,MacIntel,58.82352941,,,,,,,
,,,,,,,,,,,,,,,,,,,,,,-72.77777778,-62,20,75,-257.7777778,15.77777778,10.25555556,0.413333333,-0.286666667,1,0,0,0.067,submitButton,6.286709402,-0.228888889,-0.39,0,0,0,2,24,144,46,1,62,68926,blockP,180,2022-02-22_09h35.54.448,orientation adjustment blockP,2021.2.3,MacIntel,58.82352941,,,,,,,
,,,,,,,,,,,,,,,,,,,,,,37.22222222,-57,20,75,-55.77777778,1.222222222,0.488888889,0.387777778,-0.265555556,1,0,0,0.534,submitButton,6.24245123,-0.264444444,-0.388888889,0,0,0,2,25,145,41,1,57,68926,blockP,180,2022-02-22_09h35.54.448,orientation adjustment blockP,2021.2.3,MacIntel,58.82352941,,,,,,,
,,,,,,,,,,,,,,,,,,,,,,-30,-56,20,75,-64,8,3.2,0.225555556,-0.288888889,1,0,0,0.083,submitButton,6.219402357,-0.273333333,-0.41,0,0,0,2,26,146,40,1,56,68926,blockP,180,2022-02-22_09h35.54.448,orientation adjustment blockP,2021.2.3,MacIntel,58.82352941,,,,,,,
,,,,,,,,,,,,,,,,,,,,,,34.44444444,49,20,75,49.44444444,0.444444444,0.177777778,0.41,-0.31,1,0,0,0.501,submitButton,6.173976608,-0.152222222,-0.385555556,0,0,0,2,27,147,33,1,49,68926,blockP,180,2022-02-22_09h35.54.448,orientation adjustment blockP,2021.2.3,MacIntel,58.82352941,,,,,,,
,,,,,,,,,,,,,,,,,,,,,,29.44444444,19,20,75,19.44444444,0.444444444,0.177777778,0.39,-0.278888889,1,0,0,0.684,submitButton,6.129228856,-0.173333333,-0.404444444,0,0,0,2,28,148,3,1,19,68926,blockP,180,2022-02-22_09h35.54.448,orientation adjustment blockP,2021.2.3,MacIntel,58.82352941,,,,,,,
,,,,,,,,,,,,,,,,,,,,,,-62.77777778,50,20,75,53.22222222,3.222222222,1.288888889,0.204444444,-0.301111111,1,0,0,0.066,submitButton,6.093374486,0.438888889,-0.404444444,1,0,0,2,29,149,34,1,50,68926,blockP,180,2022-02-22_09h35.54.448,orientation adjustment blockP,2021.2.3,MacIntel,58.82352941,continueButton,,,,,,
,,,,,,,,,,,,,,,,,,,,,,39.44444444,61,20,75,60.44444444,0.555555556,0.222222222,0.418888889,-0.287777778,1,0,0,0.199,submitButton,6.050204248,-0.383333333,-0.403333333,0,0,0,2,30,150,45,1,61,68926,blockP,180,2022-02-22_09h35.54.448,orientation adjustment blockP,2021.2.3,MacIntel,58.82352941,,,,,,,
,,,,,,,,,,,,,,,,,,,,,,-72.77777778,35,20,75,32.22222222,2.777777778,1.111111111,-0.296666667,-0.407777778,1,0,0,1.651,submitButton,6.014152474,-0.296666667,-0.407777778,0,0,0,2,31,151,19,1,35,68926,blockP,180,2022-02-22_09h35.54.448,orientation adjustment blockP,2021.2.3,MacIntel,58.82352941,,,,,,,
,,,,,,,,,,,,,,,,,,,,,,-71.11111111,-75,20,75,-258.1111111,3.111111111,1.244444444,0.387777778,-0.294444444,1,0,0,1.65,submitButton,5.979589372,-0.326666667,-0.402222222,0,0,0,2,32,152,59,1,75,68926,blockP,180,2022-02-22_09h35.54.448,orientation adjustment blockP,2021.2.3,MacIntel,58.82352941,,,,,,,
,,,,,,,,,,,,,,,,,,,,,,-40.55555556,-69,20,75,-62.55555556,6.444444444,2.577777778,0.211111111,-0.288888889,1,0,0,0.117,submitButton,5.955115907,-0.237777778,-0.386666667,0,0,0,2,33,153,53,1,69,68926,blockP,180,2022-02-22_09h35.54.448,orientation adjustment blockP,2021.2.3,MacIntel,58.82352941,,,,,,,
,,,,,,,,,,,,,,,,,,,,,,-42.22222222,-34,20,75,-45.22222222,11.22222222,4.488888889,-0.254444444,-0.397777778,1,0,0,1.1,submitButton,5.944642857,-0.254444444,-0.397777778,0,0,0,2,34,154,18,1,34,68926,blockP,180,2022-02-22_09h35.54.448,orientation adjustment blockP,2021.2.3,MacIntel,58.82352941,,,,,,,
,,,,,,,,,,,,,,,,,,,,,,-48.33333333,-32,20,75,-39.33333333,7.333333333,2.933333333,-0.258888889,-0.393333333,1,0,0,1.735,submitButton,5.923286052,-0.258888889,-0.393333333,0,0,0,2,35,155,16,1,32,68926,blockP,180,2022-02-22_09h35.54.448,orientation adjustment blockP,2021.2.3,MacIntel,58.82352941,,,,,,,
,,,,,,,,,,,,,,,,,,,,,,-35,59,20,75,64,5,2,-0.148888889,-0.416666667,1,0,0,1.15,submitButton,5.895657277,-0.148888889,-0.416666667,0,0,0,2,36,156,43,1,59,68926,blockP,180,2022-02-22_09h35.54.448,orientation adjustment blockP,2021.2.3,MacIntel,58.82352941,,,,,,,
,,,,,,,,,,,,,,,,,,,,,,-67.77777778,-42,20,75,-255.7777778,33.77777778,27.02222222,0.393333333,-0.283333333,1,0,0,1.05,submitButton,6.043395493,-0.271111111,-0.418888889,0,0,0,2,37,157,26,1,42,68926,blockP,180,2022-02-22_09h35.54.448,orientation adjustment blockP,2021.2.3,MacIntel,58.82352941,,,,,,,
,,,,,,,,,,,,,,,,,,,,,,52.22222222,-65,20,75,-62.77777778,2.222222222,0.888888889,0.375555556,-0.303333333,1,0,0,0.299,submitButton,6.007600309,-0.148888889,-0.39,0,0,0,2,38,158,49,1,65,68926,blockP,180,2022-02-22_09h35.54.448,orientation adjustment blockP,2021.2.3,MacIntel,58.82352941,,,,,,,
,,,,,,,,,,,,,,,,,,,,,,-53.88888889,-53,20,75,-58.88888889,5.888888889,2.355555556,0.188888889,-0.285555556,1,0,0,0.084,submitButton,5.982413793,-0.273333333,-0.404444444,0,0,0,2,39,159,37,1,53,68926,blockP,180,2022-02-22_09h35.54.448,orientation adjustment blockP,2021.2.3,MacIntel,58.82352941,,,,,,,
,,,,,,,,,,,,,,,,,,,,,,-70.55555556,27,20,75,37.44444444,10.44444444,4.177777778,0.16,-0.297777778,1,0,0,1.184,submitButton,5.970053272,-0.148888889,-0.414444444,0,0,0,2,40,160,11,1,27,68926,blockP,180,2022-02-22_09h35.54.448,orientation adjustment blockP,2021.2.3,MacIntel,58.82352941,,,,,,,
,,,,,,,,,,,,,,,,,,,,,,50,39,20,75,33,6,2.4,0.376666667,-0.301111111,1,0,0,0.334,submitButton,5.945767196,-0.153333333,-0.391111111,0,0,0,2,41,161,23,1,39,68926,blockP,180,2022-02-22_09h35.54.448,orientation adjustment blockP,2021.2.3,MacIntel,58.82352941,,,,,,,
,,,,,,,,,,,,,,,,,,,,,,-68.88888889,22,20,75,35.11111111,13.11111111,5.244444444,0.232222222,-0.314444444,1,0,0,0.05,submitButton,5.941028529,-0.153333333,-0.398888889,0,0,0,2,42,162,6,1,22,68926,blockP,180,2022-02-22_09h35.54.448,orientation adjustment blockP,2021.2.3,MacIntel,58.82352941,,,,,,,
,,,,,,,,,,,,,,,,,,,,,,48.88888889,40,20,75,33.88888889,6.111111111,2.444444444,0.437777778,-0.298888889,1,0,0,1.017,submitButton,5.917561521,-0.144444444,-0.41,0,0,0,2,43,163,24,1,40,68926,blockP,180,2022-02-22_09h35.54.448,orientation adjustment blockP,2021.2.3,MacIntel,58.82352941,,,,,,,
,,,,,,,,,,,,,,,,,,,,,,72.77777778,18,20,75,19.77777778,1.777777778,0.711111111,0.377777778,-0.301111111,1,0,0,0.233,submitButton,5.882851852,0.32,-0.385555556,1,0,0,2,44,164,2,1,18,68926,blockP,180,2022-02-22_09h35.54.448,orientation adjustment blockP,2021.2.3,MacIntel,58.82352941,continueButton,,,,,,
,,,,,,,,,,,,,,,,,,,,,,45,-66,20,75,-72,6,2.4,-0.236666667,-0.404444444,1,0,0,1.566,submitButton,5.859786608,-0.224444444,-0.394444444,0,0,0,2,45,165,50,1,66,68926,blockP,180,2022-02-22_09h35.54.448,orientation adjustment blockP,2021.2.3,MacIntel,58.82352941,,,,,,,
,,,,,,,,,,,,,,,,,,,,,,-53.88888889,20,20,75,31.11111111,11.11111111,4.444444444,-0.456666667,-0.407777778,1,0,0,1.467,submitButton,5.850475146,-0.456666667,-0.407777778,0,0,0,2,46,166,4,1,20,68926,blockP,180,2022-02-22_09h35.54.448,orientation adjustment blockP,2021.2.3,MacIntel,58.82352941,,,,,,,
,,,,,,,,,,,,,,,,,,,,,,39.44444444,-31,20,75,-34.55555556,3.555555556,1.422222222,-0.456666667,-0.42,1,0,0,1.616,submitButton,5.821532317,-0.456666667,-0.42,0,0,0,2,47,167,15,1,31,68926,blockP,180,2022-02-22_09h35.54.448,orientation adjustment blockP,2021.2.3,MacIntel,58.82352941,,,,,,,
,,,,,,,,,,,,,,,,,,,,,,63.33333333,68,20,75,251.3333333,3.333333333,1.333333333,-0.188888889,-0.403333333,1,0,0,2.45,submitButton,5.792388167,-0.188888889,-0.403333333,0,0,0,2,48,168,52,1,68,68926,blockP,180,2022-02-22_09h35.54.448,orientation adjustment blockP,2021.2.3,MacIntel,58.82352941,,,,,,,
,,,,,,,,,,,,,,,,,,,,,,-56.66666667,-23,20,75,-34.66666667,11.66666667,4.666666667,0.195555556,-0.306666667,1,0,0,0.017,submitButton,5.785125448,-0.277777778,-0.41,0,0,0,2,49,169,7,1,23,68926,blockP,180,2022-02-22_09h35.54.448,orientation adjustment blockP,2021.2.3,MacIntel,58.82352941,,,,,,,
,,,,,,,,,,,,,,,,,,,,,,-58.88888889,43,20,75,47.11111111,4.111111111,1.644444444,0.175555556,-0.305555556,1,0,0,0.417,submitButton,5.758582621,-0.124444444,-0.388888889,0,0,0,2,50,170,27,1,43,68926,blockP,180,2022-02-22_09h35.54.448,orientation adjustment blockP,2021.2.3,MacIntel,58.82352941,,,,,,,
,,,,,,,,,,,,,,,,,,,,,,-45.55555556,-24,20,75,-30.55555556,6.555555556,2.622222222,0.204444444,-0.326666667,1,0,0,0.25,submitButton,5.738605803,-0.336666667,-0.411111111,0,0,0,2,51,171,8,1,24,68926,blockP,180,2022-02-22_09h35.54.448,orientation adjustment blockP,2021.2.3,MacIntel,58.82352941,,,,,,,
,,,,,,,,,,,,,,,,,,,,,,43.88888889,-72,20,75,-79.11111111,7.111111111,2.844444444,0.401111111,-0.307777778,1,0,0,0.65,submitButton,5.720288326,-0.141111111,-0.401111111,0,0,0,2,52,172,56,1,72,68926,blockP,180,2022-02-22_09h35.54.448,orientation adjustment blockP,2021.2.3,MacIntel,58.82352941,,,,,,,
,,,,,,,,,,,,,,,,,,,,,,-69.44444444,17,20,75,28.55555556,11.55555556,4.622222222,-0.231111111,-0.41,1,0,0,2.501,submitButton,5.71338225,-0.231111111,-0.408888889,0,0,0,2,53,173,1,1,17,68926,blockP,180,2022-02-22_09h35.54.448,orientation adjustment blockP,2021.2.3,MacIntel,58.82352941,,,,,,,
,,,,,,,,,,,,,,,,,,,,,,-59.44444444,-30,20,75,-218.4444444,8.444444444,3.377777778,0.397777778,-0.296666667,1,0,0,2.184,submitButton,5.698784722,-0.214444444,-0.416666667,0,0,0,2,54,174,14,1,30,68926,blockP,180,2022-02-22_09h35.54.448,orientation adjustment blockP,2021.2.3,MacIntel,58.82352941,,,,,,,
,,,,,,,,,,,,,,,,,,,,,,-72.77777778,-33,20,75,-19.77777778,13.22222222,5.288888889,0.174444444,-0.312222222,1,0,0,0.167,submitButton,5.696238785,-0.236666667,-0.406666667,0,0,0,2,55,175,17,1,33,68926,blockP,180,2022-02-22_09h35.54.448,orientation adjustment blockP,2021.2.3,MacIntel,58.82352941,,,,,,,
,,,,,,,,,,,,,,,,,,,,,,-63.33333333,-41,20,75,-45.33333333,4.333333333,1.733333333,-0.168888889,-0.397777778,1,0,0,1.4,submitButton,5.671776406,-0.168888889,-0.397777778,0,0,0,2,56,176,25,1,41,68926,blockP,180,2022-02-22_09h35.54.448,orientation adjustment blockP,2021.2.3,MacIntel,58.82352941,,,,,,,
,,,,,,,,,,,,,,,,,,,,,,37.22222222,-74,20,75,-77.77777778,3.777777778,1.511111111,0.433333333,-0.292222222,1,0,0,0.084,submitButton,5.646250852,-0.17,-0.418888889,0,0,0,2,57,177,58,1,74,68926,blockP,180,2022-02-22_09h35.54.448,orientation adjustment blockP,2021.2.3,MacIntel,58.82352941,,,,,,,
,,,,,,,,,,,,,,,,,,,,,,75,60,20,75,250,10,4,0.191111111,-0.281111111,1,0,0,1.434,submitButton,5.636212737,-0.181111111,-0.405555556,0,0,0,2,58,178,44,1,60,68926,blockP,180,2022-02-22_09h35.54.448,orientation adjustment blockP,2021.2.3,MacIntel,58.82352941,,,,,,,
,,,,,,,,,,,,,,,,,,,,,,41.66666667,38,20,75,35.66666667,2.333333333,0.933333333,0.385555556,-0.308888889,1,0,0,0.418,submitButton,5.607710438,-0.12,-0.391111111,0,0,0,2,59,179,22,1,38,68926,blockP,180,2022-02-22_09h35.54.448,orientation adjustment blockP,2021.2.3,MacIntel,58.82352941,,,,,,,
,,,,,,,,,,,,,,,,,,,,,,,,,,,,,,,,,,,,,,,,,,,,,,,,68926,blockP,180,2022-02-22_09h35.54.448,orientation adjustment blockP,2021.2.3,MacIntel,58.82352941,,0.362222222,-0.401111111,1,0,0,EndButtonTxt
