consentMouse1.x,consentMouse1.y,consentMouse1.leftButton,consentMouse1.midButton,consentMouse1.rightButton,consentMouse1.clicked_name,consent_Mouse.x,consent_Mouse.y,consent_Mouse.leftButton,consent_Mouse.midButton,consent_Mouse.rightButton,consent_Mouse.clicked_name,startMouse.x,startMouse.y,startMouse.leftButton,startMouse.midButton,startMouse.rightButton,startMouse_2.x,startMouse_2.y,startMouse_2.leftButton,startMouse_2.midButton,startMouse_2.rightButton,start_distance,fixedOri,minimalDistance,maxOri,this_ori,accuracy,presented_accuracy,submitMouse.x,submitMouse.y,submitMouse.leftButton,submitMouse.midButton,submitMouse.rightButton,submitMouse.time,submitMouse.clicked_name,block_accuracy,continueMouse.x,continueMouse.y,continueMouse.leftButton,continueMouse.midButton,continueMouse.rightButton,trials.thisRepN,trials.thisTrialN,trials.thisN,trials.thisIndex,trials.ran,startOri,participant,condition,nTrials,date,expName,psychopyVersion,OS,frameRate,continueMouse.clicked_name,EndButtonMouse.x,EndButtonMouse.y,EndButtonMouse.leftButton,EndButtonMouse.midButton,EndButtonMouse.rightButton,EndButtonMouse.clicked_name
0.419270833,-0.40234375,1,0,0,consent_button1,0.419270833,-0.40234375,1,0,0,consent_button,0.170572917,-0.095052083,1,0,0,0.1328125,-0.380208333,1,0,0,-33.88888889,-44,20,75,-76.88888889,32.88888889,26.31111111,0.229166667,-0.302083333,1,0,0,4.1124,submitButton,26.31111111,-0.307291667,-0.40625,0,0,0,0,0,0,28,1,44,69016,blockP,180,2022-02-17_18h59.42.673,orientation adjustment blockP,2021.2.3,Win32,31.89284006,,,,,,,
,,,,,,,,,,,,,,,,,,,,,,47.22222222,-61,20,75,-39.77777778,21.22222222,13.79444444,0.411458333,-0.291666667,1,0,0,1.3822,submitButton,20.05277778,-0.303385417,-0.424479167,0,0,0,0,1,1,45,1,61,69016,blockP,180,2022-02-17_18h59.42.673,orientation adjustment blockP,2021.2.3,Win32,31.89284006,,,,,,,
,,,,,,,,,,,,,,,,,,,,,,52.22222222,-23,20,75,-32.77777778,9.777777778,3.911111111,0.424479167,-0.313802083,1,0,0,0.2726,submitButton,14.67222222,-0.1171875,-0.194010417,0,0,0,0,2,2,7,1,23,69016,blockP,180,2022-02-17_18h59.42.673,orientation adjustment blockP,2021.2.3,Win32,31.89284006,,,,,,,
,,,,,,,,,,,,,,,,,,,,,,-48.33333333,-53,20,75,-227.3333333,5.666666667,2.266666667,0.408854167,-0.3046875,1,0,0,0.0534,submitButton,2.266666667,-0.005208333,-0.268229167,0,0,0,0,3,3,37,1,53,69016,blockP,180,2022-02-17_18h59.42.673,orientation adjustment blockP,2021.2.3,Win32,31.89284006,,,,,,,
,,,,,,,,,,,,,,,,,,,,,,65,-71,20,75,-78,7,2.8,-0.313802083,-0.401041667,1,0,0,1.6363,submitButton,2.533333333,-0.313802083,-0.401041667,0,0,0,0,4,4,55,1,71,69016,blockP,180,2022-02-17_18h59.42.673,orientation adjustment blockP,2021.2.3,Win32,31.89284006,,,,,,,
,,,,,,,,,,,,,,,,,,,,,,26.66666667,73,20,75,242.6666667,10.33333333,4.133333333,-0.177083333,-0.41015625,1,0,0,2.8281,submitButton,3.066666667,-0.177083333,-0.41015625,0,0,0,0,5,5,57,1,73,69016,blockP,180,2022-02-17_18h59.42.673,orientation adjustment blockP,2021.2.3,Win32,31.89284006,,,,,,,
,,,,,,,,,,,,,,,,,,,,,,-50.55555556,-66,20,75,-245.5555556,0.444444444,0.177777778,0.421875,-0.3125,1,0,0,0.5172,submitButton,0.177777778,-0.141927083,-0.407552083,0,0,0,0,6,6,50,1,66,69016,blockP,180,2022-02-17_18h59.42.673,orientation adjustment blockP,2021.2.3,Win32,31.89284006,,,,,,,
,,,,,,,,,,,,,,,,,,,,,,-32.22222222,-69,20,75,-251.2222222,2.222222222,0.888888889,-0.213541667,-0.41015625,1,0,0,3.5019,submitButton,0.533333333,-0.213541667,-0.41015625,0,0,0,0,7,7,53,1,69,69016,blockP,180,2022-02-17_18h59.42.673,orientation adjustment blockP,2021.2.3,Win32,31.89284006,,,,,,,
,,,,,,,,,,,,,,,,,,,,,,-62.77777778,-51,20,75,-247.7777778,16.77777778,10.90555556,0.423177083,-0.274739583,1,0,0,0.0669,submitButton,3.990740741,-0.15625,-0.404947917,0,0,0,0,8,8,35,1,51,69016,blockP,180,2022-02-17_18h59.42.673,orientation adjustment blockP,2021.2.3,Win32,31.89284006,,,,,,,
,,,,,,,,,,,,,,,,,,,,,,-33.88888889,-19,20,75,-200.8888889,1.888888889,0.755555556,-0.203125,-0.399739583,1,0,0,3.4309,submitButton,0.755555556,0.161458333,-0.037760417,0,0,0,0,9,9,3,1,19,69016,blockP,180,2022-02-17_18h59.42.673,orientation adjustment blockP,2021.2.3,Win32,31.89284006,,,,,,,
,,,,,,,,,,,,,,,,,,,,,,-47.77777778,-24,20,75,-210.7777778,6.777777778,2.711111111,-0.180989583,-0.408854167,1,0,0,2.8314,submitButton,1.733333333,-0.180989583,-0.408854167,0,0,0,0,10,10,8,1,24,69016,blockP,180,2022-02-17_18h59.42.673,orientation adjustment blockP,2021.2.3,Win32,31.89284006,,,,,,,
,,,,,,,,,,,,,,,,,,,,,,-25.55555556,40,20,75,43.44444444,3.444444444,1.377777778,-0.2265625,-0.41015625,1,0,0,1.0656,submitButton,1.614814815,-0.2265625,-0.41015625,0,0,0,0,11,11,24,1,40,69016,blockP,180,2022-02-17_18h59.42.673,orientation adjustment blockP,2021.2.3,Win32,31.89284006,,,,,,,
,,,,,,,,,,,,,,,,,,,,,,25.55555556,-50,20,75,-43.44444444,6.555555556,2.622222222,0.372395833,-0.28515625,1,0,0,0.2519,submitButton,2.622222222,-0.252604167,-0.384114583,0,0,0,0,12,12,34,1,50,69016,blockP,180,2022-02-17_18h59.42.673,orientation adjustment blockP,2021.2.3,Win32,31.89284006,,,,,,,
,,,,,,,,,,,,,,,,,,,,,,43.88888889,-39,20,75,-31.11111111,7.888888889,3.155555556,0.40625,-0.309895833,1,0,0,0.5184,submitButton,2.888888889,-0.18359375,-0.3203125,0,0,0,0,13,13,23,1,39,69016,blockP,180,2022-02-17_18h59.42.673,orientation adjustment blockP,2021.2.3,Win32,31.89284006,,,,,,,
,,,,,,,,,,,,,,,,,,,,,,-35,65,20,75,35,30,24,0.3828125,-0.299479167,1,0,0,0.4149,submitButton,9.925925926,0.4921875,-0.37890625,1,0,0,0,14,14,49,1,65,69016,blockP,180,2022-02-17_18h59.42.673,orientation adjustment blockP,2021.2.3,Win32,31.89284006,continueButton,,,,,,
,,,,,,,,,,,,,,,,,,,,,,61.11111111,-52,20,75,-40.88888889,11.11111111,4.444444444,-0.231770833,-0.389322917,1,0,0,1.05,submitButton,4.444444444,0.333333333,-0.177083333,0,0,0,0,15,15,36,1,52,69016,blockP,180,2022-02-17_18h59.42.673,orientation adjustment blockP,2021.2.3,Win32,31.89284006,,,,,,,
,,,,,,,,,,,,,,,,,,,,,,-63.88888889,41,20,75,38.11111111,2.888888889,1.155555556,-0.22265625,-0.389322917,1,0,0,1.4158,submitButton,2.8,0.28515625,-0.25,0,0,0,0,16,16,25,1,41,69016,blockP,180,2022-02-17_18h59.42.673,orientation adjustment blockP,2021.2.3,Win32,31.89284006,,,,,,,
,,,,,,,,,,,,,,,,,,,,,,-67.22222222,27,20,75,24.77777778,2.222222222,0.888888889,0.186197917,-0.282552083,1,0,0,0.7005,submitButton,2.162962963,-0.1640625,-0.380208333,0,0,0,0,17,17,11,1,27,69016,blockP,180,2022-02-17_18h59.42.673,orientation adjustment blockP,2021.2.3,Win32,31.89284006,,,,,,,
,,,,,,,,,,,,,,,,,,,,,,-30,-49,20,75,-225,4,1.6,-0.184895833,-0.389322917,1,0,0,3.0149,submitButton,2.022222222,-0.184895833,-0.389322917,0,0,0,0,18,18,33,1,49,69016,blockP,180,2022-02-17_18h59.42.673,orientation adjustment blockP,2021.2.3,Win32,31.89284006,,,,,,,
,,,,,,,,,,,,,,,,,,,,,,-52.77777778,29,20,75,20.22222222,8.777777778,3.511111111,-0.14453125,-0.395833333,1,0,0,1.3321,submitButton,2.32,-0.14453125,-0.395833333,0,0,0,0,19,19,13,1,29,69016,blockP,180,2022-02-17_18h59.42.673,orientation adjustment blockP,2021.2.3,Win32,31.89284006,,,,,,,
,,,,,,,,,,,,,,,,,,,,,,49.44444444,42,20,75,215.4444444,6.555555556,2.622222222,-0.204427083,-0.397135417,1,0,0,2.7168,submitButton,2.37037037,-0.204427083,-0.397135417,0,0,0,0,20,20,26,1,42,69016,blockP,180,2022-02-17_18h59.42.673,orientation adjustment blockP,2021.2.3,Win32,31.89284006,,,,,,,
,,,,,,,,,,,,,,,,,,,,,,-67.22222222,33,20,75,31.77777778,1.222222222,0.488888889,-0.184895833,-0.385416667,1,0,0,1.4327,submitButton,2.101587302,-0.184895833,-0.385416667,0,0,0,0,21,21,17,1,33,69016,blockP,180,2022-02-17_18h59.42.673,orientation adjustment blockP,2021.2.3,Win32,31.89284006,,,,,,,
,,,,,,,,,,,,,,,,,,,,,,-26.11111111,62,20,75,35.88888889,26.11111111,16.97222222,-0.350260417,-0.3984375,1,0,0,0.8005,submitButton,3.960416667,-0.350260417,-0.3984375,0,0,0,0,22,22,46,1,62,69016,blockP,180,2022-02-17_18h59.42.673,orientation adjustment blockP,2021.2.3,Win32,31.89284006,,,,,,,
,,,,,,,,,,,,,,,,,,,,,,35,47,20,75,63,16,10.4,0.401041667,-0.303385417,1,0,0,0.3986,submitButton,4.675925926,-0.213541667,-0.384114583,0,0,0,0,23,23,31,1,47,69016,blockP,180,2022-02-17_18h59.42.673,orientation adjustment blockP,2021.2.3,Win32,31.89284006,,,,,,,
,,,,,,,,,,,,,,,,,,,,,,57.77777778,-58,20,75,-48.22222222,9.777777778,3.911111111,-0.17578125,-0.390625,1,0,0,1.6831,submitButton,4.599444444,-0.17578125,-0.390625,0,0,0,0,24,24,42,1,58,69016,blockP,180,2022-02-17_18h59.42.673,orientation adjustment blockP,2021.2.3,Win32,31.89284006,,,,,,,
,,,,,,,,,,,,,,,,,,,,,,-47.77777778,28,20,75,41.22222222,13.22222222,5.288888889,-0.18359375,-0.424479167,1,0,0,1.3988,submitButton,4.662121212,-0.18359375,-0.424479167,0,0,0,0,25,25,12,1,28,69016,blockP,180,2022-02-17_18h59.42.673,orientation adjustment blockP,2021.2.3,Win32,31.89284006,,,,,,,
,,,,,,,,,,,,,,,,,,,,,,36.11111111,-57,20,75,42.11111111,80.88888889,72.8,0.2265625,-0.29296875,1,0,0,0.9017,submitButton,10.34027778,-0.18359375,-0.390625,0,0,0,0,26,26,41,1,57,69016,blockP,180,2022-02-17_18h59.42.673,orientation adjustment blockP,2021.2.3,Win32,31.89284006,,,,,,,
,,,,,,,,,,,,,,,,,,,,,,48.33333333,-45,20,75,-42.66666667,2.333333333,0.933333333,-0.17578125,-0.401041667,1,0,0,1.0503,submitButton,9.616666667,-0.17578125,-0.401041667,0,0,0,0,27,27,29,1,45,69016,blockP,180,2022-02-17_18h59.42.673,orientation adjustment blockP,2021.2.3,Win32,31.89284006,,,,,,,
,,,,,,,,,,,,,,,,,,,,,,46.66666667,37,20,75,58.66666667,21.66666667,14.08333333,0.411458333,-0.311197917,1,0,0,0.8512,submitButton,9.935714286,-0.180989583,-0.4140625,0,0,0,0,28,28,21,1,37,69016,blockP,180,2022-02-17_18h59.42.673,orientation adjustment blockP,2021.2.3,Win32,31.89284006,,,,,,,
,,,,,,,,,,,,,,,,,,,,,,38.88888889,-34,20,75,-28.11111111,5.888888889,2.355555556,-0.15234375,-0.38671875,1,0,0,0.9371,submitButton,9.43037037,0.41015625,-0.411458333,1,0,0,0,29,29,18,1,34,69016,blockP,180,2022-02-17_18h59.42.673,orientation adjustment blockP,2021.2.3,Win32,31.89284006,continueButton,,,,,,
,,,,,,,,,,,,,,,,,,,,,,-22.77777778,-48,20,75,-31.77777778,16.22222222,10.54444444,0.20703125,-0.282552083,1,0,0,1.1142,submitButton,9.5,-0.2421875,-0.385416667,0,0,0,0,30,30,32,1,48,69016,blockP,180,2022-02-17_18h59.42.673,orientation adjustment blockP,2021.2.3,Win32,31.89284006,,,,,,,
,,,,,,,,,,,,,,,,,,,,,,-28.88888889,-55,20,75,-59.88888889,4.888888889,1.955555556,0.182291667,-0.278645833,1,0,0,0.0345,submitButton,9.05620915,-0.151041667,-0.401041667,0,0,0,0,31,31,39,1,55,69016,blockP,180,2022-02-17_18h59.42.673,orientation adjustment blockP,2021.2.3,Win32,31.89284006,,,,,,,
,,,,,,,,,,,,,,,,,,,,,,20,-17,20,75,-13,4,1.6,0.43359375,-0.3046875,1,0,0,0.2196,submitButton,8.641975309,-0.3046875,-0.385416667,0,0,0,0,32,32,1,1,17,69016,blockP,180,2022-02-17_18h59.42.673,orientation adjustment blockP,2021.2.3,Win32,31.89284006,,,,,,,
,,,,,,,,,,,,,,,,,,,,,,68.88888889,60,20,75,228.8888889,11.11111111,4.444444444,0.205729167,-0.3203125,1,0,0,0.8501,submitButton,8.421052632,-0.235677083,-0.388020833,0,0,0,0,33,33,44,1,60,69016,blockP,180,2022-02-17_18h59.42.673,orientation adjustment blockP,2021.2.3,Win32,31.89284006,,,,,,,
,,,,,,,,,,,,,,,,,,,,,,-45,36,20,75,41,5,2,0.23046875,-0.30078125,1,0,0,0.0834,submitButton,8.1,-0.2109375,-0.3984375,0,0,0,0,34,34,20,1,36,69016,blockP,180,2022-02-17_18h59.42.673,orientation adjustment blockP,2021.2.3,Win32,31.89284006,,,,,,,
,,,,,,,,,,,,,,,,,,,,,,-21.66666667,-56,20,75,-221.6666667,14.33333333,5.733333333,0.391927083,-0.283854167,1,0,0,1.017,submitButton,7.987301587,-0.22265625,-0.419270833,0,0,0,0,35,35,40,1,56,69016,blockP,180,2022-02-17_18h59.42.673,orientation adjustment blockP,2021.2.3,Win32,31.89284006,,,,,,,
,,,,,,,,,,,,,,,,,,,,,,-21.66666667,38,20,75,29.33333333,8.666666667,3.466666667,0.2421875,-0.305989583,1,0,0,0.0342,submitButton,7.781818182,-0.291666667,-0.377604167,0,0,0,0,36,36,22,1,38,69016,blockP,180,2022-02-17_18h59.42.673,orientation adjustment blockP,2021.2.3,Win32,31.89284006,,,,,,,
,,,,,,,,,,,,,,,,,,,,,,70.55555556,21,20,75,45.55555556,24.55555556,15.96111111,0.375,-0.303385417,1,0,0,0.4162,submitButton,8.137439614,-0.274739583,-0.385416667,0,0,0,0,37,37,5,1,21,69016,blockP,180,2022-02-17_18h59.42.673,orientation adjustment blockP,2021.2.3,Win32,31.89284006,,,,,,,
,,,,,,,,,,,,,,,,,,,,,,68.33333333,68,20,75,222.3333333,25.66666667,16.68333333,0.166666667,-0.29296875,1,0,0,0.3506,submitButton,8.493518519,-0.217447917,-0.376302083,0,0,0,0,38,38,52,1,68,69016,blockP,180,2022-02-17_18h59.42.673,orientation adjustment blockP,2021.2.3,Win32,31.89284006,,,,,,,
,,,,,,,,,,,,,,,,,,,,,,-75,32,20,75,30,2,0.8,-0.235677083,-0.403645833,1,0,0,1.8993,submitButton,8.185777778,-0.235677083,-0.403645833,0,0,0,0,39,39,16,1,32,69016,blockP,180,2022-02-17_18h59.42.673,orientation adjustment blockP,2021.2.3,Win32,31.89284006,,,,,,,
,,,,,,,,,,,,,,,,,,,,,,46.66666667,-16,20,75,-22.33333333,6.333333333,2.533333333,0.40234375,-0.322916667,1,0,0,0.9006,submitButton,7.968376068,-0.286458333,-0.408854167,0,0,0,0,40,40,0,1,16,69016,blockP,180,2022-02-17_18h59.42.673,orientation adjustment blockP,2021.2.3,Win32,31.89284006,,,,,,,
,,,,,,,,,,,,,,,,,,,,,,22.22222222,63,20,75,75.22222222,12.22222222,4.888888889,0.40234375,-0.296875,1,0,0,0.8536,submitButton,7.854320988,-0.182291667,-0.3828125,0,0,0,0,41,41,47,1,63,69016,blockP,180,2022-02-17_18h59.42.673,orientation adjustment blockP,2021.2.3,Win32,31.89284006,,,,,,,
,,,,,,,,,,,,,,,,,,,,,,-33.33333333,-22,20,75,-203.3333333,1.333333333,0.533333333,0.385416667,-0.311197917,1,0,0,0.6959,submitButton,7.592857143,-0.186197917,-0.39453125,0,0,0,0,42,42,6,1,22,69016,blockP,180,2022-02-17_18h59.42.673,orientation adjustment blockP,2021.2.3,Win32,31.89284006,,,,,,,
,,,,,,,,,,,,,,,,,,,,,,-30.55555556,-18,20,75,-211.5555556,13.55555556,5.422222222,0.385416667,-0.302083333,1,0,0,0.463,submitButton,7.518007663,-0.1953125,-0.407552083,0,0,0,0,43,43,2,1,18,69016,blockP,180,2022-02-17_18h59.42.673,orientation adjustment blockP,2021.2.3,Win32,31.89284006,,,,,,,
,,,,,,,,,,,,,,,,,,,,,,-38.33333333,-75,20,75,-71.33333333,3.666666667,1.466666667,0.20703125,-0.30859375,1,0,0,0.4482,submitButton,7.316296296,0.294270833,-0.389322917,1,0,0,0,44,44,59,1,75,69016,blockP,180,2022-02-17_18h59.42.673,orientation adjustment blockP,2021.2.3,Win32,31.89284006,continueButton,,,,,,
,,,,,,,,,,,,,,,,,,,,,,-42.22222222,20,20,75,10.77777778,9.222222222,3.688888889,0.205729167,-0.3046875,1,0,0,0.6506,submitButton,7.199283154,-0.174479167,-0.37890625,0,0,0,0,45,45,4,1,20,69016,blockP,180,2022-02-17_18h59.42.673,orientation adjustment blockP,2021.2.3,Win32,31.89284006,,,,,,,
,,,,,,,,,,,,,,,,,,,,,,72.77777778,46,20,75,207.7777778,18.22222222,11.84444444,0.21484375,-0.30859375,1,0,0,0.0822,submitButton,7.344444444,-0.174479167,-0.388020833,0,0,0,0,46,46,30,1,46,69016,blockP,180,2022-02-17_18h59.42.673,orientation adjustment blockP,2021.2.3,Win32,31.89284006,,,,,,,
,,,,,,,,,,,,,,,,,,,,,,33.88888889,-67,20,75,-46.11111111,20.88888889,13.57777778,0.3828125,-0.305989583,1,0,0,0.6924,submitButton,7.533333333,-0.162760417,-0.404947917,0,0,0,0,47,47,51,1,67,69016,blockP,180,2022-02-17_18h59.42.673,orientation adjustment blockP,2021.2.3,Win32,31.89284006,,,,,,,
,,,,,,,,,,,,,,,,,,,,,,62.22222222,-54,20,75,-47.77777778,6.222222222,2.488888889,0.411458333,-0.290364583,1,0,0,0.1988,submitButton,7.38496732,-0.196614583,-0.40625,0,0,0,0,48,48,38,1,54,69016,blockP,180,2022-02-17_18h59.42.673,orientation adjustment blockP,2021.2.3,Win32,31.89284006,,,,,,,
,,,,,,,,,,,,,,,,,,,,,,52.22222222,74,20,75,226.2222222,27.77777778,18.05555556,0.23046875,-0.28515625,1,0,0,0.163,submitButton,7.68984127,-0.19140625,-0.411458333,0,0,0,0,49,49,58,1,74,69016,blockP,180,2022-02-17_18h59.42.673,orientation adjustment blockP,2021.2.3,Win32,31.89284006,,,,,,,
,,,,,,,,,,,,,,,,,,,,,,-28.88888889,35,20,75,24.11111111,10.88888889,4.355555556,0.17578125,-0.30078125,1,0,0,0.1542,submitButton,7.597222222,-0.186197917,-0.407552083,0,0,0,0,50,50,19,1,35,69016,blockP,180,2022-02-17_18h59.42.673,orientation adjustment blockP,2021.2.3,Win32,31.89284006,,,,,,,
,,,,,,,,,,,,,,,,,,,,,,72.77777778,-26,20,75,-26.22222222,0.222222222,0.088888889,0.381510417,-0.282552083,1,0,0,0.8332,submitButton,7.394294294,-0.217447917,-0.4140625,0,0,0,0,51,51,10,1,26,69016,blockP,180,2022-02-17_18h59.42.673,orientation adjustment blockP,2021.2.3,Win32,31.89284006,,,,,,,
,,,,,,,,,,,,,,,,,,,,,,-45.55555556,31,20,75,31.44444444,0.444444444,0.177777778,0.205729167,-0.3125,1,0,0,0.6842,submitButton,7.204385965,-0.173177083,-0.415364583,0,0,0,0,52,52,15,1,31,69016,blockP,180,2022-02-17_18h59.42.673,orientation adjustment blockP,2021.2.3,Win32,31.89284006,,,,,,,
,,,,,,,,,,,,,,,,,,,,,,58.88888889,59,20,75,222.8888889,16.11111111,10.47222222,-0.153645833,-0.39453125,1,0,0,2.4589,submitButton,7.288176638,-0.153645833,-0.39453125,0,0,0,0,53,53,43,1,59,69016,blockP,180,2022-02-17_18h59.42.673,orientation adjustment blockP,2021.2.3,Win32,31.89284006,,,,,,,
,,,,,,,,,,,,,,,,,,,,,,-21.66666667,25,20,75,25.33333333,0.333333333,0.133333333,-0.21484375,-0.395833333,1,0,0,0.8575,submitButton,7.109305556,-0.21484375,-0.395833333,0,0,0,0,54,54,9,1,25,69016,blockP,180,2022-02-17_18h59.42.673,orientation adjustment blockP,2021.2.3,Win32,31.89284006,,,,,,,
,,,,,,,,,,,,,,,,,,,,,,20,30,20,75,37,7,2.8,0.401041667,-0.295572917,1,0,0,0.3287,submitButton,7.004200542,-0.186197917,-0.39453125,0,0,0,0,55,55,14,1,30,69016,blockP,180,2022-02-17_18h59.42.673,orientation adjustment blockP,2021.2.3,Win32,31.89284006,,,,,,,
,,,,,,,,,,,,,,,,,,,,,,-53.88888889,70,20,75,30.11111111,39.88888889,31.91111111,-0.169270833,-0.416666667,1,0,0,0.9344,submitButton,7.597222222,-0.169270833,-0.416666667,0,0,0,0,56,56,54,1,70,69016,blockP,180,2022-02-17_18h59.42.673,orientation adjustment blockP,2021.2.3,Win32,31.89284006,,,,,,,
,,,,,,,,,,,,,,,,,,,,,,28.33333333,-43,20,75,-28.66666667,14.33333333,5.733333333,0.384114583,-0.305989583,1,0,0,0.3512,submitButton,7.553875969,-0.201822917,-0.38671875,0,0,0,0,57,57,27,1,43,69016,blockP,180,2022-02-17_18h59.42.673,orientation adjustment blockP,2021.2.3,Win32,31.89284006,,,,,,,
,,,,,,,,,,,,,,,,,,,,,,27.22222222,-72,20,75,-58.77777778,13.22222222,5.288888889,-0.165364583,-0.4140625,1,0,0,1.1102,submitButton,7.50239899,-0.165364583,-0.4140625,0,0,0,0,58,58,56,1,72,69016,blockP,180,2022-02-17_18h59.42.673,orientation adjustment blockP,2021.2.3,Win32,31.89284006,,,,,,,
,,,,,,,,,,,,,,,,,,,,,,58.33333333,64,20,75,221.3333333,22.66666667,14.73333333,-0.157552083,-0.411458333,1,0,0,2.337,submitButton,7.66308642,0.322916667,-0.380208333,1,0,0,0,59,59,48,1,64,69016,blockP,180,2022-02-17_18h59.42.673,orientation adjustment blockP,2021.2.3,Win32,31.89284006,continueButton,,,,,,
,,,,,,,,,,,,,,,,,,,,,,66.11111111,64,20,75,229.1111111,14.88888889,5.955555556,0.180989583,-0.286458333,1,0,0,2.6301,submitButton,7.625966184,-0.153645833,-0.39453125,0,0,0,1,0,60,48,1,64,69016,blockP,180,2022-02-17_18h59.42.673,orientation adjustment blockP,2021.2.3,Win32,31.89284006,,,,,,,
,,,,,,,,,,,,,,,,,,,,,,-31.11111111,27,20,75,27.88888889,0.888888889,0.355555556,-0.154947917,-0.389322917,1,0,0,1.1136,submitButton,7.471276596,-0.154947917,-0.389322917,0,0,0,1,1,61,11,1,27,69016,blockP,180,2022-02-17_18h59.42.673,orientation adjustment blockP,2021.2.3,Win32,31.89284006,,,,,,,
,,,,,,,,,,,,,,,,,,,,,,43.33333333,-30,20,75,-18.66666667,11.33333333,4.533333333,-0.23828125,-0.37109375,1,0,0,0.9831,submitButton,7.410069444,-0.231770833,-0.407552083,0,0,0,1,2,62,14,1,30,69016,blockP,180,2022-02-17_18h59.42.673,orientation adjustment blockP,2021.2.3,Win32,31.89284006,,,,,,,
,,,,,,,,,,,,,,,,,,,,,,37.22222222,26,20,75,40.22222222,14.22222222,5.688888889,0.42578125,-0.30078125,1,0,0,0.6026,submitButton,7.374943311,-0.201822917,-0.393229167,0,0,0,1,3,63,10,1,26,69016,blockP,180,2022-02-17_18h59.42.673,orientation adjustment blockP,2021.2.3,Win32,31.89284006,,,,,,,
,,,,,,,,,,,,,,,,,,,,,,58.33333333,66,20,75,234.3333333,11.66666667,4.666666667,0.227864583,-0.299479167,1,0,0,0.5502,submitButton,7.320777778,-0.236979167,-0.389322917,0,0,0,1,4,64,50,1,66,69016,blockP,180,2022-02-17_18h59.42.673,orientation adjustment blockP,2021.2.3,Win32,31.89284006,,,,,,,
,,,,,,,,,,,,,,,,,,,,,,-34.44444444,-41,20,75,-197.4444444,23.55555556,15.31111111,-0.131510417,-0.408854167,1,0,0,2.7378,submitButton,7.47745098,-0.131510417,-0.408854167,0,0,0,1,5,65,25,1,41,69016,blockP,180,2022-02-17_18h59.42.673,orientation adjustment blockP,2021.2.3,Win32,31.89284006,,,,,,,
,,,,,,,,,,,,,,,,,,,,,,60,68,20,75,250,2,0.8,0.170572917,-0.3125,1,0,0,1.485,submitButton,7.349038462,-0.204427083,-0.384114583,0,0,0,1,6,66,52,1,68,69016,blockP,180,2022-02-17_18h59.42.673,orientation adjustment blockP,2021.2.3,Win32,31.89284006,,,,,,,
,,,,,,,,,,,,,,,,,,,,,,26.66666667,36,20,75,48.66666667,12.66666667,5.066666667,0.358072917,-0.283854167,1,0,0,0.6475,submitButton,7.305974843,-0.247395833,-0.395833333,0,0,0,1,7,67,20,1,36,69016,blockP,180,2022-02-17_18h59.42.673,orientation adjustment blockP,2021.2.3,Win32,31.89284006,,,,,,,
,,,,,,,,,,,,,,,,,,,,,,-38.33333333,38,20,75,30.66666667,7.333333333,2.933333333,0.209635417,-0.28515625,1,0,0,0.242,submitButton,7.225,-0.209635417,-0.40625,0,0,0,1,8,68,22,1,38,69016,blockP,180,2022-02-17_18h59.42.673,orientation adjustment blockP,2021.2.3,Win32,31.89284006,,,,,,,
,,,,,,,,,,,,,,,,,,,,,,-60.55555556,56,20,75,27.44444444,28.55555556,18.56111111,-0.2578125,-0.403645833,1,0,0,1.1427,submitButton,7.431111111,-0.2578125,-0.403645833,0,0,0,1,9,69,40,1,56,69016,blockP,180,2022-02-17_18h59.42.673,orientation adjustment blockP,2021.2.3,Win32,31.89284006,,,,,,,
,,,,,,,,,,,,,,,,,,,,,,-38.33333333,23,20,75,16.66666667,6.333333333,2.533333333,-0.213541667,-0.401041667,1,0,0,1.2211,submitButton,7.343650794,-0.213541667,-0.401041667,0,0,0,1,10,70,7,1,23,69016,blockP,180,2022-02-17_18h59.42.673,orientation adjustment blockP,2021.2.3,Win32,31.89284006,,,,,,,
,,,,,,,,,,,,,,,,,,,,,,-72.77777778,29,20,75,33.22222222,4.222222222,1.688888889,0.23828125,-0.295572917,1,0,0,0.0367,submitButton,7.244444444,-0.182291667,-0.393229167,0,0,0,1,11,71,13,1,29,69016,blockP,180,2022-02-17_18h59.42.673,orientation adjustment blockP,2021.2.3,Win32,31.89284006,,,,,,,
,,,,,,,,,,,,,,,,,,,,,,65,-17,20,75,-11,6,2.4,-0.213541667,-0.3984375,1,0,0,2.1895,submitButton,7.16091954,-0.213541667,-0.3984375,0,0,0,1,12,72,1,1,17,69016,blockP,180,2022-02-17_18h59.42.673,orientation adjustment blockP,2021.2.3,Win32,31.89284006,,,,,,,
,,,,,,,,,,,,,,,,,,,,,,-36.66666667,-16,20,75,-19.66666667,3.666666667,1.466666667,0.234375,-0.30859375,1,0,0,0.3005,submitButton,7.06440678,-0.208333333,-0.3984375,0,0,0,1,13,73,0,1,16,69016,blockP,180,2022-02-17_18h59.42.673,orientation adjustment blockP,2021.2.3,Win32,31.89284006,,,,,,,
,,,,,,,,,,,,,,,,,,,,,,54.44444444,-65,20,75,-36.55555556,28.44444444,18.48888889,0.403645833,-0.282552083,1,0,0,0.2151,submitButton,7.254814815,0.24609375,-0.403645833,1,0,0,1,14,74,49,1,65,69016,blockP,180,2022-02-17_18h59.42.673,orientation adjustment blockP,2021.2.3,Win32,31.89284006,continueButton,,,,,,
,,,,,,,,,,,,,,,,,,,,,,69.44444444,-42,20,75,27.44444444,69.44444444,59.02777778,-0.28125,-0.3984375,1,0,0,5.71,submitButton,8.103551913,-0.28125,-0.3984375,0,0,0,1,15,75,26,1,42,69016,blockP,180,2022-02-17_18h59.42.673,orientation adjustment blockP,2021.2.3,Win32,31.89284006,,,,,,,
,,,,,,,,,,,,,,,,,,,,,,26.66666667,-40,20,75,-26.33333333,13.66666667,5.466666667,0.384114583,-0.31640625,1,0,0,0.0349,submitButton,8.061021505,-0.229166667,-0.40234375,0,0,0,1,16,76,24,1,40,69016,blockP,180,2022-02-17_18h59.42.673,orientation adjustment blockP,2021.2.3,Win32,31.89284006,,,,,,,
,,,,,,,,,,,,,,,,,,,,,,-22.77777778,-47,20,75,-39.77777778,7.222222222,2.888888889,-0.231770833,-0.385416667,1,0,0,1.4601,submitButton,7.978924162,-0.231770833,-0.385416667,0,0,0,1,17,77,31,1,47,69016,blockP,180,2022-02-17_18h59.42.673,orientation adjustment blockP,2021.2.3,Win32,31.89284006,,,,,,,
,,,,,,,,,,,,,,,,,,,,,,-27.22222222,-62,20,75,-236.2222222,5.777777778,2.311111111,0.377604167,-0.30078125,1,0,0,2.5798,submitButton,7.890364583,-0.260416667,-0.419270833,0,0,0,1,18,78,46,1,62,69016,blockP,180,2022-02-17_18h59.42.673,orientation adjustment blockP,2021.2.3,Win32,31.89284006,,,,,,,
,,,,,,,,,,,,,,,,,,,,,,-50,39,20,75,37,2,0.8,-0.221354167,-0.401041667,1,0,0,1.6655,submitButton,7.781282051,-0.221354167,-0.401041667,0,0,0,1,19,79,23,1,39,69016,blockP,180,2022-02-17_18h59.42.673,orientation adjustment blockP,2021.2.3,Win32,31.89284006,,,,,,,
,,,,,,,,,,,,,,,,,,,,,,46.11111111,24,20,75,49.11111111,25.11111111,16.32222222,0.40234375,-0.3046875,1,0,0,0.3215,submitButton,7.910690236,-0.186197917,-0.40625,0,0,0,1,20,80,8,1,24,69016,blockP,180,2022-02-17_18h59.42.673,orientation adjustment blockP,2021.2.3,Win32,31.89284006,,,,,,,
,,,,,,,,,,,,,,,,,,,,,,38.33333333,-71,20,75,-37.66666667,33.33333333,26.66666667,-0.25390625,-0.428385417,1,0,0,1.0824,submitButton,8.190630182,-0.248697917,-0.3984375,0,0,0,1,21,81,55,1,71,69016,blockP,180,2022-02-17_18h59.42.673,orientation adjustment blockP,2021.2.3,Win32,31.89284006,,,,,,,
,,,,,,,,,,,,,,,,,,,,,,-38.33333333,-25,20,75,-219.3333333,14.33333333,5.733333333,-0.260416667,-0.40625,1,0,0,3.6187,submitButton,8.154493464,-0.260416667,-0.40625,0,0,0,1,22,82,9,1,25,69016,blockP,180,2022-02-17_18h59.42.673,orientation adjustment blockP,2021.2.3,Win32,31.89284006,,,,,,,
,,,,,,,,,,,,,,,,,,,,,,47.77777778,28,20,75,52.77777778,24.77777778,16.10555556,0.385416667,-0.3046875,1,0,0,0.5418,submitButton,8.269726248,-0.17578125,-0.40234375,0,0,0,1,23,83,12,1,28,69016,blockP,180,2022-02-17_18h59.42.673,orientation adjustment blockP,2021.2.3,Win32,31.89284006,,,,,,,
,,,,,,,,,,,,,,,,,,,,,,-58.33333333,57,20,75,33.66666667,23.33333333,15.16666667,0.216145833,-0.299479167,1,0,0,0.0175,submitButton,8.368253968,-0.25,-0.390625,0,0,0,1,24,84,41,1,57,69016,blockP,180,2022-02-17_18h59.42.673,orientation adjustment blockP,2021.2.3,Win32,31.89284006,,,,,,,
,,,,,,,,,,,,,,,,,,,,,,-44.44444444,-74,20,75,-238.4444444,15.55555556,10.11111111,0.428385417,-0.29296875,1,0,0,0.7175,submitButton,8.392801252,-0.18359375,-0.377604167,0,0,0,1,25,85,58,1,74,69016,blockP,180,2022-02-17_18h59.42.673,orientation adjustment blockP,2021.2.3,Win32,31.89284006,,,,,,,
,,,,,,,,,,,,,,,,,,,,,,65,21,20,75,204,3,1.2,0.184895833,-0.325520833,1,0,0,1.8275,submitButton,8.292901235,-0.243489583,-0.407552083,0,0,0,1,26,86,5,1,21,69016,blockP,180,2022-02-17_18h59.42.673,orientation adjustment blockP,2021.2.3,Win32,31.89284006,,,,,,,
,,,,,,,,,,,,,,,,,,,,,,-67.22222222,-48,20,75,-222.2222222,5.777777778,2.311111111,-0.135416667,-0.401041667,1,0,0,2.6019,submitButton,8.210958904,-0.135416667,-0.401041667,0,0,0,1,27,87,32,1,48,69016,blockP,180,2022-02-17_18h59.42.673,orientation adjustment blockP,2021.2.3,Win32,31.89284006,,,,,,,
,,,,,,,,,,,,,,,,,,,,,,-46.66666667,-58,20,75,-225.6666667,12.33333333,4.933333333,0.37890625,-0.311197917,1,0,0,1.2515,submitButton,8.166666667,-0.240885417,-0.411458333,0,0,0,1,28,88,42,1,58,69016,blockP,180,2022-02-17_18h59.42.673,orientation adjustment blockP,2021.2.3,Win32,31.89284006,,,,,,,
,,,,,,,,,,,,,,,,,,,,,,-40.55555556,-50,20,75,-223.5555556,6.444444444,2.577777778,-0.231770833,-0.391927083,1,0,0,2.7665,submitButton,8.092148148,0.298177083,-0.39453125,1,0,0,1,29,89,34,1,50,69016,blockP,180,2022-02-17_18h59.42.673,orientation adjustment blockP,2021.2.3,Win32,31.89284006,continueButton,,,,,,
,,,,,,,,,,,,,,,,,,,,,,22.77777778,63,20,75,85.77777778,22.77777778,14.80555556,-0.161458333,-0.38671875,1,0,0,1.826,submitButton,8.180482456,-0.161458333,-0.38671875,0,0,0,1,30,90,47,1,63,69016,blockP,180,2022-02-17_18h59.42.673,orientation adjustment blockP,2021.2.3,Win32,31.89284006,,,,,,,
,,,,,,,,,,,,,,,,,,,,,,38.33333333,18,20,75,207.3333333,9.333333333,3.733333333,0.178385417,-0.317708333,1,0,0,0.2194,submitButton,8.122727273,-0.1328125,-0.3984375,0,0,0,1,31,91,2,1,18,69016,blockP,180,2022-02-17_18h59.42.673,orientation adjustment blockP,2021.2.3,Win32,31.89284006,,,,,,,
,,,,,,,,,,,,,,,,,,,,,,63.33333333,-31,20,75,-15.66666667,15.33333333,9.966666667,0.377604167,-0.303385417,1,0,0,1.3503,submitButton,8.146367521,-0.24609375,-0.388020833,0,0,0,1,32,92,15,1,31,69016,blockP,180,2022-02-17_18h59.42.673,orientation adjustment blockP,2021.2.3,Win32,31.89284006,,,,,,,
,,,,,,,,,,,,,,,,,,,,,,-35,20,20,75,11,9,3.6,-0.171875,-0.41796875,1,0,0,1.6148,submitButton,8.088818565,-0.171875,-0.41796875,0,0,0,1,33,93,4,1,20,69016,blockP,180,2022-02-17_18h59.42.673,orientation adjustment blockP,2021.2.3,Win32,31.89284006,,,,,,,
,,,,,,,,,,,,,,,,,,,,,,29.44444444,69,20,75,230.4444444,18.55555556,12.06111111,-0.2109375,-0.395833333,1,0,0,10.8437,submitButton,8.138472222,-0.2109375,-0.395833333,0,0,0,1,34,94,53,1,69,69016,blockP,180,2022-02-17_18h59.42.673,orientation adjustment blockP,2021.2.3,Win32,31.89284006,,,,,,,
,,,,,,,,,,,,,,,,,,,,,,72.22222222,55,20,75,127.2222222,72.22222222,65,-0.291666667,-0.389322917,1,0,0,2.1501,submitButton,8.840466392,-0.291666667,-0.389322917,0,0,0,1,35,95,39,1,55,69016,blockP,180,2022-02-17_18h59.42.673,orientation adjustment blockP,2021.2.3,Win32,31.89284006,,,,,,,
,,,,,,,,,,,,,,,,,,,,,,-57.22222222,51,20,75,50.77777778,0.222222222,0.088888889,0.229166667,-0.309895833,1,0,0,1.4158,submitButton,8.733739837,-0.182291667,-0.412760417,0,0,0,1,36,96,35,1,51,69016,blockP,180,2022-02-17_18h59.42.673,orientation adjustment blockP,2021.2.3,Win32,31.89284006,,,,,,,
,,,,,,,,,,,,,,,,,,,,,,56.11111111,-54,20,75,-41.88888889,12.11111111,4.844444444,0.346354167,-0.329427083,1,0,0,0.6281,submitButton,8.686880857,-0.141927083,-0.389322917,0,0,0,1,37,97,38,1,54,69016,blockP,180,2022-02-17_18h59.42.673,orientation adjustment blockP,2021.2.3,Win32,31.89284006,,,,,,,
,,,,,,,,,,,,,,,,,,,,,,50.55555556,72,20,75,222.5555556,29.44444444,19.13888889,-0.151041667,-0.391927083,1,0,0,2.2554,submitButton,8.811309524,-0.151041667,-0.391927083,0,0,0,1,38,98,56,1,72,69016,blockP,180,2022-02-17_18h59.42.673,orientation adjustment blockP,2021.2.3,Win32,31.89284006,,,,,,,
,,,,,,,,,,,,,,,,,,,,,,-70.55555556,67,20,75,58.44444444,8.555555556,3.422222222,-0.205729167,-0.3828125,1,0,0,1.5995,submitButton,8.747908497,-0.205729167,-0.3828125,0,0,0,1,39,99,51,1,67,69016,blockP,180,2022-02-17_18h59.42.673,orientation adjustment blockP,2021.2.3,Win32,31.89284006,,,,,,,
,,,,,,,,,,,,,,,,,,,,,,46.66666667,34,20,75,55.66666667,21.66666667,14.08333333,0.408854167,-0.302083333,1,0,0,9.9414,submitButton,8.80994832,-0.256510417,-0.3828125,0,0,0,1,40,100,18,1,34,69016,blockP,180,2022-02-17_18h59.42.673,orientation adjustment blockP,2021.2.3,Win32,31.89284006,,,,,,,
,,,,,,,,,,,,,,,,,,,,,,-36.66666667,-61,20,75,-218.6666667,22.33333333,14.51666667,0.393229167,-0.317708333,1,0,0,1.0811,submitButton,8.875542784,-0.192708333,-0.408854167,0,0,0,1,41,101,45,1,61,69016,blockP,180,2022-02-17_18h59.42.673,orientation adjustment blockP,2021.2.3,Win32,31.89284006,,,,,,,
,,,,,,,,,,,,,,,,,,,,,,75,-59,20,75,-44,15,9.75,0.38671875,-0.30078125,1,0,0,1.5198,submitButton,8.885479798,-0.125,-0.395833333,0,0,0,1,42,102,43,1,59,69016,blockP,180,2022-02-17_18h59.42.673,orientation adjustment blockP,2021.2.3,Win32,31.89284006,,,,,,,
,,,,,,,,,,,,,,,,,,,,,,-50.55555556,-45,20,75,-216.5555556,8.444444444,3.377777778,0.393229167,-0.307291667,1,0,0,0.1819,submitButton,8.823595506,-0.109375,-0.37890625,0,0,0,1,43,103,29,1,45,69016,blockP,180,2022-02-17_18h59.42.673,orientation adjustment blockP,2021.2.3,Win32,31.89284006,,,,,,,
,,,,,,,,,,,,,,,,,,,,,,43.88888889,46,20,75,212.8888889,13.11111111,5.244444444,0.411458333,-0.342447917,1,0,0,2.9495,submitButton,8.78382716,0.451822917,-0.397135417,1,0,0,1,44,104,30,1,46,69016,blockP,180,2022-02-17_18h59.42.673,orientation adjustment blockP,2021.2.3,Win32,31.89284006,continueButton,,,,,,
,,,,,,,,,,,,,,,,,,,,,,62.77777778,-44,20,75,18.77777778,62.77777778,53.36111111,-0.342447917,-0.380208333,1,0,0,0.6405,submitButton,9.273687424,-0.342447917,-0.380208333,0,0,0,1,45,105,28,1,44,69016,blockP,180,2022-02-17_18h59.42.673,orientation adjustment blockP,2021.2.3,Win32,31.89284006,,,,,,,
,,,,,,,,,,,,,,,,,,,,,,38.88888889,33,20,75,49.88888889,16.88888889,10.97777778,0.393229167,-0.31640625,1,0,0,0.1982,submitButton,9.292210145,-0.184895833,-0.411458333,0,0,0,1,46,106,17,1,33,69016,blockP,180,2022-02-17_18h59.42.673,orientation adjustment blockP,2021.2.3,Win32,31.89284006,,,,,,,
,,,,,,,,,,,,,,,,,,,,,,-21.11111111,-75,20,75,-82.11111111,7.111111111,2.844444444,0.162760417,-0.295572917,1,0,0,0.3678,submitButton,9.222879331,-0.139322917,-0.390625,0,0,0,1,47,107,59,1,75,69016,blockP,180,2022-02-17_18h59.42.673,orientation adjustment blockP,2021.2.3,Win32,31.89284006,,,,,,,
,,,,,,,,,,,,,,,,,,,,,,-66.11111111,53,20,75,-116.1111111,10.88888889,4.355555556,-0.162760417,-0.3828125,1,0,0,2.6868,submitButton,9.171099291,-0.162760417,-0.3828125,0,0,0,1,48,108,37,1,53,69016,blockP,180,2022-02-17_18h59.42.673,orientation adjustment blockP,2021.2.3,Win32,31.89284006,,,,,,,
,,,,,,,,,,,,,,,,,,,,,,42.22222222,37,20,75,65.22222222,28.22222222,18.34444444,0.4296875,-0.294270833,1,0,0,0.2292,submitButton,9.267660819,-0.26171875,-0.3828125,0,0,0,1,49,109,21,1,37,69016,blockP,180,2022-02-17_18h59.42.673,orientation adjustment blockP,2021.2.3,Win32,31.89284006,,,,,,,
,,,,,,,,,,,,,,,,,,,,,,-64.44444444,-70,20,75,-112.4444444,42.44444444,33.95555556,0.19921875,-0.298177083,1,0,0,0.7301,submitButton,9.524826389,-0.278645833,-0.375,0,0,0,1,50,110,54,1,70,69016,blockP,180,2022-02-17_18h59.42.673,orientation adjustment blockP,2021.2.3,Win32,31.89284006,,,,,,,
,,,,,,,,,,,,,,,,,,,,,,25,-22,20,75,138,20,13,0.23828125,-0.317708333,1,0,0,1.2871,submitButton,9.560652921,-0.143229167,-0.416666667,0,0,0,1,51,111,6,1,22,69016,blockP,180,2022-02-17_18h59.42.673,orientation adjustment blockP,2021.2.3,Win32,31.89284006,,,,,,,
,,,,,,,,,,,,,,,,,,,,,,75,-49,20,75,34,83,74.7,0.190104167,-0.298177083,1,0,0,0.8511,submitButton,10.22534014,-0.166666667,-0.381510417,0,0,0,1,52,112,33,1,49,69016,blockP,180,2022-02-17_18h59.42.673,orientation adjustment blockP,2021.2.3,Win32,31.89284006,,,,,,,
,,,,,,,,,,,,,,,,,,,,,,-48.33333333,43,20,75,41.66666667,1.333333333,0.533333333,0.188802083,-0.31640625,1,0,0,0.0152,submitButton,10.12744108,-0.1875,-0.397135417,0,0,0,1,53,113,27,1,43,69016,blockP,180,2022-02-17_18h59.42.673,orientation adjustment blockP,2021.2.3,Win32,31.89284006,,,,,,,
,,,,,,,,,,,,,,,,,,,,,,-51.66666667,-52,20,75,-226.6666667,5.333333333,2.133333333,0.377604167,-0.290364583,1,0,0,0.0354,submitButton,10.0475,-0.145833333,-0.377604167,0,0,0,1,54,114,36,1,52,69016,blockP,180,2022-02-17_18h59.42.673,orientation adjustment blockP,2021.2.3,Win32,31.89284006,,,,,,,
,,,,,,,,,,,,,,,,,,,,,,-64.44444444,32,20,75,43.55555556,11.55555556,4.622222222,0.21875,-0.307291667,1,0,0,1.2834,submitButton,9.993784378,-0.141927083,-0.3984375,0,0,0,1,55,115,16,1,32,69016,blockP,180,2022-02-17_18h59.42.673,orientation adjustment blockP,2021.2.3,Win32,31.89284006,,,,,,,
,,,,,,,,,,,,,,,,,,,,,,-32.22222222,19,20,75,9.777777778,9.222222222,3.688888889,-0.154947917,-0.40234375,1,0,0,1.3952,submitButton,9.931971678,-0.154947917,-0.40234375,0,0,0,1,56,116,3,1,19,69016,blockP,180,2022-02-17_18h59.42.673,orientation adjustment blockP,2021.2.3,Win32,31.89284006,,,,,,,
,,,,,,,,,,,,,,,,,,,,,,-21.66666667,35,20,75,27.33333333,7.666666667,3.066666667,0.16796875,-0.303385417,1,0,0,0.3208,submitButton,9.865318231,-0.177083333,-0.393229167,0,0,0,1,57,117,19,1,35,69016,blockP,180,2022-02-17_18h59.42.673,orientation adjustment blockP,2021.2.3,Win32,31.89284006,,,,,,,
,,,,,,,,,,,,,,,,,,,,,,50,-60,20,75,-37,23,14.95,-0.166666667,-0.399739583,1,0,0,1.2653,submitButton,9.914209402,-0.166666667,-0.399739583,0,0,0,1,58,118,44,1,60,69016,blockP,180,2022-02-17_18h59.42.673,orientation adjustment blockP,2021.2.3,Win32,31.89284006,,,,,,,
,,,,,,,,,,,,,,,,,,,,,,-67.22222222,73,20,75,47.77777778,25.22222222,16.39444444,0.192708333,-0.3125,1,0,0,0.7393,submitButton,9.975925926,0.360677083,-0.4140625,1,0,0,1,59,119,57,1,73,69016,blockP,180,2022-02-17_18h59.42.673,orientation adjustment blockP,2021.2.3,Win32,31.89284006,continueButton,,,,,,
,,,,,,,,,,,,,,,,,,,,,,31.11111111,47,20,75,65.11111111,18.11111111,11.77222222,0.369791667,-0.294270833,1,0,0,0.2654,submitButton,9.992872117,-0.2109375,-0.408854167,0,0,0,2,0,120,31,1,47,69016,blockP,180,2022-02-17_18h59.42.673,orientation adjustment blockP,2021.2.3,Win32,31.89284006,,,,,,,
,,,,,,,,,,,,,,,,,,,,,,-32.22222222,-71,20,75,-223.2222222,27.77777778,18.05555556,-0.220052083,-0.407552083,1,0,0,2.7927,submitButton,10.0682243,-0.220052083,-0.407552083,0,0,0,2,1,121,55,1,71,69016,blockP,180,2022-02-17_18h59.42.673,orientation adjustment blockP,2021.2.3,Win32,31.89284006,,,,,,,
,,,,,,,,,,,,,,,,,,,,,,61.66666667,52,20,75,217.6666667,14.33333333,5.733333333,-0.239583333,-0.395833333,1,0,0,2.0606,submitButton,10.02808642,-0.239583333,-0.395833333,0,0,0,2,2,122,36,1,52,69016,blockP,180,2022-02-17_18h59.42.673,orientation adjustment blockP,2021.2.3,Win32,31.89284006,,,,,,,
,,,,,,,,,,,,,,,,,,,,,,71.66666667,27,20,75,209.6666667,2.666666667,1.066666667,0.240885417,-0.313802083,1,0,0,1.1672,submitButton,9.94587156,-0.208333333,-0.40625,0,0,0,2,3,123,11,1,27,69016,blockP,180,2022-02-17_18h59.42.673,orientation adjustment blockP,2021.2.3,Win32,31.89284006,,,,,,,
,,,,,,,,,,,,,,,,,,,,,,-28.33333333,53,20,75,49.66666667,3.333333333,1.333333333,-0.174479167,-0.40625,1,0,0,0.7482,submitButton,9.867575758,-0.174479167,-0.40625,0,0,0,2,4,124,37,1,53,69016,blockP,180,2022-02-17_18h59.42.673,orientation adjustment blockP,2021.2.3,Win32,31.89284006,,,,,,,
,,,,,,,,,,,,,,,,,,,,,,48.33333333,19,20,75,41.33333333,22.33333333,14.51666667,0.38671875,-0.315104167,1,0,0,0.8263,submitButton,9.909459459,-0.16796875,-0.411458333,0,0,0,2,5,125,3,1,19,69016,blockP,180,2022-02-17_18h59.42.673,orientation adjustment blockP,2021.2.3,Win32,31.89284006,,,,,,,
,,,,,,,,,,,,,,,,,,,,,,-22.22222222,23,20,75,26.77777778,3.777777778,1.511111111,0.190104167,-0.309895833,1,0,0,0.0724,submitButton,9.834474206,-0.188802083,-0.3984375,0,0,0,2,6,126,7,1,23,69016,blockP,180,2022-02-17_18h59.42.673,orientation adjustment blockP,2021.2.3,Win32,31.89284006,,,,,,,
,,,,,,,,,,,,,,,,,,,,,,72.77777778,-38,20,75,-26.22222222,11.77777778,4.711111111,0.411458333,-0.29296875,1,0,0,1.0034,submitButton,9.78913471,-0.2890625,-0.411458333,0,0,0,2,7,127,22,1,38,69016,blockP,180,2022-02-17_18h59.42.673,orientation adjustment blockP,2021.2.3,Win32,31.89284006,,,,,,,
,,,,,,,,,,,,,,,,,,,,,,-40.55555556,40,20,75,22.44444444,17.55555556,11.41111111,-0.221354167,-0.407552083,1,0,0,0.818,submitButton,9.803362573,-0.221354167,-0.407552083,0,0,0,2,8,128,24,1,40,69016,blockP,180,2022-02-17_18h59.42.673,orientation adjustment blockP,2021.2.3,Win32,31.89284006,,,,,,,
,,,,,,,,,,,,,,,,,,,,,,-23.88888889,-24,20,75,-20.88888889,3.111111111,1.244444444,0.165364583,-0.296875,1,0,0,0.2394,submitButton,9.728937198,-0.1953125,-0.403645833,0,0,0,2,9,129,8,1,24,69016,blockP,180,2022-02-17_18h59.42.673,orientation adjustment blockP,2021.2.3,Win32,31.89284006,,,,,,,
,,,,,,,,,,,,,,,,,,,,,,56.11111111,67,20,75,246.1111111,0.888888889,0.355555556,0.229166667,-0.313802083,1,0,0,0.1005,submitButton,9.648132184,-0.154947917,-0.40625,0,0,0,2,10,130,51,1,67,69016,blockP,180,2022-02-17_18h59.42.673,orientation adjustment blockP,2021.2.3,Win32,31.89284006,,,,,,,
,,,,,,,,,,,,,,,,,,,,,,-70.55555556,-35,20,75,-213.5555556,1.444444444,0.577777778,-0.138020833,-0.40625,1,0,0,2.6237,submitButton,9.570607787,-0.138020833,-0.40625,0,0,0,2,11,131,19,1,35,69016,blockP,180,2022-02-17_18h59.42.673,orientation adjustment blockP,2021.2.3,Win32,31.89284006,,,,,,,
,,,,,,,,,,,,,,,,,,,,,,-47.77777778,54,20,75,38.22222222,15.77777778,10.25555556,-0.212239583,-0.403645833,1,0,0,0.9957,submitButton,9.576412429,-0.212239583,-0.403645833,0,0,0,2,12,132,38,1,54,69016,blockP,180,2022-02-17_18h59.42.673,orientation adjustment blockP,2021.2.3,Win32,31.89284006,,,,,,,
,,,,,,,,,,,,,,,,,,,,,,-45.55555556,-63,20,75,-228.5555556,14.44444444,5.777777778,0.424479167,-0.286458333,1,0,0,1.7663,submitButton,9.54449113,-0.182291667,-0.395833333,0,0,0,2,13,133,47,1,63,69016,blockP,180,2022-02-17_18h59.42.673,orientation adjustment blockP,2021.2.3,Win32,31.89284006,,,,,,,
,,,,,,,,,,,,,,,,,,,,,,43.33333333,74,20,75,244.3333333,9.666666667,3.866666667,-0.1875,-0.404947917,1,0,0,2.9112,submitButton,9.497175926,0.360677083,-0.393229167,1,0,0,2,14,134,58,1,74,69016,blockP,180,2022-02-17_18h59.42.673,orientation adjustment blockP,2021.2.3,Win32,31.89284006,continueButton,,,,,,
,,,,,,,,,,,,,,,,,,,,,,48.88888889,-70,20,75,-54.11111111,15.88888889,10.32777778,-0.2890625,-0.404947917,1,0,0,1.0519,submitButton,9.504040404,-0.2890625,-0.404947917,0,0,0,2,15,135,54,1,70,69016,blockP,180,2022-02-17_18h59.42.673,orientation adjustment blockP,2021.2.3,Win32,31.89284006,,,,,,,
,,,,,,,,,,,,,,,,,,,,,,75,-43,20,75,-42,1,0.4,-0.190104167,-0.41796875,1,0,0,2.1019,submitButton,9.429417122,-0.190104167,-0.41796875,0,0,0,2,16,136,27,1,43,69016,blockP,180,2022-02-17_18h59.42.673,orientation adjustment blockP,2021.2.3,Win32,31.89284006,,,,,,,
,,,,,,,,,,,,,,,,,,,,,,-46.11111111,-65,20,75,-246.1111111,1.111111111,0.444444444,0.401041667,-0.295572917,1,0,0,2.0836,submitButton,9.356368564,-0.182291667,-0.385416667,0,0,0,2,17,137,49,1,65,69016,blockP,180,2022-02-17_18h59.42.673,orientation adjustment blockP,2021.2.3,Win32,31.89284006,,,,,,,
,,,,,,,,,,,,,,,,,,,,,,28.33333333,42,20,75,57.33333333,15.33333333,9.966666667,0.3671875,-0.291666667,1,0,0,0.2838,submitButton,9.361290323,-0.26953125,-0.401041667,0,0,0,2,18,138,26,1,42,69016,blockP,180,2022-02-17_18h59.42.673,orientation adjustment blockP,2021.2.3,Win32,31.89284006,,,,,,,
,,,,,,,,,,,,,,,,,,,,,,56.66666667,-37,20,75,-14.33333333,22.66666667,14.73333333,-0.243489583,-0.403645833,1,0,0,1.6486,submitButton,9.404266667,-0.243489583,-0.403645833,0,0,0,2,19,139,21,1,37,69016,blockP,180,2022-02-17_18h59.42.673,orientation adjustment blockP,2021.2.3,Win32,31.89284006,,,,,,,
,,,,,,,,,,,,,,,,,,,,,,70.55555556,-72,20,75,-34.44444444,37.55555556,30.04444444,-0.209635417,-0.401041667,1,0,0,1.0835,submitButton,9.568077601,-0.209635417,-0.401041667,0,0,0,2,20,140,56,1,72,69016,blockP,180,2022-02-17_18h59.42.673,orientation adjustment blockP,2021.2.3,Win32,31.89284006,,,,,,,
,,,,,,,,,,,,,,,,,,,,,,25.55555556,-64,20,75,-51.44444444,12.55555556,5.022222222,-0.14453125,-0.399739583,1,0,0,0.8327,submitButton,9.532283465,-0.14453125,-0.399739583,0,0,0,2,21,141,48,1,64,69016,blockP,180,2022-02-17_18h59.42.673,orientation adjustment blockP,2021.2.3,Win32,31.89284006,,,,,,,
,,,,,,,,,,,,,,,,,,,,,,-73.88888889,68,20,75,27.11111111,40.88888889,32.71111111,-0.17578125,-0.411458333,1,0,0,1.0683,submitButton,9.713368056,-0.17578125,-0.411458333,0,0,0,2,22,142,52,1,68,69016,blockP,180,2022-02-17_18h59.42.673,orientation adjustment blockP,2021.2.3,Win32,31.89284006,,,,,,,
,,,,,,,,,,,,,,,,,,,,,,-64.44444444,58,20,75,37.55555556,20.44444444,13.28888889,-0.12890625,-0.423177083,1,0,0,1.4407,submitButton,9.741085271,-0.12890625,-0.423177083,0,0,0,2,23,143,42,1,58,69016,blockP,180,2022-02-17_18h59.42.673,orientation adjustment blockP,2021.2.3,Win32,31.89284006,,,,,,,
,,,,,,,,,,,,,,,,,,,,,,37.77777778,75,20,75,225.7777778,29.22222222,18.99444444,-0.127604167,-0.391927083,1,0,0,2.0724,submitButton,9.812264957,-0.127604167,-0.391927083,0,0,0,2,24,144,59,1,75,69016,blockP,180,2022-02-17_18h59.42.673,orientation adjustment blockP,2021.2.3,Win32,31.89284006,,,,,,,
,,,,,,,,,,,,,,,,,,,,,,70.55555556,45,20,75,214.5555556,10.44444444,4.177777778,-0.16796875,-0.4140625,1,0,0,1.8657,submitButton,9.769253605,-0.16796875,-0.4140625,0,0,0,2,25,145,29,1,45,69016,blockP,180,2022-02-17_18h59.42.673,orientation adjustment blockP,2021.2.3,Win32,31.89284006,,,,,,,
,,,,,,,,,,,,,,,,,,,,,,31.66666667,30,20,75,38.66666667,8.666666667,3.466666667,0.412760417,-0.30859375,1,0,0,0.5452,submitButton,9.721506734,-0.140625,-0.393229167,0,0,0,2,26,146,14,1,30,69016,blockP,180,2022-02-17_18h59.42.673,orientation adjustment blockP,2021.2.3,Win32,31.89284006,,,,,,,
,,,,,,,,,,,,,,,,,,,,,,21.11111111,44,20,75,46.11111111,2.111111111,0.844444444,0.369791667,-0.295572917,1,0,0,0.2182,submitButton,9.654761905,-0.169270833,-0.391927083,0,0,0,2,27,147,28,1,44,69016,blockP,180,2022-02-17_18h59.42.673,orientation adjustment blockP,2021.2.3,Win32,31.89284006,,,,,,,
,,,,,,,,,,,,,,,,,,,,,,33.33333333,49,20,75,55.33333333,6.333333333,2.533333333,0.390625,-0.282552083,1,0,0,0.231,submitButton,9.601616915,-0.186197917,-0.411458333,0,0,0,2,28,148,33,1,49,69016,blockP,180,2022-02-17_18h59.42.673,orientation adjustment blockP,2021.2.3,Win32,31.89284006,,,,,,,
,,,,,,,,,,,,,,,,,,,,,,-60,25,20,75,27,2,0.8,0.20703125,-0.302083333,1,0,0,1.182,submitButton,9.536419753,0.358072917,-0.38671875,1,0,0,2,29,149,9,1,25,69016,blockP,180,2022-02-17_18h59.42.673,orientation adjustment blockP,2021.2.3,Win32,31.89284006,continueButton,,,,,,
,,,,,,,,,,,,,,,,,,,,,,-65,50,20,75,-15,65,55.25,-0.1796875,-0.427083333,1,0,0,2.2992,submitButton,9.87254902,-0.1796875,-0.427083333,0,0,0,2,30,150,34,1,50,69016,blockP,180,2022-02-17_18h59.42.673,orientation adjustment blockP,2021.2.3,Win32,31.89284006,,,,,,,
,,,,,,,,,,,,,,,,,,,,,,-57.77777778,26,20,75,26.22222222,0.222222222,0.088888889,0.208333333,-0.3046875,1,0,0,0.7499,submitButton,9.801135442,-0.143229167,-0.399739583,0,0,0,2,31,151,10,1,26,69016,blockP,180,2022-02-17_18h59.42.673,orientation adjustment blockP,2021.2.3,Win32,31.89284006,,,,,,,
,,,,,,,,,,,,,,,,,,,,,,-73.33333333,57,20,75,45.66666667,11.33333333,4.533333333,-0.154947917,-0.397135417,1,0,0,1.35,submitButton,9.762962963,-0.154947917,-0.397135417,0,0,0,2,32,152,41,1,57,69016,blockP,180,2022-02-17_18h59.42.673,orientation adjustment blockP,2021.2.3,Win32,31.89284006,,,,,,,
,,,,,,,,,,,,,,,,,,,,,,31.11111111,-33,20,75,-14.88888889,18.11111111,11.77222222,0.221354167,-0.307291667,1,0,0,0.8151,submitButton,9.777418066,-0.244791667,-0.393229167,0,0,0,2,33,153,17,1,33,69016,blockP,180,2022-02-17_18h59.42.673,orientation adjustment blockP,2021.2.3,Win32,31.89284006,,,,,,,
,,,,,,,,,,,,,,,,,,,,,,60,-18,20,75,-25,7,2.8,0.412760417,-0.28125,1,0,0,0.7335,submitButton,9.727579365,-0.216145833,-0.41015625,0,0,0,2,34,154,2,1,18,69016,blockP,180,2022-02-17_18h59.42.673,orientation adjustment blockP,2021.2.3,Win32,31.89284006,,,,,,,
,,,,,,,,,,,,,,,,,,,,,,-43.88888889,41,20,75,41.11111111,0.111111111,0.044444444,-0.203125,-0.401041667,1,0,0,0.7442,submitButton,9.658904649,-0.203125,-0.401041667,0,0,0,2,35,155,25,1,41,69016,blockP,180,2022-02-17_18h59.42.673,orientation adjustment blockP,2021.2.3,Win32,31.89284006,,,,,,,
,,,,,,,,,,,,,,,,,,,,,,-65,34,20,75,41,7,2.8,-0.244791667,-0.395833333,1,0,0,1.6073,submitButton,9.610602504,-0.244791667,-0.395833333,0,0,0,2,36,156,18,1,34,69016,blockP,180,2022-02-17_18h59.42.673,orientation adjustment blockP,2021.2.3,Win32,31.89284006,,,,,,,
,,,,,,,,,,,,,,,,,,,,,,27.77777778,73,20,75,248.7777778,4.222222222,1.688888889,0.205729167,-0.311197917,1,0,0,3.1364,submitButton,9.555205905,-0.203125,-0.424479167,0,0,0,2,37,157,57,1,73,69016,blockP,180,2022-02-17_18h59.42.673,orientation adjustment blockP,2021.2.3,Win32,31.89284006,,,,,,,
,,,,,,,,,,,,,,,,,,,,,,37.22222222,22,20,75,42.22222222,20.22222222,13.14444444,0.434895833,-0.30078125,1,0,0,0.2994,submitButton,9.580131173,-0.225260417,-0.41796875,0,0,0,2,38,158,6,1,22,69016,blockP,180,2022-02-17_18h59.42.673,orientation adjustment blockP,2021.2.3,Win32,31.89284006,,,,,,,
,,,,,,,,,,,,,,,,,,,,,,-68.33333333,-51,20,75,-240.3333333,9.333333333,3.733333333,-0.140625,-0.37890625,1,0,0,2.5297,submitButton,9.539808429,-0.140625,-0.37890625,0,0,0,2,39,159,35,1,51,69016,blockP,180,2022-02-17_18h59.42.673,orientation adjustment blockP,2021.2.3,Win32,31.89284006,,,,,,,
,,,,,,,,,,,,,,,,,,,,,,68.88888889,-20,20,75,-26.11111111,6.111111111,2.444444444,-0.221354167,-0.3984375,1,0,0,1.8827,submitButton,9.491210046,-0.221354167,-0.3984375,0,0,0,2,40,160,4,1,20,69016,blockP,180,2022-02-17_18h59.42.673,orientation adjustment blockP,2021.2.3,Win32,31.89284006,,,,,,,
,,,,,,,,,,,,,,,,,,,,,,-20,36,20,75,30,6,2.4,-0.208333333,-0.388020833,1,0,0,1.0172,submitButton,9.442970522,-0.208333333,-0.388020833,0,0,0,2,41,161,20,1,36,69016,blockP,180,2022-02-17_18h59.42.673,orientation adjustment blockP,2021.2.3,Win32,31.89284006,,,,,,,
,,,,,,,,,,,,,,,,,,,,,,55,-31,20,75,-26,5,2,0.365885417,-0.28125,1,0,0,0.3665,submitButton,9.39268018,-0.16015625,-0.3828125,0,0,0,2,42,162,15,1,31,69016,blockP,180,2022-02-17_18h59.42.673,orientation adjustment blockP,2021.2.3,Win32,31.89284006,,,,,,,
,,,,,,,,,,,,,,,,,,,,,,36.11111111,66,20,75,240.1111111,5.888888889,2.355555556,0.192708333,-0.298177083,1,0,0,0.8647,submitButton,9.345451156,-0.140625,-0.401041667,0,0,0,2,43,163,50,1,66,69016,blockP,180,2022-02-17_18h59.42.673,orientation adjustment blockP,2021.2.3,Win32,31.89284006,,,,,,,
,,,,,,,,,,,,,,,,,,,,,,-56.66666667,59,20,75,37.33333333,21.66666667,14.08333333,0.194010417,-0.313802083,1,0,0,0.879,submitButton,9.377037037,0.368489583,-0.399739583,1,0,0,2,44,164,43,1,59,69016,blockP,180,2022-02-17_18h59.42.673,orientation adjustment blockP,2021.2.3,Win32,31.89284006,continueButton,,,,,,
,,,,,,,,,,,,,,,,,,,,,,52.77777778,-16,20,75,-9.222222222,6.777777778,2.711111111,0.428385417,-0.33203125,1,0,0,0.8977,submitButton,9.332891832,-0.1875,-0.40234375,0,0,0,2,45,165,0,1,16,69016,blockP,180,2022-02-17_18h59.42.673,orientation adjustment blockP,2021.2.3,Win32,31.89284006,,,,,,,
,,,,,,,,,,,,,,,,,,,,,,46.66666667,69,20,75,115.6666667,46.66666667,37.33333333,-0.338541667,-0.3984375,1,0,0,0.6699,submitButton,9.517105263,-0.338541667,-0.3984375,0,0,0,2,46,166,53,1,69,69016,blockP,180,2022-02-17_18h59.42.673,orientation adjustment blockP,2021.2.3,Win32,31.89284006,,,,,,,
,,,,,,,,,,,,,,,,,,,,,,31.66666667,29,20,75,32.66666667,3.666666667,1.466666667,0.415364583,-0.303385417,1,0,0,0.4047,submitButton,9.464488017,-0.381510417,-0.401041667,0,0,0,2,47,167,13,1,29,69016,blockP,180,2022-02-17_18h59.42.673,orientation adjustment blockP,2021.2.3,Win32,31.89284006,,,,,,,
,,,,,,,,,,,,,,,,,,,,,,69.44444444,55,20,75,213.4444444,21.55555556,14.01111111,0.231770833,-0.305989583,1,0,0,0.1343,submitButton,9.494011544,-0.178385417,-0.3984375,0,0,0,2,48,168,39,1,55,69016,blockP,180,2022-02-17_18h59.42.673,orientation adjustment blockP,2021.2.3,Win32,31.89284006,,,,,,,
,,,,,,,,,,,,,,,,,,,,,,52.22222222,-32,20,75,-24.77777778,7.222222222,2.888888889,-0.359375,-0.40234375,1,0,0,1.4104,submitButton,9.451397849,-0.359375,-0.40234375,0,0,0,2,49,169,16,1,32,69016,blockP,180,2022-02-17_18h59.42.673,orientation adjustment blockP,2021.2.3,Win32,31.89284006,,,,,,,
,,,,,,,,,,,,,,,,,,,,,,48.88888889,-60,20,75,-46.11111111,13.88888889,5.555555556,0.376302083,-0.2890625,1,0,0,0.1343,submitButton,9.426424501,-0.184895833,-0.40234375,0,0,0,2,50,170,44,1,60,69016,blockP,180,2022-02-17_18h59.42.673,orientation adjustment blockP,2021.2.3,Win32,31.89284006,,,,,,,
,,,,,,,,,,,,,,,,,,,,,,39.44444444,39,20,75,226.4444444,7.444444444,2.977777778,0.264322917,-0.3203125,1,0,0,0.3213,submitButton,9.385350318,-0.3203125,-0.395833333,0,0,0,2,51,171,23,1,39,69016,blockP,180,2022-02-17_18h59.42.673,orientation adjustment blockP,2021.2.3,Win32,31.89284006,,,,,,,
,,,,,,,,,,,,,,,,,,,,,,49.44444444,-17,20,75,-31.55555556,14.55555556,5.822222222,0.380208333,-0.286458333,1,0,0,0.0321,submitButton,9.362798875,-0.350260417,-0.403645833,0,0,0,2,52,172,1,1,17,69016,blockP,180,2022-02-17_18h59.42.673,orientation adjustment blockP,2021.2.3,Win32,31.89284006,,,,,,,
,,,,,,,,,,,,,,,,,,,,,,58.88888889,48,20,75,225.8888889,2.111111111,0.844444444,-0.138020833,-0.404947917,1,0,0,2.9846,submitButton,9.309224319,-0.138020833,-0.404947917,0,0,0,2,53,173,32,1,48,69016,blockP,180,2022-02-17_18h59.42.673,orientation adjustment blockP,2021.2.3,Win32,31.89284006,,,,,,,
,,,,,,,,,,,,,,,,,,,,,,-24.44444444,-46,20,75,-54.44444444,8.444444444,3.377777778,0.19140625,-0.294270833,1,0,0,0.449,submitButton,9.272152778,-0.162760417,-0.385416667,0,0,0,2,54,174,30,1,46,69016,blockP,180,2022-02-17_18h59.42.673,orientation adjustment blockP,2021.2.3,Win32,31.89284006,,,,,,,
,,,,,,,,,,,,,,,,,,,,,,-30,-21,20,75,-222,21,13.65,-0.145833333,-0.395833333,1,0,0,3.5172,submitButton,9.299344375,-0.145833333,-0.395833333,0,0,0,2,55,175,5,1,21,69016,blockP,180,2022-02-17_18h59.42.673,orientation adjustment blockP,2021.2.3,Win32,31.89284006,,,,,,,
,,,,,,,,,,,,,,,,,,,,,,21.11111111,-61,20,75,-52.88888889,8.111111111,3.244444444,0.376302083,-0.309895833,1,0,0,0.6822,submitButton,9.26196845,-0.19140625,-0.40625,0,0,0,2,56,176,45,1,61,69016,blockP,180,2022-02-17_18h59.42.673,orientation adjustment blockP,2021.2.3,Win32,31.89284006,,,,,,,
,,,,,,,,,,,,,,,,,,,,,,-26.66666667,28,20,75,27.33333333,0.666666667,0.266666667,0.233072917,-0.295572917,1,0,0,0.5857,submitButton,9.206782549,-0.1875,-0.419270833,0,0,0,2,57,177,12,1,28,69016,blockP,180,2022-02-17_18h59.42.673,orientation adjustment blockP,2021.2.3,Win32,31.89284006,,,,,,,
,,,,,,,,,,,,,,,,,,,,,,-42.77777778,-56,20,75,-256.7777778,20.77777778,13.50555556,0.384114583,-0.30078125,1,0,0,0.0368,submitButton,9.23299458,-0.178385417,-0.401041667,0,0,0,2,58,178,40,1,56,69016,blockP,180,2022-02-17_18h59.42.673,orientation adjustment blockP,2021.2.3,Win32,31.89284006,,,,,,,
,,,,,,,,,,,,,,,,,,,,,,-41.66666667,62,20,75,51.33333333,10.66666667,4.266666667,0.192708333,-0.31640625,1,0,0,1.502,submitButton,9.202895623,-0.188802083,-0.384114583,0,0,0,2,59,179,46,1,62,69016,blockP,180,2022-02-17_18h59.42.673,orientation adjustment blockP,2021.2.3,Win32,31.89284006,,,,,,,
,,,,,,,,,,,,,,,,,,,,,,,,,,,,,,,,,,,,,,,,,,,,,,,,69016,blockP,180,2022-02-17_18h59.42.673,orientation adjustment blockP,2021.2.3,Win32,31.89284006,,0.399739583,-0.411458333,1,0,0,EndButtonTxt
