consentMouse1.x,consentMouse1.y,consentMouse1.leftButton,consentMouse1.midButton,consentMouse1.rightButton,consentMouse1.clicked_name,consent_Mouse.x,consent_Mouse.y,consent_Mouse.leftButton,consent_Mouse.midButton,consent_Mouse.rightButton,consent_Mouse.clicked_name,startMouse.x,startMouse.y,startMouse.leftButton,startMouse.midButton,startMouse.rightButton,startMouse_2.x,startMouse_2.y,startMouse_2.leftButton,startMouse_2.midButton,startMouse_2.rightButton,start_distance,fixedOri,minimalDistance,maxOri,this_ori,accuracy,presented_accuracy,submitMouse.x,submitMouse.y,submitMouse.leftButton,submitMouse.midButton,submitMouse.rightButton,submitMouse.time,submitMouse.clicked_name,block_accuracy,continueMouse.x,continueMouse.y,continueMouse.leftButton,continueMouse.midButton,continueMouse.rightButton,trials.thisRepN,trials.thisTrialN,trials.thisN,trials.thisIndex,trials.ran,startOri,participant,condition,nTrials,date,expName,psychopyVersion,OS,frameRate,continueMouse.clicked_name,EndButtonMouse.x,EndButtonMouse.y,EndButtonMouse.leftButton,EndButtonMouse.midButton,EndButtonMouse.rightButton,EndButtonMouse.clicked_name
0.340740759,-0.392592606,1,0,0,consent_button1,0.39537039,-0.4046297,1,0,0,consent_button,0.236111128,-0.283333345,1,0,0,0.103703718,-0.275925937,1,0,0,47.22222222,-24,20,75,3.222222222,27.22222222,17.69444444,0.187962979,-0.312037106,1,0,0,6.5297,submitButton,17.69444444,-0.518518513,-0.400925939,0,0,0,0,0,0,8,1,24,69139,blockP,180,2022-02-16_17h08.45.359,orientation adjustment blockP,2021.2.3,Win32,60.17571308,,,,,,,
,,,,,,,,,,,,,,,,,,,,,,-67.22222222,37,20,75,26.77777778,10.22222222,4.088888889,0.205555572,-0.309259271,1,0,0,0.117,submitButton,10.89166667,0.179629646,-0.269444456,0,0,0,0,1,1,21,1,37,69139,blockP,180,2022-02-16_17h08.45.359,orientation adjustment blockP,2021.2.3,Win32,60.17571308,,,,,,,
,,,,,,,,,,,,,,,,,,,,,,40.55555556,-17,20,75,-23.44444444,6.444444444,2.577777778,0.367592611,-0.296296308,1,0,0,0.7333,submitButton,8.12037037,-0.353703696,-0.408333347,0,0,0,0,2,2,1,1,17,69139,blockP,180,2022-02-16_17h08.45.359,orientation adjustment blockP,2021.2.3,Win32,60.17571308,,,,,,,
,,,,,,,,,,,,,,,,,,,,,,-75,59,20,75,53,6,2.4,0.175925942,-0.302777846,1,0,0,1.4776,submitButton,2.4,-0.330555547,-0.393518532,0,0,0,0,3,3,43,1,59,69139,blockP,180,2022-02-16_17h08.45.359,orientation adjustment blockP,2021.2.3,Win32,60.17571308,,,,,,,
,,,,,,,,,,,,,,,,,,,,,,63.33333333,-35,20,75,-35.66666667,0.666666667,0.266666667,0.399074093,-0.298148217,1,0,0,0.8282,submitButton,1.333333333,-0.332407399,-0.387962976,0,0,0,0,4,4,19,1,35,69139,blockP,180,2022-02-16_17h08.45.359,orientation adjustment blockP,2021.2.3,Win32,60.17571308,,,,,,,
,,,,,,,,,,,,,,,,,,,,,,-26.66666667,55,20,75,53.33333333,1.666666667,0.666666667,0.407407427,-0.300000012,1,0,0,0.639,submitButton,1.111111111,-0.418518512,-0.383333346,0,0,0,0,5,5,39,1,55,69139,blockP,180,2022-02-16_17h08.45.359,orientation adjustment blockP,2021.2.3,Win32,60.17571308,,,,,,,
,,,,,,,,,,,,,,,,,,,,,,58.33333333,-16,20,75,-21.66666667,5.666666667,2.266666667,0.369444576,-0.275000068,1,0,0,0.6277,submitButton,2.266666667,-0.287037028,-0.39629631,0,0,0,0,6,6,0,1,16,69139,blockP,180,2022-02-16_17h08.45.359,orientation adjustment blockP,2021.2.3,Win32,60.17571308,,,,,,,
,,,,,,,,,,,,,,,,,,,,,,42.22222222,-60,20,75,-55.77777778,4.222222222,1.688888889,0.377777797,-0.301851864,1,0,0,1.3277,submitButton,1.977777778,0.257407424,-0.350000013,0,0,0,0,7,7,44,1,60,69139,blockP,180,2022-02-16_17h08.45.359,orientation adjustment blockP,2021.2.3,Win32,60.17571308,,,,,,,
,,,,,,,,,,,,,,,,,,,,,,-38.33333333,-48,20,75,-228.3333333,0.333333333,0.133333333,0.39074076,-0.316666735,1,0,0,2.1437,submitButton,1.362962963,-0.507407402,-0.400925939,0,0,0,0,8,8,32,1,48,69139,blockP,180,2022-02-16_17h08.45.359,orientation adjustment blockP,2021.2.3,Win32,60.17571308,,,,,,,
,,,,,,,,,,,,,,,,,,,,,,-23.33333333,53,20,75,41.66666667,11.33333333,4.533333333,0.377777797,-0.295370382,1,0,0,0.9276,submitButton,4.533333333,-0.41666666,-0.419444458,0,0,0,0,9,9,37,1,53,69139,blockP,180,2022-02-16_17h08.45.359,orientation adjustment blockP,2021.2.3,Win32,60.17571308,,,,,,,
,,,,,,,,,,,,,,,,,,,,,,70.55555556,-58,20,75,-55.44444444,2.555555556,1.022222222,0.3814815,-0.287037049,1,0,0,1.0276,submitButton,2.777777778,-0.360185177,-0.389814828,0,0,0,0,10,10,42,1,58,69139,blockP,180,2022-02-16_17h08.45.359,orientation adjustment blockP,2021.2.3,Win32,60.17571308,,,,,,,
,,,,,,,,,,,,,,,,,,,,,,-48.88888889,66,20,75,61.11111111,4.888888889,1.955555556,0.388888908,-0.296296308,1,0,0,0.7614,submitButton,2.503703704,-0.366666659,-0.412037051,0,0,0,0,11,11,50,1,66,69139,blockP,180,2022-02-16_17h08.45.359,orientation adjustment blockP,2021.2.3,Win32,60.17571308,,,,,,,
,,,,,,,,,,,,,,,,,,,,,,-34.44444444,50,20,75,44.55555556,5.444444444,2.177777778,-0.302777769,-0.373148161,1,0,0,1.1662,submitButton,2.177777778,-0.271296231,-0.371296309,0,0,0,0,12,12,34,1,50,69139,blockP,180,2022-02-16_17h08.45.359,orientation adjustment blockP,2021.2.3,Win32,60.17571308,,,,,,,
,,,,,,,,,,,,,,,,,,,,,,-29.44444444,36,20,75,35.55555556,0.444444444,0.177777778,0.225000017,-0.284259327,1,0,0,0.3621,submitButton,1.177777778,-0.366666659,-0.403703717,0,0,0,0,13,13,20,1,36,69139,blockP,180,2022-02-16_17h08.45.359,orientation adjustment blockP,2021.2.3,Win32,60.17571308,,,,,,,
,,,,,,,,,,,,,,,,,,,,,,65,-71,20,75,-60,11,4.4,-0.508333299,-0.428703718,1,0,0,0.9112,submitButton,2.251851852,0.30185187,-0.40000007,1,0,0,0,14,14,55,1,71,69139,blockP,180,2022-02-16_17h08.45.359,orientation adjustment blockP,2021.2.3,Win32,60.17571308,continueButton,,,,,,
,,,,,,,,,,,,,,,,,,,,,,63.88888889,39,20,75,215.8888889,3.111111111,1.244444444,0.181481497,-0.314814827,1,0,0,1.3772,submitButton,1.244444444,0.462962983,-0.197222233,0,0,0,0,15,15,23,1,39,69139,blockP,180,2022-02-16_17h08.45.359,orientation adjustment blockP,2021.2.3,Win32,60.17571308,,,,,,,
,,,,,,,,,,,,,,,,,,,,,,39.44444444,49,20,75,230.4444444,1.444444444,0.577777778,0.202777794,-0.295370382,1,0,0,1.0997,submitButton,0.911111111,-0.187962896,-0.382407421,0,0,0,0,16,16,33,1,49,69139,blockP,180,2022-02-16_17h08.45.359,orientation adjustment blockP,2021.2.3,Win32,60.17571308,,,,,,,
,,,,,,,,,,,,,,,,,,,,,,38.88888889,-52,20,75,-51.11111111,0.888888889,0.355555556,0.23333335,-0.286111123,1,0,0,0.1967,submitButton,0.725925926,0.406481614,-0.272222234,0,0,0,0,17,17,36,1,52,69139,blockP,180,2022-02-16_17h08.45.359,orientation adjustment blockP,2021.2.3,Win32,60.17571308,,,,,,,
,,,,,,,,,,,,,,,,,,,,,,-33.33333333,-22,20,75,-20.33333333,1.666666667,0.666666667,0.204629646,-0.293518587,1,0,0,0.1502,submitButton,0.711111111,0.265740758,-0.322222234,0,0,0,0,18,18,6,1,22,69139,blockP,180,2022-02-16_17h08.45.359,orientation adjustment blockP,2021.2.3,Win32,60.17571308,,,,,,,
,,,,,,,,,,,,,,,,,,,,,,-21.11111111,56,20,75,64.88888889,8.888888889,3.555555556,0.20370372,-0.299074086,1,0,0,0.245,submitButton,1.28,-0.278703695,-0.389814828,0,0,0,0,19,19,40,1,56,69139,blockP,180,2022-02-16_17h08.45.359,orientation adjustment blockP,2021.2.3,Win32,60.17571308,,,,,,,
,,,,,,,,,,,,,,,,,,,,,,-54.44444444,-57,20,75,-136.4444444,79.44444444,71.5,0.39537039,-0.271296308,1,0,0,1.9873,submitButton,12.98333333,0.151851867,-0.32777779,0,0,0,0,20,20,41,1,57,69139,blockP,180,2022-02-16_17h08.45.359,orientation adjustment blockP,2021.2.3,Win32,60.17571308,,,,,,,
,,,,,,,,,,,,,,,,,,,,,,42.77777778,32,20,75,31.77777778,0.222222222,0.088888889,0.398148167,-0.302777846,1,0,0,0.7825,submitButton,11.14126984,0.32685187,-0.220370381,0,0,0,0,21,21,16,1,32,69139,blockP,180,2022-02-16_17h08.45.359,orientation adjustment blockP,2021.2.3,Win32,60.17571308,,,,,,,
,,,,,,,,,,,,,,,,,,,,,,38.33333333,25,20,75,25.33333333,0.333333333,0.133333333,0.338888907,-0.298148217,1,0,0,0.4659,submitButton,9.765277778,0.092592607,-0.33703705,0,0,0,0,22,22,9,1,25,69139,blockP,180,2022-02-16_17h08.45.359,orientation adjustment blockP,2021.2.3,Win32,60.17571308,,,,,,,
,,,,,,,,,,,,,,,,,,,,,,65.55555556,-72,20,75,-65.44444444,6.555555556,2.622222222,0.394444464,-0.27314816,1,0,0,1.8942,submitButton,8.971604938,-0.297222213,-0.400925939,0,0,0,0,23,23,56,1,72,69139,blockP,180,2022-02-16_17h08.45.359,orientation adjustment blockP,2021.2.3,Win32,60.17571308,,,,,,,
,,,,,,,,,,,,,,,,,,,,,,33.88888889,38,20,75,42.88888889,4.888888889,1.955555556,-0.423148141,-0.4046297,1,0,0,0.8157,submitButton,8.27,0.175925942,-0.346296309,0,0,0,0,24,24,22,1,38,69139,blockP,180,2022-02-16_17h08.45.359,orientation adjustment blockP,2021.2.3,Win32,60.17571308,,,,,,,
,,,,,,,,,,,,,,,,,,,,,,-35,-26,20,75,-23,3,1.2,-0.312037028,-0.328703716,1,0,0,1.683,submitButton,7.627272727,-0.381481474,-0.409259329,0,0,0,0,25,25,10,1,26,69139,blockP,180,2022-02-16_17h08.45.359,orientation adjustment blockP,2021.2.3,Win32,60.17571308,,,,,,,
,,,,,,,,,,,,,,,,,,,,,,-40,-18,20,75,-21,3,1.2,0.195370387,-0.272222234,1,0,0,0.0831,submitButton,7.091666667,-0.023148135,-0.380555569,0,0,0,0,26,26,2,1,18,69139,blockP,180,2022-02-16_17h08.45.359,orientation adjustment blockP,2021.2.3,Win32,60.17571308,,,,,,,
,,,,,,,,,,,,,,,,,,,,,,-51.66666667,43,20,75,35.33333333,7.666666667,3.066666667,0.250925943,-0.294444456,1,0,0,0.2208,submitButton,6.782051282,-0.239814805,-0.382407421,0,0,0,0,27,27,27,1,43,69139,blockP,180,2022-02-16_17h08.45.359,orientation adjustment blockP,2021.2.3,Win32,60.17571308,,,,,,,
,,,,,,,,,,,,,,,,,,,,,,-41.11111111,-21,20,75,-14.11111111,6.888888889,2.755555556,0.152777793,-0.305555568,1,0,0,0.5716,submitButton,6.494444444,-0.256481472,-0.430555569,0,0,0,0,28,28,5,1,21,69139,blockP,180,2022-02-16_17h08.45.359,orientation adjustment blockP,2021.2.3,Win32,60.17571308,,,,,,,
,,,,,,,,,,,,,,,,,,,,,,62.77777778,42,20,75,39.77777778,2.222222222,0.888888889,0.39537039,-0.297222234,1,0,0,1.1443,submitButton,6.120740741,0.338888907,-0.385185198,1,0,0,0,29,29,26,1,42,69139,blockP,180,2022-02-16_17h08.45.359,orientation adjustment blockP,2021.2.3,Win32,60.17571308,continueButton,,,,,,
,,,,,,,,,,,,,,,,,,,,,,-24.44444444,-45,20,75,-35.44444444,9.555555556,3.822222222,0.187037053,-0.289814827,1,0,0,0.428,submitButton,5.977083333,0.276851869,-0.25185192,0,0,0,0,30,30,29,1,45,69139,blockP,180,2022-02-16_17h08.45.359,orientation adjustment blockP,2021.2.3,Win32,60.17571308,,,,,,,
,,,,,,,,,,,,,,,,,,,,,,-20.55555556,19,20,75,21.44444444,2.444444444,0.977777778,-0.229629563,-0.399074087,1,0,0,1.0998,submitButton,5.683006536,0.201851868,-0.344444514,0,0,0,0,31,31,3,1,19,69139,blockP,180,2022-02-16_17h08.45.359,orientation adjustment blockP,2021.2.3,Win32,60.17571308,,,,,,,
,,,,,,,,,,,,,,,,,,,,,,62.22222222,69,20,75,236.2222222,12.77777778,5.111111111,0.166666682,-0.284259327,1,0,0,2.0823,submitButton,5.651234568,0.165740756,-0.315740753,0,0,0,0,32,32,53,1,69,69139,blockP,180,2022-02-16_17h08.45.359,orientation adjustment blockP,2021.2.3,Win32,60.17571308,,,,,,,
,,,,,,,,,,,,,,,,,,,,,,65.55555556,51,20,75,238.5555556,7.555555556,3.022222222,0.193518535,-0.286111123,1,0,0,1.7944,submitButton,5.512865497,0.271296314,-0.210185252,0,0,0,0,33,33,35,1,51,69139,blockP,180,2022-02-16_17h08.45.359,orientation adjustment blockP,2021.2.3,Win32,60.17571308,,,,,,,
,,,,,,,,,,,,,,,,,,,,,,-57.77777778,-41,20,75,-216.7777778,4.222222222,1.688888889,0.187962979,-0.257407419,1,0,0,1.8321,submitButton,5.321666667,0.156481497,-0.393518532,0,0,0,0,34,34,25,1,41,69139,blockP,180,2022-02-16_17h08.45.359,orientation adjustment blockP,2021.2.3,Win32,60.17571308,,,,,,,
,,,,,,,,,,,,,,,,,,,,,,71.11111111,20,20,75,209.1111111,9.111111111,3.644444444,0.168518534,-0.291666678,1,0,0,1.8771,submitButton,5.241798942,0.296296314,-0.274074086,0,0,0,0,35,35,4,1,20,69139,blockP,180,2022-02-16_17h08.45.359,orientation adjustment blockP,2021.2.3,Win32,60.17571308,,,,,,,
,,,,,,,,,,,,,,,,,,,,,,-56.11111111,-33,20,75,-204.1111111,8.888888889,3.555555556,0.206481498,-0.287037049,1,0,0,1.9158,submitButton,5.165151515,0.226851868,-0.311111123,0,0,0,0,36,36,17,1,33,69139,blockP,180,2022-02-16_17h08.45.359,orientation adjustment blockP,2021.2.3,Win32,60.17571308,,,,,,,
,,,,,,,,,,,,,,,,,,,,,,-60.55555556,-74,20,75,-253.5555556,0.444444444,0.177777778,0.414814834,-0.310185197,1,0,0,1.2441,submitButton,4.948309179,0.177777794,-0.246296307,0,0,0,0,37,37,58,1,74,69139,blockP,180,2022-02-16_17h08.45.359,orientation adjustment blockP,2021.2.3,Win32,60.17571308,,,,,,,
,,,,,,,,,,,,,,,,,,,,,,20.55555556,40,20,75,35.55555556,4.444444444,1.777777778,0.434259392,-0.277777789,1,0,0,0.0166,submitButton,4.816203704,0.507407428,-0.299074086,0,0,0,0,38,38,24,1,40,69139,blockP,180,2022-02-16_17h08.45.359,orientation adjustment blockP,2021.2.3,Win32,60.17571308,,,,,,,
,,,,,,,,,,,,,,,,,,,,,,23.88888889,70,20,75,69.88888889,0.111111111,0.044444444,0.428703723,-0.303703716,1,0,0,0.0944,submitButton,4.625333333,0.175925942,-0.313888901,0,0,0,0,39,39,54,1,70,69139,blockP,180,2022-02-16_17h08.45.359,orientation adjustment blockP,2021.2.3,Win32,60.17571308,,,,,,,
,,,,,,,,,,,,,,,,,,,,,,-54.44444444,-63,20,75,-62.44444444,0.555555556,0.222222222,0.220370387,-0.290740753,1,0,0,0.4636,submitButton,4.455982906,-0.399074067,-0.405555569,0,0,0,0,40,40,47,1,63,69139,blockP,180,2022-02-16_17h08.45.359,orientation adjustment blockP,2021.2.3,Win32,60.17571308,,,,,,,
,,,,,,,,,,,,,,,,,,,,,,-26.66666667,-67,20,75,-66.66666667,0.333333333,0.133333333,-0.418518512,-0.422222236,1,0,0,0.5995,submitButton,4.295884774,0.137962978,-0.259259271,0,0,0,0,41,41,51,1,67,69139,blockP,180,2022-02-16_17h08.45.359,orientation adjustment blockP,2021.2.3,Win32,60.17571308,,,,,,,
,,,,,,,,,,,,,,,,,,,,,,-31.66666667,-47,20,75,-37.66666667,9.333333333,3.733333333,0.191666683,-0.267592604,1,0,0,0.7832,submitButton,4.275793651,0.054629644,-0.338888901,0,0,0,0,42,42,31,1,47,69139,blockP,180,2022-02-16_17h08.45.359,orientation adjustment blockP,2021.2.3,Win32,60.17571308,,,,,,,
,,,,,,,,,,,,,,,,,,,,,,-60.55555556,-23,20,75,-13.55555556,9.444444444,3.777777778,0.168518534,-0.292592604,1,0,0,0.4781,submitButton,4.25862069,0.054629644,-0.312037106,0,0,0,0,43,43,7,1,23,69139,blockP,180,2022-02-16_17h08.45.359,orientation adjustment blockP,2021.2.3,Win32,60.17571308,,,,,,,
,,,,,,,,,,,,,,,,,,,,,,-29.44444444,-29,20,75,-38.44444444,9.444444444,3.777777778,0.175000016,-0.302777846,1,0,0,0.895,submitButton,4.242592593,0.430555575,-0.39537044,1,0,0,0,44,44,13,1,29,69139,blockP,180,2022-02-16_17h08.45.359,orientation adjustment blockP,2021.2.3,Win32,60.17571308,continueButton,,,,,,
,,,,,,,,,,,,,,,,,,,,,,32.22222222,-28,20,75,-24.77777778,3.222222222,1.288888889,0.190740757,-0.306481493,1,0,0,1.0281,submitButton,4.147311828,0.171296312,-0.315740753,0,0,0,0,45,45,12,1,28,69139,blockP,180,2022-02-16_17h08.45.359,orientation adjustment blockP,2021.2.3,Win32,60.17571308,,,,,,,
,,,,,,,,,,,,,,,,,,,,,,20.55555556,-62,20,75,-62.44444444,0.444444444,0.177777778,-0.219444434,-0.333333346,1,0,0,0.5218,submitButton,4.023263889,0.265740758,-0.265740809,0,0,0,0,46,46,46,1,62,69139,blockP,180,2022-02-16_17h08.45.359,orientation adjustment blockP,2021.2.3,Win32,60.17571308,,,,,,,
,,,,,,,,,,,,,,,,,,,,,,-49.44444444,-30,20,75,-34.44444444,4.444444444,1.777777778,-0.228703694,-0.407407421,1,0,0,0.7331,submitButton,3.955218855,0.096296311,-0.286111123,0,0,0,0,47,47,14,1,30,69139,blockP,180,2022-02-16_17h08.45.359,orientation adjustment blockP,2021.2.3,Win32,60.17571308,,,,,,,
,,,,,,,,,,,,,,,,,,,,,,-31.66666667,46,20,75,36.33333333,9.666666667,3.866666667,0.357407426,-0.285185197,1,0,0,0.067,submitButton,3.952614379,0.098148163,-0.320370383,0,0,0,0,48,48,30,1,46,69139,blockP,180,2022-02-16_17h08.45.359,orientation adjustment blockP,2021.2.3,Win32,60.17571308,,,,,,,
,,,,,,,,,,,,,,,,,,,,,,34.44444444,65,20,75,253.4444444,8.444444444,3.377777778,0.175000016,-0.313888901,1,0,0,2.2658,submitButton,3.936190476,-0.185185175,-0.365740754,0,0,0,0,49,49,49,1,65,69139,blockP,180,2022-02-16_17h08.45.359,orientation adjustment blockP,2021.2.3,Win32,60.17571308,,,,,,,
,,,,,,,,,,,,,,,,,,,,,,-66.11111111,27,20,75,-147.1111111,5.888888889,2.355555556,0.442592612,-0.309259271,1,0,0,1.9996,submitButton,3.892283951,0.02500007,-0.370370383,0,0,0,0,50,50,11,1,27,69139,blockP,180,2022-02-16_17h08.45.359,orientation adjustment blockP,2021.2.3,Win32,60.17571308,,,,,,,
,,,,,,,,,,,,,,,,,,,,,,29.44444444,-54,20,75,-50.55555556,3.444444444,1.377777778,0.319444462,-0.322222234,1,0,0,0.1337,submitButton,3.824324324,-0.34351851,-0.362963032,0,0,0,0,51,51,38,1,54,69139,blockP,180,2022-02-16_17h08.45.359,orientation adjustment blockP,2021.2.3,Win32,60.17571308,,,,,,,
,,,,,,,,,,,,,,,,,,,,,,-61.11111111,75,20,75,-107.1111111,2.111111111,0.844444444,0.400925945,-0.289814827,1,0,0,1.7273,submitButton,3.745906433,0.181481497,-0.201851862,0,0,0,0,52,52,59,1,75,69139,blockP,180,2022-02-16_17h08.45.359,orientation adjustment blockP,2021.2.3,Win32,60.17571308,,,,,,,
,,,,,,,,,,,,,,,,,,,,,,-28.88888889,-34,20,75,-33.88888889,0.111111111,0.044444444,0.406481614,-0.288888957,1,0,0,0.5004,submitButton,3.650997151,-0.227777768,-0.35277779,0,0,0,0,53,53,18,1,34,69139,blockP,180,2022-02-16_17h08.45.359,orientation adjustment blockP,2021.2.3,Win32,60.17571308,,,,,,,
,,,,,,,,,,,,,,,,,,,,,,-48.33333333,-31,20,75,-31.33333333,0.333333333,0.133333333,0.242592609,-0.289814827,1,0,0,1.2325,submitButton,3.563055556,0.401851984,-0.249074085,0,0,0,0,54,54,15,1,31,69139,blockP,180,2022-02-16_17h08.45.359,orientation adjustment blockP,2021.2.3,Win32,60.17571308,,,,,,,
,,,,,,,,,,,,,,,,,,,,,,25,61,20,75,53,8,3.2,0.352777796,-0.26851853,1,0,0,0.6717,submitButton,3.554200542,0.453703724,-0.282407419,0,0,0,0,55,55,45,1,61,69139,blockP,180,2022-02-16_17h08.45.359,orientation adjustment blockP,2021.2.3,Win32,60.17571308,,,,,,,
,,,,,,,,,,,,,,,,,,,,,,-42.22222222,68,20,75,62.77777778,5.222222222,2.088888889,-0.178703637,-0.390740811,1,0,0,1.1822,submitButton,3.519312169,0.131481497,-0.306481493,0,0,0,0,56,56,52,1,68,69139,blockP,180,2022-02-16_17h08.45.359,orientation adjustment blockP,2021.2.3,Win32,60.17571308,,,,,,,
,,,,,,,,,,,,,,,,,,,,,,-26.66666667,-64,20,75,-70.66666667,6.666666667,2.666666667,0.410185205,-0.298148217,1,0,0,0.5386,submitButton,3.499483204,0.177777794,-0.293518587,0,0,0,0,57,57,48,1,64,69139,blockP,180,2022-02-16_17h08.45.359,orientation adjustment blockP,2021.2.3,Win32,60.17571308,,,,,,,
,,,,,,,,,,,,,,,,,,,,,,-52.22222222,44,20,75,-125.2222222,10.77777778,4.311111111,0.364814947,-0.290740753,1,0,0,1.5109,submitButton,3.517929293,-0.29351851,-0.39166668,0,0,0,0,58,58,28,1,44,69139,blockP,180,2022-02-16_17h08.45.359,orientation adjustment blockP,2021.2.3,Win32,60.17571308,,,,,,,
,,,,,,,,,,,,,,,,,,,,,,45,73,20,75,75,2,0.8,0.167592608,-0.287037049,1,0,0,1.066,submitButton,3.457530864,0.325000018,-0.400925939,1,0,0,0,59,59,57,1,73,69139,blockP,180,2022-02-16_17h08.45.359,orientation adjustment blockP,2021.2.3,Win32,60.17571308,continueButton,,,,,,
,,,,,,,,,,,,,,,,,,,,,,21.66666667,-23,20,75,-46.33333333,23.33333333,15.16666667,0.400925945,-0.325000012,1,0,0,1.0381,submitButton,3.712077295,0.275000017,-0.27314816,0,0,0,1,0,60,7,1,23,69139,blockP,180,2022-02-16_17h08.45.359,orientation adjustment blockP,2021.2.3,Win32,60.17571308,,,,,,,
,,,,,,,,,,,,,,,,,,,,,,-23.33333333,-65,20,75,-69.33333333,4.333333333,1.733333333,-0.189814804,-0.394444458,1,0,0,0.5833,submitButton,3.669976359,-0.055555543,-0.348148161,0,0,0,1,1,61,49,1,65,69139,blockP,180,2022-02-16_17h08.45.359,orientation adjustment blockP,2021.2.3,Win32,60.17571308,,,,,,,
,,,,,,,,,,,,,,,,,,,,,,-33.88888889,60,20,75,53.11111111,6.888888889,2.755555556,0.222222239,-0.320370383,1,0,0,0.6168,submitButton,3.650925926,0.073148162,-0.318518531,0,0,0,1,2,62,44,1,60,69139,blockP,180,2022-02-16_17h08.45.359,orientation adjustment blockP,2021.2.3,Win32,60.17571308,,,,,,,
,,,,,,,,,,,,,,,,,,,,,,-50,-68,20,75,-67,1,0.4,0.238888906,-0.292592604,1,0,0,0.5332,submitButton,3.584580499,-0.237037027,-0.38703705,0,0,0,1,3,63,52,1,68,69139,blockP,180,2022-02-16_17h08.45.359,orientation adjustment blockP,2021.2.3,Win32,60.17571308,,,,,,,
,,,,,,,,,,,,,,,,,,,,,,40,48,20,75,51,3,1.2,0.398148167,-0.293518587,1,0,0,0.4999,submitButton,3.536888889,-0.375925918,-0.415740754,0,0,0,1,4,64,32,1,48,69139,blockP,180,2022-02-16_17h08.45.359,orientation adjustment blockP,2021.2.3,Win32,60.17571308,,,,,,,
,,,,,,,,,,,,,,,,,,,,,,27.22222222,-42,20,75,-28.77777778,13.22222222,5.288888889,-0.238888823,-0.40000007,1,0,0,0.8333,submitButton,3.57124183,-0.238888823,-0.40000007,0,0,0,1,5,65,26,1,42,69139,blockP,180,2022-02-16_17h08.45.359,orientation adjustment blockP,2021.2.3,Win32,60.17571308,,,,,,,
,,,,,,,,,,,,,,,,,,,,,,75,32,20,75,29,3,1.2,0.359259278,-0.294444456,1,0,0,1.1996,submitButton,3.525641026,0.167592608,-0.211111122,0,0,0,1,6,66,16,1,32,69139,blockP,180,2022-02-16_17h08.45.359,orientation adjustment blockP,2021.2.3,Win32,60.17571308,,,,,,,
,,,,,,,,,,,,,,,,,,,,,,-66.66666667,61,20,75,49.33333333,11.66666667,4.666666667,0.176851868,-0.309259271,1,0,0,0.1003,submitButton,3.547169811,-0.186111101,-0.412962977,0,0,0,1,7,67,45,1,61,69139,blockP,180,2022-02-16_17h08.45.359,orientation adjustment blockP,2021.2.3,Win32,60.17571308,,,,,,,
,,,,,,,,,,,,,,,,,,,,,,41.66666667,49,20,75,50.66666667,1.666666667,0.666666667,0.363888908,-0.325925995,1,0,0,0.6492,submitButton,3.49382716,-0.405555548,-0.413888959,0,0,0,1,8,68,33,1,49,69139,blockP,180,2022-02-16_17h08.45.359,orientation adjustment blockP,2021.2.3,Win32,60.17571308,,,,,,,
,,,,,,,,,,,,,,,,,,,,,,-45,22,20,75,14,8,3.2,0.194444461,-0.308333345,1,0,0,0.3441,submitButton,3.488484848,-0.270370361,-0.405555569,0,0,0,1,9,69,6,1,22,69139,blockP,180,2022-02-16_17h08.45.359,orientation adjustment blockP,2021.2.3,Win32,60.17571308,,,,,,,
,,,,,,,,,,,,,,,,,,,,,,33.33333333,71,20,75,68.33333333,2.666666667,1.066666667,0.363888908,-0.311111123,1,0,0,0.212,submitButton,3.445238095,-0.312962954,-0.415740754,0,0,0,1,10,70,55,1,71,69139,blockP,180,2022-02-16_17h08.45.359,orientation adjustment blockP,2021.2.3,Win32,60.17571308,,,,,,,
,,,,,,,,,,,,,,,,,,,,,,56.66666667,53,20,75,63.66666667,10.66666667,4.266666667,0.423148168,-0.308333345,1,0,0,0.3777,submitButton,3.459649123,-0.178703637,-0.354629642,0,0,0,1,11,71,37,1,53,69139,blockP,180,2022-02-16_17h08.45.359,orientation adjustment blockP,2021.2.3,Win32,60.17571308,,,,,,,
,,,,,,,,,,,,,,,,,,,,,,-46.11111111,21,20,75,19.88888889,1.111111111,0.444444444,0.180555571,-0.295370382,1,0,0,0.5215,submitButton,3.407662835,0.086111126,-0.324074086,0,0,0,1,12,72,5,1,21,69139,blockP,180,2022-02-16_17h08.45.359,orientation adjustment blockP,2021.2.3,Win32,60.17571308,,,,,,,
,,,,,,,,,,,,,,,,,,,,,,-68.33333333,57,20,75,48.66666667,8.333333333,3.333333333,-0.247222213,-0.390740811,1,0,0,1.7605,submitButton,3.406403013,0.106481496,-0.294444456,0,0,0,1,13,73,41,1,57,69139,blockP,180,2022-02-16_17h08.45.359,orientation adjustment blockP,2021.2.3,Win32,60.17571308,,,,,,,
,,,,,,,,,,,,,,,,,,,,,,-41.66666667,44,20,75,43.33333333,0.666666667,0.266666667,0.225925943,-0.309259271,1,0,0,0.5672,submitButton,3.354074074,0.317592611,-0.389814828,1,0,0,1,14,74,28,1,44,69139,blockP,180,2022-02-16_17h08.45.359,orientation adjustment blockP,2021.2.3,Win32,60.17571308,continueButton,,,,,,
,,,,,,,,,,,,,,,,,,,,,,-25,34,20,75,39,5,2,0.171296312,-0.272222234,1,0,0,0.0287,submitButton,3.331876138,0.122222237,-0.319444457,0,0,0,1,15,75,18,1,34,69139,blockP,180,2022-02-16_17h08.45.359,orientation adjustment blockP,2021.2.3,Win32,60.17571308,,,,,,,
,,,,,,,,,,,,,,,,,,,,,,39.44444444,38,20,75,48.44444444,10.44444444,4.177777778,-0.333333325,-0.367592662,1,0,0,0.5381,submitButton,3.345519713,0.077777792,-0.349074143,0,0,0,1,16,76,22,1,38,69139,blockP,180,2022-02-16_17h08.45.359,orientation adjustment blockP,2021.2.3,Win32,60.17571308,,,,,,,
,,,,,,,,,,,,,,,,,,,,,,-50.55555556,-66,20,75,-63.55555556,2.444444444,0.977777778,-0.270370361,-0.418518589,1,0,0,0.7663,submitButton,3.307936508,0.175000016,-0.281481493,0,0,0,1,17,77,50,1,66,69139,blockP,180,2022-02-16_17h08.45.359,orientation adjustment blockP,2021.2.3,Win32,60.17571308,,,,,,,
,,,,,,,,,,,,,,,,,,,,,,-28.33333333,35,20,75,28.66666667,6.333333333,2.533333333,-0.218518509,-0.376851921,1,0,0,0.8501,submitButton,3.295833333,0.151851867,-0.219444512,0,0,0,1,18,78,19,1,35,69139,blockP,180,2022-02-16_17h08.45.359,orientation adjustment blockP,2021.2.3,Win32,60.17571308,,,,,,,
,,,,,,,,,,,,,,,,,,,,,,62.22222222,46,20,75,226.2222222,0.222222222,0.088888889,0.200000016,-0.305555568,1,0,0,0.2838,submitButton,3.246495726,0.129629645,-0.258333345,0,0,0,1,19,79,30,1,46,69139,blockP,180,2022-02-16_17h08.45.359,orientation adjustment blockP,2021.2.3,Win32,60.17571308,,,,,,,
,,,,,,,,,,,,,,,,,,,,,,66.66666667,43,20,75,232.6666667,9.666666667,3.866666667,0.146296312,-0.292592604,1,0,0,2.3434,submitButton,3.255892256,0.074074088,-0.319444457,0,0,0,1,20,80,27,1,43,69139,blockP,180,2022-02-16_17h08.45.359,orientation adjustment blockP,2021.2.3,Win32,60.17571308,,,,,,,
,,,,,,,,,,,,,,,,,,,,,,29.44444444,20,20,75,18.44444444,1.555555556,0.622222222,0.380555574,-0.296296308,1,0,0,0.8613,submitButton,3.216583748,0.011111181,-0.345370383,0,0,0,1,21,81,4,1,20,69139,blockP,180,2022-02-16_17h08.45.359,orientation adjustment blockP,2021.2.3,Win32,60.17571308,,,,,,,
,,,,,,,,,,,,,,,,,,,,,,35,27,20,75,32,5,2,0.216666683,-0.308333345,1,0,0,0.9499,submitButton,3.19869281,0.26759261,-0.225000011,0,0,0,1,22,82,11,1,27,69139,blockP,180,2022-02-16_17h08.45.359,orientation adjustment blockP,2021.2.3,Win32,60.17571308,,,,,,,
,,,,,,,,,,,,,,,,,,,,,,37.77777778,-37,20,75,-34.22222222,2.777777778,1.111111111,0.407407427,-0.283333345,1,0,0,0.0217,submitButton,3.168438003,0.294444462,-0.287962975,0,0,0,1,23,83,21,1,37,69139,blockP,180,2022-02-16_17h08.45.359,orientation adjustment blockP,2021.2.3,Win32,60.17571308,,,,,,,
,,,,,,,,,,,,,,,,,,,,,,-56.66666667,-40,20,75,-215.6666667,4.333333333,1.733333333,-0.246296287,-0.415740754,1,0,0,2.2821,submitButton,3.147936508,-0.234259193,-0.414814828,0,0,0,1,24,84,24,1,40,69139,blockP,180,2022-02-16_17h08.45.359,orientation adjustment blockP,2021.2.3,Win32,60.17571308,,,,,,,
,,,,,,,,,,,,,,,,,,,,,,58.88888889,-25,20,75,-37.11111111,12.11111111,4.844444444,0.391666686,-0.300000012,1,0,0,0.9832,submitButton,3.171830986,-0.018518506,-0.367592662,0,0,0,1,25,85,9,1,25,69139,blockP,180,2022-02-16_17h08.45.359,orientation adjustment blockP,2021.2.3,Win32,60.17571308,,,,,,,
,,,,,,,,,,,,,,,,,,,,,,-48.33333333,-59,20,75,-239.3333333,0.333333333,0.133333333,0.385185204,-0.311111123,1,0,0,1.7108,submitButton,3.12962963,-0.408333326,-0.389814828,0,0,0,1,26,86,43,1,59,69139,blockP,180,2022-02-16_17h08.45.359,orientation adjustment blockP,2021.2.3,Win32,60.17571308,,,,,,,
,,,,,,,,,,,,,,,,,,,,,,-68.33333333,-73,20,75,-245.3333333,7.666666667,3.066666667,0.355555687,-0.279629698,1,0,0,2.2437,submitButton,3.128767123,-0.463888883,-0.410185199,0,0,0,1,27,87,57,1,73,69139,blockP,180,2022-02-16_17h08.45.359,orientation adjustment blockP,2021.2.3,Win32,60.17571308,,,,,,,
,,,,,,,,,,,,,,,,,,,,,,-64.44444444,-24,20,75,-48.44444444,24.44444444,15.88888889,0.19907409,-0.340740753,1,0,0,0.3848,submitButton,3.301201201,-0.326851843,-0.399074087,0,0,0,1,28,88,8,1,24,69139,blockP,180,2022-02-16_17h08.45.359,orientation adjustment blockP,2021.2.3,Win32,60.17571308,,,,,,,
,,,,,,,,,,,,,,,,,,,,,,-51.11111111,-31,20,75,-43.11111111,12.11111111,4.844444444,0.150000015,-0.267592604,1,0,0,0.2115,submitButton,3.321777778,0.300925944,-0.401851865,1,0,0,1,29,89,15,1,31,69139,blockP,180,2022-02-16_17h08.45.359,orientation adjustment blockP,2021.2.3,Win32,60.17571308,continueButton,,,,,,
,,,,,,,,,,,,,,,,,,,,,,-42.22222222,72,20,75,64.77777778,7.222222222,2.888888889,0.192592609,-0.299074086,1,0,0,0.1668,submitButton,3.316081871,0.100000015,-0.285185197,0,0,0,1,30,90,56,1,72,69139,blockP,180,2022-02-16_17h08.45.359,orientation adjustment blockP,2021.2.3,Win32,60.17571308,,,,,,,
,,,,,,,,,,,,,,,,,,,,,,-26.66666667,16,20,75,14.33333333,1.666666667,0.666666667,0.132407423,-0.309259271,1,0,0,0.0336,submitButton,3.281673882,-0.292592584,-0.398148162,0,0,0,1,31,91,0,1,16,69139,blockP,180,2022-02-16_17h08.45.359,orientation adjustment blockP,2021.2.3,Win32,60.17571308,,,,,,,
,,,,,,,,,,,,,,,,,,,,,,-53.33333333,67,20,75,69.66666667,2.666666667,1.066666667,-0.247222213,-0.388888902,1,0,0,0.9606,submitButton,3.253276353,0.162037053,-0.270370438,0,0,0,1,32,92,51,1,67,69139,blockP,180,2022-02-16_17h08.45.359,orientation adjustment blockP,2021.2.3,Win32,60.17571308,,,,,,,
,,,,,,,,,,,,,,,,,,,,,,-44.44444444,51,20,75,49.55555556,1.444444444,0.577777778,-0.245370361,-0.418518589,1,0,0,1.36,submitButton,3.219409283,-0.245370361,-0.418518589,0,0,0,1,33,93,35,1,51,69139,blockP,180,2022-02-16_17h08.45.359,orientation adjustment blockP,2021.2.3,Win32,60.17571308,,,,,,,
,,,,,,,,,,,,,,,,,,,,,,-39.44444444,74,20,75,76.55555556,2.555555556,1.022222222,-0.187962896,-0.38703705,1,0,0,0.7829,submitButton,3.191944444,0.018518532,-0.297222234,0,0,0,1,34,94,58,1,74,69139,blockP,180,2022-02-16_17h08.45.359,orientation adjustment blockP,2021.2.3,Win32,60.17571308,,,,,,,
,,,,,,,,,,,,,,,,,,,,,,21.11111111,17,20,75,35.11111111,18.11111111,11.77222222,-0.291666658,-0.405555569,1,0,0,0.7829,submitButton,3.2978738,0.168518534,-0.279629698,0,0,0,1,35,95,1,1,17,69139,blockP,180,2022-02-16_17h08.45.359,orientation adjustment blockP,2021.2.3,Win32,60.17571308,,,,,,,
,,,,,,,,,,,,,,,,,,,,,,33.33333333,-55,20,75,-46.66666667,8.333333333,3.333333333,0.382407426,-0.296296308,1,0,0,0.2277,submitButton,3.298306233,0.136111126,-0.312962975,0,0,0,1,36,96,39,1,55,69139,blockP,180,2022-02-16_17h08.45.359,orientation adjustment blockP,2021.2.3,Win32,60.17571308,,,,,,,
,,,,,,,,,,,,,,,,,,,,,,-71.11111111,-28,20,75,-216.1111111,8.111111111,3.244444444,0.456481502,-0.265740809,1,0,0,0.3443,submitButton,3.297657296,-0.271296231,-0.411111125,0,0,0,1,37,97,12,1,28,69139,blockP,180,2022-02-16_17h08.45.359,orientation adjustment blockP,2021.2.3,Win32,60.17571308,,,,,,,
,,,,,,,,,,,,,,,,,,,,,,65,39,20,75,52,13,5.2,0.359259278,-0.282407419,1,0,0,1.1114,submitButton,3.320304233,0.294444462,-0.333333346,0,0,0,1,38,98,23,1,39,69139,blockP,180,2022-02-16_17h08.45.359,orientation adjustment blockP,2021.2.3,Win32,60.17571308,,,,,,,
,,,,,,,,,,,,,,,,,,,,,,41.66666667,63,20,75,58.66666667,4.333333333,1.733333333,0.405555575,-0.306481493,1,0,0,0.578,submitButton,3.301633987,0.061111125,-0.311111123,0,0,0,1,39,99,47,1,63,69139,blockP,180,2022-02-16_17h08.45.359,orientation adjustment blockP,2021.2.3,Win32,60.17571308,,,,,,,
,,,,,,,,,,,,,,,,,,,,,,-41.66666667,-70,20,75,-62.66666667,7.333333333,2.933333333,0.201851868,-0.302777846,1,0,0,0.3614,submitButton,3.297351421,0.146296312,-0.330555624,0,0,0,1,40,100,54,1,70,69139,blockP,180,2022-02-16_17h08.45.359,orientation adjustment blockP,2021.2.3,Win32,60.17571308,,,,,,,
,,,,,,,,,,,,,,,,,,,,,,23.33333333,-58,20,75,-47.66666667,10.33333333,4.133333333,0.410185205,-0.290740753,1,0,0,0.2494,submitButton,3.306960409,0.428703723,-0.216666677,0,0,0,1,41,101,42,1,58,69139,blockP,180,2022-02-16_17h08.45.359,orientation adjustment blockP,2021.2.3,Win32,60.17571308,,,,,,,
,,,,,,,,,,,,,,,,,,,,,,20.55555556,-52,20,75,-47.44444444,4.555555556,1.822222222,0.380555574,-0.306481493,1,0,0,0.1331,submitButton,3.290088384,0.262037054,-0.286111123,0,0,0,1,42,102,36,1,52,69139,blockP,180,2022-02-16_17h08.45.359,orientation adjustment blockP,2021.2.3,Win32,60.17571308,,,,,,,
,,,,,,,,,,,,,,,,,,,,,,-21.11111111,69,20,75,63.88888889,5.111111111,2.044444444,0.369444576,-0.302777846,1,0,0,0.75,submitButton,3.276092385,0.227777794,-0.307407476,0,0,0,1,43,103,53,1,69,69139,blockP,180,2022-02-16_17h08.45.359,orientation adjustment blockP,2021.2.3,Win32,60.17571308,,,,,,,
,,,,,,,,,,,,,,,,,,,,,,-47.22222222,-19,20,75,-20.22222222,1.222222222,0.488888889,0.202777794,-0.299074086,1,0,0,0.3885,submitButton,3.245123457,0.409259279,-0.412962977,1,0,0,1,44,104,3,1,19,69139,blockP,180,2022-02-16_17h08.45.359,orientation adjustment blockP,2021.2.3,Win32,60.17571308,continueButton,,,,,,
,,,,,,,,,,,,,,,,,,,,,,-21.66666667,47,20,75,35.33333333,11.66666667,4.666666667,0.430555575,-0.318518531,1,0,0,0.0667,submitButton,3.260744811,0.415740873,-0.324074086,0,0,0,1,45,105,31,1,47,69139,blockP,180,2022-02-16_17h08.45.359,orientation adjustment blockP,2021.2.3,Win32,60.17571308,,,,,,,
,,,,,,,,,,,,,,,,,,,,,,37.22222222,36,20,75,47.22222222,11.22222222,4.488888889,0.336111129,-0.316666735,1,0,0,0.0718,submitButton,3.274094203,0.209259276,-0.261111179,0,0,0,1,46,106,20,1,36,69139,blockP,180,2022-02-16_17h08.45.359,orientation adjustment blockP,2021.2.3,Win32,60.17571308,,,,,,,
,,,,,,,,,,,,,,,,,,,,,,-38.88888889,18,20,75,20.11111111,2.111111111,0.844444444,-0.297222213,-0.39166668,1,0,0,1.1831,submitButton,3.247968937,0.120370385,-0.264814826,0,0,0,1,47,107,2,1,18,69139,blockP,180,2022-02-16_17h08.45.359,orientation adjustment blockP,2021.2.3,Win32,60.17571308,,,,,,,
,,,,,,,,,,,,,,,,,,,,,,-27.77777778,62,20,75,61.22222222,0.777777778,0.311111111,0.237037054,-0.303703716,1,0,0,0.1949,submitButton,3.216725768,-0.086111043,-0.353703773,0,0,0,1,48,108,46,1,62,69139,blockP,180,2022-02-16_17h08.45.359,orientation adjustment blockP,2021.2.3,Win32,60.17571308,,,,,,,
,,,,,,,,,,,,,,,,,,,,,,41.11111111,50,20,75,61.11111111,11.11111111,4.444444444,0.377777797,-0.293518587,1,0,0,0.6115,submitButton,3.229649123,0.053703718,-0.300925938,0,0,0,1,49,109,34,1,50,69139,blockP,180,2022-02-16_17h08.45.359,orientation adjustment blockP,2021.2.3,Win32,60.17571308,,,,,,,
,,,,,,,,,,,,,,,,,,,,,,65,-45,20,75,-43,2,0.8,-0.255555546,-0.400925939,1,0,0,1.8374,submitButton,3.204340278,0.032407421,-0.32314816,0,0,0,1,50,110,29,1,45,69139,blockP,180,2022-02-16_17h08.45.359,orientation adjustment blockP,2021.2.3,Win32,60.17571308,,,,,,,
,,,,,,,,,,,,,,,,,,,,,,45,-26,20,75,-26,0,0,0.429629762,-0.248148159,1,0,0,0.1335,submitButton,3.171305842,-0.015740728,-0.350000013,0,0,0,1,51,111,10,1,26,69139,blockP,180,2022-02-16_17h08.45.359,orientation adjustment blockP,2021.2.3,Win32,60.17571308,,,,,,,
,,,,,,,,,,,,,,,,,,,,,,-25.55555556,-30,20,75,-26.55555556,3.444444444,1.377777778,0.137037052,-0.305555568,1,0,0,1.4774,submitButton,3.153004535,0.247222239,-0.266666678,0,0,0,1,52,112,14,1,30,69139,blockP,180,2022-02-16_17h08.45.359,orientation adjustment blockP,2021.2.3,Win32,60.17571308,,,,,,,
,,,,,,,,,,,,,,,,,,,,,,-71.66666667,64,20,75,57.33333333,6.666666667,2.666666667,0.389814834,-0.321296365,1,0,0,1.2769,submitButton,3.148092031,-0.109259191,-0.35740742,0,0,0,1,53,113,48,1,64,69139,blockP,180,2022-02-16_17h08.45.359,orientation adjustment blockP,2021.2.3,Win32,60.17571308,,,,,,,
,,,,,,,,,,,,,,,,,,,,,,-30,-75,20,75,-55,20,13,0.176851868,-0.335185254,1,0,0,0.2615,submitButton,3.246611111,0.087962978,-0.265740809,0,0,0,1,54,114,59,1,75,69139,blockP,180,2022-02-16_17h08.45.359,orientation adjustment blockP,2021.2.3,Win32,60.17571308,,,,,,,
,,,,,,,,,,,,,,,,,,,,,,-26.11111111,41,20,75,42.88888889,1.888888889,0.755555556,0.119444459,-0.317592605,1,0,0,0.4007,submitButton,3.221947195,0.049074088,-0.39537044,0,0,0,1,55,115,25,1,41,69139,blockP,180,2022-02-16_17h08.45.359,orientation adjustment blockP,2021.2.3,Win32,60.17571308,,,,,,,
,,,,,,,,,,,,,,,,,,,,,,23.88888889,54,20,75,62.88888889,8.888888889,3.555555556,0.362962982,-0.310185197,1,0,0,0.1334,submitButton,3.225217865,-0.303703695,-0.422222236,0,0,0,1,56,116,38,1,54,69139,blockP,180,2022-02-16_17h08.45.359,orientation adjustment blockP,2021.2.3,Win32,60.17571308,,,,,,,
,,,,,,,,,,,,,,,,,,,,,,46.11111111,33,20,75,51.11111111,18.11111111,11.77222222,-0.335185177,-0.350925939,1,0,0,0.5394,submitButton,3.30819849,-0.171296286,-0.381481551,0,0,0,1,57,117,17,1,33,69139,blockP,180,2022-02-16_17h08.45.359,orientation adjustment blockP,2021.2.3,Win32,60.17571308,,,,,,,
,,,,,,,,,,,,,,,,,,,,,,21.11111111,56,20,75,58.11111111,2.111111111,0.844444444,0.383333465,-0.303703716,1,0,0,0.4337,submitButton,3.284508547,-0.246296287,-0.363888902,0,0,0,1,58,118,40,1,56,69139,blockP,180,2022-02-16_17h08.45.359,orientation adjustment blockP,2021.2.3,Win32,60.17571308,,,,,,,
,,,,,,,,,,,,,,,,,,,,,,-48.33333333,-29,20,75,-36.33333333,7.333333333,2.933333333,-0.358333325,-0.398148162,1,0,0,0.8828,submitButton,3.281164021,0.358333352,-0.389814828,1,0,0,1,59,119,13,1,29,69139,blockP,180,2022-02-16_17h08.45.359,orientation adjustment blockP,2021.2.3,Win32,60.17571308,continueButton,,,,,,
,,,,,,,,,,,,,,,,,,,,,,56.11111111,34,20,75,44.11111111,10.11111111,4.044444444,0.383333465,-0.293518587,1,0,0,1.1773,submitButton,3.28836478,-0.412962956,-0.422222236,0,0,0,2,0,120,18,1,34,69139,blockP,180,2022-02-16_17h08.45.359,orientation adjustment blockP,2021.2.3,Win32,60.17571308,,,,,,,
,,,,,,,,,,,,,,,,,,,,,,66.66666667,-73,20,75,-60.33333333,12.66666667,5.066666667,0.238888906,-0.300925938,1,0,0,1.7493,submitButton,3.304984424,-0.028703691,-0.36666668,0,0,0,2,1,121,57,1,73,69139,blockP,180,2022-02-16_17h08.45.359,orientation adjustment blockP,2021.2.3,Win32,60.17571308,,,,,,,
,,,,,,,,,,,,,,,,,,,,,,-49.44444444,72,20,75,69.55555556,2.444444444,0.977777778,-0.216666657,-0.367592662,1,0,0,0.9837,submitButton,3.283436214,-0.252777712,-0.402777791,0,0,0,2,2,122,56,1,72,69139,blockP,180,2022-02-16_17h08.45.359,orientation adjustment blockP,2021.2.3,Win32,60.17571308,,,,,,,
,,,,,,,,,,,,,,,,,,,,,,-48.88888889,-39,20,75,50.11111111,89.11111111,80.2,0.412962982,-0.301851864,1,0,0,2.7158,submitButton,3.989092762,-0.032407395,-0.36666668,0,0,0,2,3,123,23,1,39,69139,blockP,180,2022-02-16_17h08.45.359,orientation adjustment blockP,2021.2.3,Win32,60.17571308,,,,,,,
,,,,,,,,,,,,,,,,,,,,,,64.44444444,-49,20,75,-45.55555556,3.444444444,1.377777778,-0.274074065,-0.4046297,1,0,0,1.7494,submitButton,3.965353535,0.058333347,-0.373148161,0,0,0,2,4,124,33,1,49,69139,blockP,180,2022-02-16_17h08.45.359,orientation adjustment blockP,2021.2.3,Win32,60.17571308,,,,,,,
,,,,,,,,,,,,,,,,,,,,,,-57.22222222,-27,20,75,-29.22222222,2.222222222,0.888888889,0.207407424,-0.292592604,1,0,0,0.9108,submitButton,3.937637638,0.072222237,-0.329629642,0,0,0,2,5,125,11,1,27,69139,blockP,180,2022-02-16_17h08.45.359,orientation adjustment blockP,2021.2.3,Win32,60.17571308,,,,,,,
,,,,,,,,,,,,,,,,,,,,,,-37.22222222,32,20,75,22.77777778,9.222222222,3.688888889,-0.207407397,-0.386111181,1,0,0,0.4552,submitButton,3.935416667,0.057407478,-0.296296308,0,0,0,2,6,126,16,1,32,69139,blockP,180,2022-02-16_17h08.45.359,orientation adjustment blockP,2021.2.3,Win32,60.17571308,,,,,,,
,,,,,,,,,,,,,,,,,,,,,,-40.55555556,47,20,75,38.44444444,8.555555556,3.422222222,-0.276851843,-0.401851865,1,0,0,0.5334,submitButton,3.930875123,0.162037053,-0.272222234,0,0,0,2,7,127,31,1,47,69139,blockP,180,2022-02-16_17h08.45.359,orientation adjustment blockP,2021.2.3,Win32,60.17571308,,,,,,,
,,,,,,,,,,,,,,,,,,,,,,33.33333333,48,20,75,59.33333333,11.33333333,4.533333333,0.421296316,-0.295370382,1,0,0,0.728,submitButton,3.936159844,-0.13240734,-0.351851865,0,0,0,2,8,128,32,1,48,69139,blockP,180,2022-02-16_17h08.45.359,orientation adjustment blockP,2021.2.3,Win32,60.17571308,,,,,,,
,,,,,,,,,,,,,,,,,,,,,,20,-29,20,75,-30,1,0.4,-0.369444437,-0.385185198,1,0,0,0.95,submitButton,3.905410628,-0.080555544,-0.331481494,0,0,0,2,9,129,13,1,29,69139,blockP,180,2022-02-16_17h08.45.359,orientation adjustment blockP,2021.2.3,Win32,60.17571308,,,,,,,
,,,,,,,,,,,,,,,,,,,,,,-22.22222222,46,20,75,47.77777778,1.777777778,0.711111111,-0.289814749,-0.398148162,1,0,0,0.4384,submitButton,3.877873563,0.367592611,-0.191666733,0,0,0,2,10,130,30,1,46,69139,blockP,180,2022-02-16_17h08.45.359,orientation adjustment blockP,2021.2.3,Win32,60.17571308,,,,,,,
,,,,,,,,,,,,,,,,,,,,,,-64.44444444,69,20,75,66.55555556,2.444444444,0.977777778,0.39537039,-0.297222234,1,0,0,1.311,submitButton,3.85308642,-0.149999989,-0.356481494,0,0,0,2,11,131,53,1,69,69139,blockP,180,2022-02-16_17h08.45.359,orientation adjustment blockP,2021.2.3,Win32,60.17571308,,,,,,,
,,,,,,,,,,,,,,,,,,,,,,-45,68,20,75,71,3,1.2,0.160185201,-0.282407419,1,0,0,0.345,submitButton,3.830602637,-0.157407397,-0.350000013,0,0,0,2,12,132,52,1,68,69139,blockP,180,2022-02-16_17h08.45.359,orientation adjustment blockP,2021.2.3,Win32,60.17571308,,,,,,,
,,,,,,,,,,,,,,,,,,,,,,-53.88888889,-18,20,75,-17.88888889,0.111111111,0.044444444,0.176851868,-0.280555567,1,0,0,0.5333,submitButton,3.798786181,-0.282407398,-0.414814828,0,0,0,2,13,133,2,1,18,69139,blockP,180,2022-02-16_17h08.45.359,orientation adjustment blockP,2021.2.3,Win32,60.17571308,,,,,,,
,,,,,,,,,,,,,,,,,,,,,,-48.33333333,-22,20,75,-15.33333333,6.666666667,2.666666667,0.172222238,-0.302777846,1,0,0,1.2326,submitButton,3.789351852,0.360185317,-0.377777791,1,0,0,2,14,134,6,1,22,69139,blockP,180,2022-02-16_17h08.45.359,orientation adjustment blockP,2021.2.3,Win32,60.17571308,continueButton,,,,,,
,,,,,,,,,,,,,,,,,,,,,,-74.44444444,37,20,75,36.55555556,0.444444444,0.177777778,0.183333349,-0.303703716,1,0,0,0.3341,submitButton,3.759504132,-0.281481472,-0.390740811,0,0,0,2,15,135,21,1,37,69139,blockP,180,2022-02-16_17h08.45.359,orientation adjustment blockP,2021.2.3,Win32,60.17571308,,,,,,,
,,,,,,,,,,,,,,,,,,,,,,70,66,20,75,247,1,0.4,-0.363888881,-0.401851865,1,0,0,2.3816,submitButton,3.731967213,0.168518534,-0.301851864,0,0,0,2,16,136,50,1,66,69139,blockP,180,2022-02-16_17h08.45.359,orientation adjustment blockP,2021.2.3,Win32,60.17571308,,,,,,,
,,,,,,,,,,,,,,,,,,,,,,-73.88888889,44,20,75,52.11111111,8.111111111,3.244444444,-0.201851785,-0.36666668,1,0,0,1.7614,submitButton,3.728003613,0.336111129,-0.287962975,0,0,0,2,17,137,28,1,44,69139,blockP,180,2022-02-16_17h08.45.359,orientation adjustment blockP,2021.2.3,Win32,60.17571308,,,,,,,
,,,,,,,,,,,,,,,,,,,,,,53.88888889,36,20,75,58.88888889,22.88888889,14.87777778,0.200925942,-0.301851864,1,0,0,1.1997,submitButton,3.817921147,-0.067592524,-0.348148161,0,0,0,2,18,138,20,1,36,69139,blockP,180,2022-02-16_17h08.45.359,orientation adjustment blockP,2021.2.3,Win32,60.17571308,,,,,,,
,,,,,,,,,,,,,,,,,,,,,,44.44444444,43,20,75,57.44444444,14.44444444,5.777777778,0.430555575,-0.289814827,1,0,0,0.0781,submitButton,3.8336,-0.347222214,-0.401851865,0,0,0,2,19,139,27,1,43,69139,blockP,180,2022-02-16_17h08.45.359,orientation adjustment blockP,2021.2.3,Win32,60.17571308,,,,,,,
,,,,,,,,,,,,,,,,,,,,,,49.44444444,65,20,75,65.44444444,0.444444444,0.177777778,0.19907409,-0.283333345,1,0,0,1.4708,submitButton,3.804585538,-0.247222213,-0.406481495,0,0,0,2,20,140,49,1,65,69139,blockP,180,2022-02-16_17h08.45.359,orientation adjustment blockP,2021.2.3,Win32,60.17571308,,,,,,,
,,,,,,,,,,,,,,,,,,,,,,-50.55555556,-38,20,75,-40.55555556,2.555555556,1.022222222,0.185185201,-0.295370382,1,0,0,0.6666,submitButton,3.782677165,-0.036111098,-0.33703705,0,0,0,2,21,141,22,1,38,69139,blockP,180,2022-02-16_17h08.45.359,orientation adjustment blockP,2021.2.3,Win32,60.17571308,,,,,,,
,,,,,,,,,,,,,,,,,,,,,,-65.55555556,-56,20,75,-53.55555556,2.444444444,0.977777778,-0.283333324,-0.388888902,1,0,0,0.8945,submitButton,3.760763889,0.225925943,-0.356481494,0,0,0,2,22,142,40,1,56,69139,blockP,180,2022-02-16_17h08.45.359,orientation adjustment blockP,2021.2.3,Win32,60.17571308,,,,,,,
,,,,,,,,,,,,,,,,,,,,,,32.22222222,-19,20,75,-16.77777778,2.222222222,0.888888889,-0.32314814,-0.373148161,1,0,0,1.0279,submitButton,3.738501292,-0.32314814,-0.373148161,0,0,0,2,23,143,3,1,19,69139,blockP,180,2022-02-16_17h08.45.359,orientation adjustment blockP,2021.2.3,Win32,60.17571308,,,,,,,
,,,,,,,,,,,,,,,,,,,,,,-67.22222222,-45,20,75,-223.2222222,1.777777778,0.711111111,0.392592725,-0.301851864,1,0,0,1.3612,submitButton,3.715213675,-0.299999991,-0.423148218,0,0,0,2,24,144,29,1,45,69139,blockP,180,2022-02-16_17h08.45.359,orientation adjustment blockP,2021.2.3,Win32,60.17571308,,,,,,,
,,,,,,,,,,,,,,,,,,,,,,42.22222222,-41,20,75,-32.77777778,8.222222222,3.288888889,-0.398148141,-0.393518532,1,0,0,0.612,submitButton,3.711959288,0.179629646,-0.315740753,0,0,0,2,25,145,25,1,41,69139,blockP,180,2022-02-16_17h08.45.359,orientation adjustment blockP,2021.2.3,Win32,60.17571308,,,,,,,
,,,,,,,,,,,,,,,,,,,,,,49.44444444,50,20,75,62.44444444,12.44444444,4.977777778,0.391666686,-0.306481493,1,0,0,0.067,submitButton,3.721548822,-0.324074066,-0.398148162,0,0,0,2,26,146,34,1,50,69139,blockP,180,2022-02-16_17h08.45.359,orientation adjustment blockP,2021.2.3,Win32,60.17571308,,,,,,,
,,,,,,,,,,,,,,,,,,,,,,-59.44444444,24,20,75,29.55555556,5.555555556,2.222222222,0.177777794,-0.286111123,1,0,0,1.2661,submitButton,3.710275689,-0.294444379,-0.39166668,0,0,0,2,27,147,8,1,24,69139,blockP,180,2022-02-16_17h08.45.359,orientation adjustment blockP,2021.2.3,Win32,60.17571308,,,,,,,
,,,,,,,,,,,,,,,,,,,,,,-55.55555556,-64,20,75,-244.5555556,0.555555556,0.222222222,0.414814834,-0.275925937,1,0,0,1.4992,submitButton,3.684245439,-0.290740732,-0.400925939,0,0,0,2,28,148,48,1,64,69139,blockP,180,2022-02-16_17h08.45.359,orientation adjustment blockP,2021.2.3,Win32,60.17571308,,,,,,,
,,,,,,,,,,,,,,,,,,,,,,-25.55555556,-74,20,75,-71.55555556,2.444444444,0.977777778,-0.312037028,-0.40000007,1,0,0,0.8332,submitButton,3.664197531,0.325925944,-0.397222236,1,0,0,2,29,149,58,1,74,69139,blockP,180,2022-02-16_17h08.45.359,orientation adjustment blockP,2021.2.3,Win32,60.17571308,continueButton,,,,,,
,,,,,,,,,,,,,,,,,,,,,,-56.11111111,31,20,75,-89.11111111,59.88888889,50.90555556,0.424074094,-0.304629642,1,0,0,0.033,submitButton,4.011560458,-0.374999992,-0.393518532,0,0,0,2,30,150,15,1,31,69139,blockP,180,2022-02-16_17h08.45.359,orientation adjustment blockP,2021.2.3,Win32,60.17571308,,,,,,,
,,,,,,,,,,,,,,,,,,,,,,-47.77777778,-40,20,75,-53.77777778,13.77777778,5.511111111,-0.338888881,-0.386111181,1,0,0,0.5111,submitButton,4.022506083,0.276851869,-0.2138889,0,0,0,2,31,151,24,1,40,69139,blockP,180,2022-02-16_17h08.45.359,orientation adjustment blockP,2021.2.3,Win32,60.17571308,,,,,,,
,,,,,,,,,,,,,,,,,,,,,,-32.77777778,17,20,75,9.222222222,7.777777778,3.111111111,0.209259276,-0.289814827,1,0,0,0.4001,submitButton,4.015901771,0.104629644,-0.373148161,0,0,0,2,32,152,1,1,17,69139,blockP,180,2022-02-16_17h08.45.359,orientation adjustment blockP,2021.2.3,Win32,60.17571308,,,,,,,
,,,,,,,,,,,,,,,,,,,,,,46.66666667,-55,20,75,-54.33333333,0.666666667,0.266666667,0.389814834,-0.300925938,1,0,0,0.5885,submitButton,3.988928857,-0.028703691,-0.36666668,0,0,0,2,33,153,39,1,55,69139,blockP,180,2022-02-16_17h08.45.359,orientation adjustment blockP,2021.2.3,Win32,60.17571308,,,,,,,
,,,,,,,,,,,,,,,,,,,,,,-55.55555556,28,20,75,20.44444444,7.555555556,3.022222222,-0.233333324,-0.413888959,1,0,0,0.7499,submitButton,3.98202381,0.230555572,-0.187037104,0,0,0,2,34,154,12,1,28,69139,blockP,180,2022-02-16_17h08.45.359,orientation adjustment blockP,2021.2.3,Win32,60.17571308,,,,,,,
,,,,,,,,,,,,,,,,,,,,,,72.77777778,-51,20,75,-44.22222222,6.777777778,2.711111111,-0.249074065,-0.39629631,1,0,0,1.2173,submitButton,3.973010244,0.005555569,-0.350925939,0,0,0,2,35,155,35,1,51,69139,blockP,180,2022-02-16_17h08.45.359,orientation adjustment blockP,2021.2.3,Win32,60.17571308,,,,,,,
,,,,,,,,,,,,,,,,,,,,,,-61.66666667,-62,20,75,-230.6666667,11.33333333,4.533333333,0.389814834,-0.288888957,1,0,0,1.3162,submitButton,3.976956182,-0.307407399,-0.39166668,0,0,0,2,36,156,46,1,62,69139,blockP,180,2022-02-16_17h08.45.359,orientation adjustment blockP,2021.2.3,Win32,60.17571308,,,,,,,
,,,,,,,,,,,,,,,,,,,,,,46.11111111,-75,20,75,-65.88888889,9.111111111,3.644444444,0.163888905,-0.286111123,1,0,0,0.6835,submitButton,3.974630925,-0.391666659,-0.398148162,0,0,0,2,37,157,59,1,75,69139,blockP,180,2022-02-16_17h08.45.359,orientation adjustment blockP,2021.2.3,Win32,60.17571308,,,,,,,
,,,,,,,,,,,,,,,,,,,,,,-55.55555556,63,20,75,60.44444444,2.555555556,1.022222222,0.212962979,-0.342592605,1,0,0,0.1387,submitButton,3.954128086,-0.428703697,-0.419444458,0,0,0,2,38,158,47,1,63,69139,blockP,180,2022-02-16_17h08.45.359,orientation adjustment blockP,2021.2.3,Win32,60.17571308,,,,,,,
,,,,,,,,,,,,,,,,,,,,,,-44.44444444,-23,20,75,-17.44444444,5.555555556,2.222222222,0.325925944,-0.302777846,1,0,0,1.0998,submitButton,3.942183908,-0.368518511,-0.394444458,0,0,0,2,39,159,7,1,23,69139,blockP,180,2022-02-16_17h08.45.359,orientation adjustment blockP,2021.2.3,Win32,60.17571308,,,,,,,
,,,,,,,,,,,,,,,,,,,,,,-66.66666667,52,20,75,52.33333333,0.333333333,0.133333333,0.17407409,-0.292592604,1,0,0,1.0622,submitButton,3.91609589,-0.393518511,-0.415740754,0,0,0,2,40,160,36,1,52,69139,blockP,180,2022-02-16_17h08.45.359,orientation adjustment blockP,2021.2.3,Win32,60.17571308,,,,,,,
,,,,,,,,,,,,,,,,,,,,,,-67.22222222,-25,20,75,-19.22222222,5.777777778,2.311111111,0.237037054,-0.275925937,1,0,0,0.0673,submitButton,3.905177627,-0.277777769,-0.372222292,0,0,0,2,41,161,9,1,25,69139,blockP,180,2022-02-16_17h08.45.359,orientation adjustment blockP,2021.2.3,Win32,60.17571308,,,,,,,
,,,,,,,,,,,,,,,,,,,,,,38.33333333,-35,20,75,-26.66666667,8.333333333,3.333333333,0.224074091,-0.262962974,1,0,0,0.7611,submitButton,3.901313814,-0.41666666,-0.424074088,0,0,0,2,42,162,19,1,35,69139,blockP,180,2022-02-16_17h08.45.359,orientation adjustment blockP,2021.2.3,Win32,60.17571308,,,,,,,
,,,,,,,,,,,,,,,,,,,,,,-32.77777778,20,20,75,20.22222222,0.222222222,0.088888889,0.38611113,-0.303703716,1,0,0,0.2005,submitButton,3.875727069,-0.366666659,-0.375000013,0,0,0,2,43,163,4,1,20,69139,blockP,180,2022-02-16_17h08.45.359,orientation adjustment blockP,2021.2.3,Win32,60.17571308,,,,,,,
,,,,,,,,,,,,,,,,,,,,,,-46.66666667,-33,20,75,-33.66666667,0.666666667,0.266666667,0.184259275,-0.275925937,1,0,0,0.711,submitButton,3.851666667,0.243518535,-0.39166668,1,0,0,2,44,164,17,1,33,69139,blockP,180,2022-02-16_17h08.45.359,orientation adjustment blockP,2021.2.3,Win32,60.17571308,continueButton,,,,,,
,,,,,,,,,,,,,,,,,,,,,,55.55555556,61,20,75,149.5555556,88.55555556,79.7,0.215740757,-0.26851853,1,0,0,0.062,submitButton,4.35397351,-0.233333324,-0.420370384,0,0,0,2,45,165,45,1,61,69139,blockP,180,2022-02-16_17h08.45.359,orientation adjustment blockP,2021.2.3,Win32,60.17571308,,,,,,,
,,,,,,,,,,,,,,,,,,,,,,-33.33333333,-57,20,75,-61.33333333,4.333333333,1.733333333,-0.231481472,-0.38703705,1,0,0,0.6834,submitButton,4.336732456,-0.231481472,-0.38703705,0,0,0,2,46,166,41,1,57,69139,blockP,180,2022-02-16_17h08.45.359,orientation adjustment blockP,2021.2.3,Win32,60.17571308,,,,,,,
,,,,,,,,,,,,,,,,,,,,,,45,16,20,75,18,2,0.8,0.414814834,-0.312962975,1,0,0,0.7443,submitButton,4.313616558,-0.306481473,-0.406481495,0,0,0,2,47,167,0,1,16,69139,blockP,180,2022-02-16_17h08.45.359,orientation adjustment blockP,2021.2.3,Win32,60.17571308,,,,,,,
,,,,,,,,,,,,,,,,,,,,,,-73.33333333,-21,20,75,-23.33333333,2.333333333,0.933333333,-0.213888879,-0.424074088,1,0,0,1.4162,submitButton,4.291666667,-0.213888879,-0.424074088,0,0,0,2,48,168,5,1,21,69139,blockP,180,2022-02-16_17h08.45.359,orientation adjustment blockP,2021.2.3,Win32,60.17571308,,,,,,,
,,,,,,,,,,,,,,,,,,,,,,58.33333333,71,20,75,243.3333333,7.666666667,3.066666667,-0.428703697,-0.408333347,1,0,0,2.1775,submitButton,4.283763441,0.140740756,-0.24722229,0,0,0,2,49,169,55,1,71,69139,blockP,180,2022-02-16_17h08.45.359,orientation adjustment blockP,2021.2.3,Win32,60.17571308,,,,,,,
,,,,,,,,,,,,,,,,,,,,,,70,-54,20,75,-53,1,0.4,-0.351851844,-0.433333347,1,0,0,1.0495,submitButton,4.258867521,-0.35277777,-0.407407421,0,0,0,2,50,170,38,1,54,69139,blockP,180,2022-02-16_17h08.45.359,orientation adjustment blockP,2021.2.3,Win32,60.17571308,,,,,,,
,,,,,,,,,,,,,,,,,,,,,,-63.88888889,60,20,75,45.11111111,14.88888889,5.955555556,-0.322222214,-0.393518532,1,0,0,0.7446,submitButton,4.269674452,0.036111125,-0.293518587,0,0,0,2,51,171,44,1,60,69139,blockP,180,2022-02-16_17h08.45.359,orientation adjustment blockP,2021.2.3,Win32,60.17571308,,,,,,,
,,,,,,,,,,,,,,,,,,,,,,53.88888889,53,20,75,216.8888889,16.11111111,10.47222222,-0.125925915,-0.337962975,1,0,0,1.9993,submitButton,4.308931083,0.088888903,-0.300925938,0,0,0,2,52,172,37,1,53,69139,blockP,180,2022-02-16_17h08.45.359,orientation adjustment blockP,2021.2.3,Win32,60.17571308,,,,,,,
,,,,,,,,,,,,,,,,,,,,,,-28.88888889,-42,20,75,-59.88888889,17.88888889,11.62777778,0.237037054,-0.288888957,1,0,0,0.0501,submitButton,4.354961565,-0.178703637,-0.393518532,0,0,0,2,53,173,26,1,42,69139,blockP,180,2022-02-16_17h08.45.359,orientation adjustment blockP,2021.2.3,Win32,60.17571308,,,,,,,
,,,,,,,,,,,,,,,,,,,,,,-37.77777778,26,20,75,32.22222222,6.222222222,2.488888889,0.360185317,-0.288888957,1,0,0,1.4774,submitButton,4.343298611,-0.282407398,-0.4046297,0,0,0,2,54,174,10,1,26,69139,blockP,180,2022-02-16_17h08.45.359,orientation adjustment blockP,2021.2.3,Win32,60.17571308,,,,,,,
,,,,,,,,,,,,,,,,,,,,,,-33.33333333,70,20,75,55.66666667,14.33333333,5.733333333,0.311111129,-0.262037048,1,0,0,0.3221,submitButton,4.351932367,-0.188888878,-0.334259272,0,0,0,2,55,175,54,1,70,69139,blockP,180,2022-02-16_17h08.45.359,orientation adjustment blockP,2021.2.3,Win32,60.17571308,,,,,,,
,,,,,,,,,,,,,,,,,,,,,,20.55555556,-30,20,75,-24.44444444,5.555555556,2.222222222,0.364814947,-0.299074086,1,0,0,0.0173,submitButton,4.338786008,0.38611113,-0.311111123,0,0,0,2,56,176,14,1,30,69139,blockP,180,2022-02-16_17h08.45.359,orientation adjustment blockP,2021.2.3,Win32,60.17571308,,,,,,,
,,,,,,,,,,,,,,,,,,,,,,-20.55555556,-59,20,75,-58.55555556,0.444444444,0.177777778,0.263888906,-0.27314816,1,0,0,0.0504,submitButton,4.31325835,-0.121296285,-0.423148218,0,0,0,2,57,177,43,1,59,69139,blockP,180,2022-02-16_17h08.45.359,orientation adjustment blockP,2021.2.3,Win32,60.17571308,,,,,,,
,,,,,,,,,,,,,,,,,,,,,,-47.22222222,-58,20,75,-61.22222222,3.222222222,1.288888889,-0.424074067,-0.376851921,1,0,0,0.5835,submitButton,4.294817073,0.192592609,-0.271296308,0,0,0,2,58,178,42,1,58,69139,blockP,180,2022-02-16_17h08.45.359,orientation adjustment blockP,2021.2.3,Win32,60.17571308,,,,,,,
,,,,,,,,,,,,,,,,,,,,,,33.33333333,67,20,75,70.33333333,3.333333333,1.333333333,0.23796298,-0.252777789,1,0,0,0.612,submitButton,4.276868687,-0.201851785,-0.374074087,0,0,0,2,59,179,51,1,67,69139,blockP,180,2022-02-16_17h08.45.359,orientation adjustment blockP,2021.2.3,Win32,60.17571308,,,,,,,
,,,,,,,,,,,,,,,,,,,,,,,,,,,,,,,,,,,,,,,,,,,,,,,,69139,blockP,180,2022-02-16_17h08.45.359,orientation adjustment blockP,2021.2.3,Win32,60.17571308,,0.412962982,-0.406481495,1,0,0,EndButtonTxt
