consentMouse1.x,consentMouse1.y,consentMouse1.leftButton,consentMouse1.midButton,consentMouse1.rightButton,consentMouse1.clicked_name,consent_Mouse.x,consent_Mouse.y,consent_Mouse.leftButton,consent_Mouse.midButton,consent_Mouse.rightButton,consent_Mouse.clicked_name,startMouse.x,startMouse.y,startMouse.leftButton,startMouse.midButton,startMouse.rightButton,startMouse_2.x,startMouse_2.y,startMouse_2.leftButton,startMouse_2.midButton,startMouse_2.rightButton,start_distance,fixedOri,minimalDistance,maxOri,this_ori,accuracy,presented_accuracy,submitMouse.x,submitMouse.y,submitMouse.leftButton,submitMouse.midButton,submitMouse.rightButton,submitMouse.time,submitMouse.clicked_name,block_accuracy,continueMouse.x,continueMouse.y,continueMouse.leftButton,continueMouse.midButton,continueMouse.rightButton,trials.thisRepN,trials.thisTrialN,trials.thisN,trials.thisIndex,trials.ran,startOri,participant,condition,nTrials,date,expName,psychopyVersion,OS,frameRate,continueMouse.clicked_name,EndButtonMouse.x,EndButtonMouse.y,EndButtonMouse.leftButton,EndButtonMouse.midButton,EndButtonMouse.rightButton,EndButtonMouse.clicked_name
0.329629648,-0.384259272,1,0,0,consent_button1,0.39074076,-0.4046297,1,0,0,consent_button,0.063888903,-0.237037048,1,0,0,0.063888903,-0.237037048,1,0,0,-59.44444444,72,20,75,129.5555556,57.55555556,48.92222222,0.186111127,-0.289814827,1,0,0,1.8644,submitButton,48.92222222,0.015740811,-0.246296307,0,0,0,0,0,0,56,1,72,69169,blockP,180,2022-02-11_21h29.54.456,orientation adjustment blockP,2021.2.3,Win32,60.87168249,,,,,,,
,,,,,,,,,,,,,,,,,,,,,,-72.77777778,-28,20,75,-206.7777778,1.222222222,0.488888889,0.405555575,-0.288888957,1,0,0,1.515,submitButton,24.70555556,0.172222238,-0.261111179,0,0,0,0,1,1,12,1,28,69169,blockP,180,2022-02-11_21h29.54.456,orientation adjustment blockP,2021.2.3,Win32,60.87168249,,,,,,,
,,,,,,,,,,,,,,,,,,,,,,-22.77777778,34,20,75,34.22222222,0.222222222,0.088888889,-0.356481474,-0.430555569,1,0,0,0.5483,submitButton,16.5,0.244444461,-0.309259271,0,0,0,0,2,2,18,1,34,69169,blockP,180,2022-02-11_21h29.54.456,orientation adjustment blockP,2021.2.3,Win32,60.87168249,,,,,,,
,,,,,,,,,,,,,,,,,,,,,,40.55555556,-60,20,75,-46.44444444,13.55555556,5.422222222,-0.480555521,-0.408333347,1,0,0,0.8015,submitButton,5.422222222,0.059259273,-0.321296365,0,0,0,0,3,3,44,1,60,69169,blockP,180,2022-02-11_21h29.54.456,orientation adjustment blockP,2021.2.3,Win32,60.87168249,,,,,,,
,,,,,,,,,,,,,,,,,,,,,,-57.22222222,-62,20,75,-246.2222222,4.222222222,1.688888889,0.417592612,-0.296296308,1,0,0,1.8029,submitButton,3.555555556,0.248148165,-0.311111123,0,0,0,0,4,4,46,1,62,69169,blockP,180,2022-02-11_21h29.54.456,orientation adjustment blockP,2021.2.3,Win32,60.87168249,,,,,,,
,,,,,,,,,,,,,,,,,,,,,,-68.88888889,-68,20,75,-243.8888889,4.111111111,1.644444444,-0.435185178,-0.394444458,1,0,0,2.0535,submitButton,2.918518519,0.253703721,-0.279629698,0,0,0,0,5,5,52,1,68,69169,blockP,180,2022-02-11_21h29.54.456,orientation adjustment blockP,2021.2.3,Win32,60.87168249,,,,,,,
,,,,,,,,,,,,,,,,,,,,,,-40.55555556,30,20,75,28.44444444,1.555555556,0.622222222,-0.440740734,-0.419444458,1,0,0,0.6014,submitButton,0.622222222,0.186111127,-0.275000068,0,0,0,0,6,6,14,1,30,69169,blockP,180,2022-02-11_21h29.54.456,orientation adjustment blockP,2021.2.3,Win32,60.87168249,,,,,,,
,,,,,,,,,,,,,,,,,,,,,,65,-58,20,75,-44,14,5.6,-0.502777772,-0.393518532,1,0,0,1.0676,submitButton,3.111111111,0.163888905,-0.279629698,0,0,0,0,7,7,42,1,58,69169,blockP,180,2022-02-11_21h29.54.456,orientation adjustment blockP,2021.2.3,Win32,60.87168249,,,,,,,
,,,,,,,,,,,,,,,,,,,,,,-49.44444444,56,20,75,46.55555556,9.444444444,3.777777778,-0.385185178,-0.379629643,1,0,0,0.6002,submitButton,3.333333333,0.242592609,-0.374074087,0,0,0,0,8,8,40,1,56,69169,blockP,180,2022-02-11_21h29.54.456,orientation adjustment blockP,2021.2.3,Win32,60.87168249,,,,,,,
,,,,,,,,,,,,,,,,,,,,,,-68.88888889,31,20,75,17.11111111,13.88888889,5.555555556,0.255555573,-0.312037106,1,0,0,0.6841,submitButton,5.555555556,-0.451851845,-0.418518589,0,0,0,0,9,9,15,1,31,69169,blockP,180,2022-02-11_21h29.54.456,orientation adjustment blockP,2021.2.3,Win32,60.87168249,,,,,,,
,,,,,,,,,,,,,,,,,,,,,,35.55555556,53,20,75,218.5555556,14.44444444,5.777777778,-0.417592586,-0.412962977,1,0,0,2.4368,submitButton,5.666666667,-0.018518506,-0.400925939,0,0,0,0,10,10,37,1,53,69169,blockP,180,2022-02-11_21h29.54.456,orientation adjustment blockP,2021.2.3,Win32,60.87168249,,,,,,,
,,,,,,,,,,,,,,,,,,,,,,-20.55555556,-57,20,75,-224.5555556,12.44444444,4.977777778,0.38611113,-0.293518587,1,0,0,2.0534,submitButton,5.437037037,0.02592594,-0.283333345,0,0,0,0,11,11,41,1,57,69169,blockP,180,2022-02-11_21h29.54.456,orientation adjustment blockP,2021.2.3,Win32,60.87168249,,,,,,,
,,,,,,,,,,,,,,,,,,,,,,-20,42,20,75,52,10,4,-0.380555548,-0.413888959,1,0,0,0.9844,submitButton,4,-0.067592524,-0.188888899,0,0,0,0,12,12,26,1,42,69169,blockP,180,2022-02-11_21h29.54.456,orientation adjustment blockP,2021.2.3,Win32,60.87168249,,,,,,,
,,,,,,,,,,,,,,,,,,,,,,55.55555556,59,20,75,225.5555556,13.44444444,5.377777778,-0.521296291,-0.403703717,1,0,0,2.1872,submitButton,4.688888889,0.315740759,-0.376851921,0,0,0,0,13,13,43,1,59,69169,blockP,180,2022-02-11_21h29.54.456,orientation adjustment blockP,2021.2.3,Win32,60.87168249,,,,,,,
,,,,,,,,,,,,,,,,,,,,,,56.11111111,-35,20,75,-25.88888889,9.111111111,3.644444444,-0.433333327,-0.374074087,1,0,0,1.5855,submitButton,4.340740741,0.320370388,-0.394444458,1,0,0,0,14,14,19,1,35,69169,blockP,180,2022-02-11_21h29.54.456,orientation adjustment blockP,2021.2.3,Win32,60.87168249,continueButton,,,,,,
,,,,,,,,,,,,,,,,,,,,,,27.22222222,-69,20,75,-74.77777778,5.777777778,2.311111111,-0.391666659,-0.451851866,1,0,0,1.2021,submitButton,2.311111111,-0.391666659,-0.422222236,0,0,0,0,15,15,53,1,69,69169,blockP,180,2022-02-11_21h29.54.456,orientation adjustment blockP,2021.2.3,Win32,60.87168249,,,,,,,
,,,,,,,,,,,,,,,,,,,,,,-70,-65,20,75,-257,12,4.8,0.405555575,-0.309259271,1,0,0,1.0519,submitButton,3.555555556,-0.392592585,-0.40000007,0,0,0,0,16,16,49,1,65,69169,blockP,180,2022-02-11_21h29.54.456,orientation adjustment blockP,2021.2.3,Win32,60.87168249,,,,,,,
,,,,,,,,,,,,,,,,,,,,,,38.88888889,-55,20,75,-56.11111111,1.111111111,0.444444444,0.389814834,-0.298148217,1,0,0,1.6186,submitButton,2.518518519,-0.467592586,-0.406481495,0,0,0,0,17,17,39,1,55,69169,blockP,180,2022-02-11_21h29.54.456,orientation adjustment blockP,2021.2.3,Win32,60.87168249,,,,,,,
,,,,,,,,,,,,,,,,,,,,,,53.33333333,-49,20,75,-46.66666667,2.333333333,0.933333333,0.360185317,-0.299074086,1,0,0,0.0658,submitButton,2.122222222,0.218518535,-0.326851864,0,0,0,0,18,18,33,1,49,69169,blockP,180,2022-02-11_21h29.54.456,orientation adjustment blockP,2021.2.3,Win32,60.87168249,,,,,,,
,,,,,,,,,,,,,,,,,,,,,,-21.11111111,44,20,75,40.88888889,3.111111111,1.244444444,0.194444461,-0.294444456,1,0,0,1.3183,submitButton,1.946666667,-0.305555547,-0.393518532,0,0,0,0,19,19,28,1,44,69169,blockP,180,2022-02-11_21h29.54.456,orientation adjustment blockP,2021.2.3,Win32,60.87168249,,,,,,,
,,,,,,,,,,,,,,,,,,,,,,-50.55555556,16,20,75,16.44444444,0.444444444,0.177777778,0.196296312,-0.295370382,1,0,0,0.0328,submitButton,1.651851852,0.293518536,-0.203703714,0,0,0,0,20,20,0,1,16,69169,blockP,180,2022-02-11_21h29.54.456,orientation adjustment blockP,2021.2.3,Win32,60.87168249,,,,,,,
,,,,,,,,,,,,,,,,,,,,,,39.44444444,25,20,75,200.4444444,4.555555556,1.822222222,0.224074091,-0.285185197,1,0,0,1.8035,submitButton,1.676190476,0.218518535,-0.244444456,0,0,0,0,21,21,9,1,25,69169,blockP,180,2022-02-11_21h29.54.456,orientation adjustment blockP,2021.2.3,Win32,60.87168249,,,,,,,
,,,,,,,,,,,,,,,,,,,,,,-23.88888889,-21,20,75,-23.88888889,2.888888889,1.155555556,0.220370387,-0.303703716,1,0,0,0.0662,submitButton,1.611111111,-0.434259224,-0.42129631,0,0,0,0,22,22,5,1,21,69169,blockP,180,2022-02-11_21h29.54.456,orientation adjustment blockP,2021.2.3,Win32,60.87168249,,,,,,,
,,,,,,,,,,,,,,,,,,,,,,41.66666667,73,20,75,234.6666667,18.33333333,11.91666667,-0.439814808,-0.375925939,1,0,0,5.3251,submitButton,2.75617284,-0.439814808,-0.375925939,0,0,0,0,23,23,57,1,73,69169,blockP,180,2022-02-11_21h29.54.456,orientation adjustment blockP,2021.2.3,Win32,60.87168249,,,,,,,
,,,,,,,,,,,,,,,,,,,,,,-53.33333333,-51,20,75,-229.3333333,1.666666667,0.666666667,0.398148167,-0.296296308,1,0,0,2.1036,submitButton,2.547222222,0.038888959,-0.014814822,0,0,0,0,24,24,35,1,51,69169,blockP,180,2022-02-11_21h29.54.456,orientation adjustment blockP,2021.2.3,Win32,60.87168249,,,,,,,
,,,,,,,,,,,,,,,,,,,,,,-74.44444444,52,20,75,48.55555556,3.444444444,1.377777778,0.221296313,-0.277777789,1,0,0,1.3531,submitButton,2.440909091,0.163888905,-0.161111121,0,0,0,0,25,25,36,1,52,69169,blockP,180,2022-02-11_21h29.54.456,orientation adjustment blockP,2021.2.3,Win32,60.87168249,,,,,,,
,,,,,,,,,,,,,,,,,,,,,,46.66666667,71,20,75,252.6666667,1.666666667,0.666666667,0.187962979,-0.292592604,1,0,0,1.7031,submitButton,2.293055556,0.262037054,-0.262037048,0,0,0,0,26,26,55,1,71,69169,blockP,180,2022-02-11_21h29.54.456,orientation adjustment blockP,2021.2.3,Win32,60.87168249,,,,,,,
,,,,,,,,,,,,,,,,,,,,,,40.55555556,-32,20,75,-24.44444444,7.555555556,3.022222222,-0.437962956,-0.40000007,1,0,0,0.5513,submitButton,2.349145299,0.024074088,-0.26851853,0,0,0,0,27,27,16,1,32,69169,blockP,180,2022-02-11_21h29.54.456,orientation adjustment blockP,2021.2.3,Win32,60.87168249,,,,,,,
,,,,,,,,,,,,,,,,,,,,,,57.77777778,-29,20,75,-21.22222222,7.777777778,3.111111111,-0.449074068,-0.418518589,1,0,0,1.018,submitButton,2.403571429,0.052777848,0.073148114,0,0,0,0,28,28,13,1,29,69169,blockP,180,2022-02-11_21h29.54.456,orientation adjustment blockP,2021.2.3,Win32,60.87168249,,,,,,,
,,,,,,,,,,,,,,,,,,,,,,56.11111111,-63,20,75,-69.88888889,6.888888889,2.755555556,-0.408333326,-0.402777791,1,0,0,1.0517,submitButton,2.427037037,0.32685187,-0.387962976,1,0,0,0,29,29,47,1,63,69169,blockP,180,2022-02-11_21h29.54.456,orientation adjustment blockP,2021.2.3,Win32,60.87168249,continueButton,,,,,,
,,,,,,,,,,,,,,,,,,,,,,66.11111111,26,20,75,207.1111111,1.111111111,0.444444444,-0.399999993,-0.39166668,1,0,0,2.1368,submitButton,2.303125,0.225000017,-0.276851863,0,0,0,0,30,30,10,1,26,69169,blockP,180,2022-02-11_21h29.54.456,orientation adjustment blockP,2021.2.3,Win32,60.87168249,,,,,,,
,,,,,,,,,,,,,,,,,,,,,,-41.11111111,46,20,75,47.88888889,1.888888889,0.755555556,-0.279629621,-0.39629631,1,0,0,0.3496,submitButton,2.212091503,0.061111125,-0.286111123,0,0,0,0,31,31,30,1,46,69169,blockP,180,2022-02-11_21h29.54.456,orientation adjustment blockP,2021.2.3,Win32,60.87168249,,,,,,,
,,,,,,,,,,,,,,,,,,,,,,-57.77777778,38,20,75,32.22222222,5.777777778,2.311111111,-0.341666659,-0.393518532,1,0,0,0.4502,submitButton,2.217592593,0.213888905,-0.265740809,0,0,0,0,32,32,22,1,38,69169,blockP,180,2022-02-11_21h29.54.456,orientation adjustment blockP,2021.2.3,Win32,60.87168249,,,,,,,
,,,,,,,,,,,,,,,,,,,,,,-57.22222222,23,20,75,25.77777778,2.777777778,1.111111111,-0.426851845,-0.408333347,1,0,0,0.5505,submitButton,2.159356725,0.128703719,-0.300925938,0,0,0,0,33,33,7,1,23,69169,blockP,180,2022-02-11_21h29.54.456,orientation adjustment blockP,2021.2.3,Win32,60.87168249,,,,,,,
,,,,,,,,,,,,,,,,,,,,,,-21.11111111,-24,20,75,-31.11111111,7.111111111,2.844444444,0.212962979,-0.297222234,1,0,0,0.3668,submitButton,2.193611111,0.084259274,-0.26851853,0,0,0,0,34,34,8,1,24,69169,blockP,180,2022-02-11_21h29.54.456,orientation adjustment blockP,2021.2.3,Win32,60.87168249,,,,,,,
,,,,,,,,,,,,,,,,,,,,,,46.66666667,20,20,75,208.6666667,8.666666667,3.466666667,-0.412962956,-0.39629631,1,0,0,2.7049,submitButton,2.254232804,0.231481498,-0.194444455,0,0,0,0,35,35,4,1,20,69169,blockP,180,2022-02-11_21h29.54.456,orientation adjustment blockP,2021.2.3,Win32,60.87168249,,,,,,,
,,,,,,,,,,,,,,,,,,,,,,-73.88888889,-66,20,75,-244.8888889,1.111111111,0.444444444,-0.399074067,-0.388888902,1,0,0,1.8199,submitButton,2.171969697,0.045370384,-0.202777788,0,0,0,0,36,36,50,1,66,69169,blockP,180,2022-02-11_21h29.54.456,orientation adjustment blockP,2021.2.3,Win32,60.87168249,,,,,,,
,,,,,,,,,,,,,,,,,,,,,,32.77777778,48,20,75,59.77777778,11.77777778,4.711111111,0.436111131,-0.286111123,1,0,0,0.217,submitButton,2.28236715,-0.337962955,-0.410185199,0,0,0,0,37,37,32,1,48,69169,blockP,180,2022-02-11_21h29.54.456,orientation adjustment blockP,2021.2.3,Win32,60.87168249,,,,,,,
,,,,,,,,,,,,,,,,,,,,,,-43.33333333,45,20,75,42.66666667,2.333333333,0.933333333,0.180555571,-0.281481493,1,0,0,1.3355,submitButton,2.226157407,0.257407424,-0.112037046,0,0,0,0,38,38,29,1,45,69169,blockP,180,2022-02-11_21h29.54.456,orientation adjustment blockP,2021.2.3,Win32,60.87168249,,,,,,,
,,,,,,,,,,,,,,,,,,,,,,-33.33333333,-67,20,75,-68.33333333,1.333333333,0.533333333,0.101851867,-0.324074086,1,0,0,0.3841,submitButton,2.158444444,-0.311111103,-0.382407421,0,0,0,0,39,39,51,1,67,69169,blockP,180,2022-02-11_21h29.54.456,orientation adjustment blockP,2021.2.3,Win32,60.87168249,,,,,,,
,,,,,,,,,,,,,,,,,,,,,,61.66666667,-40,20,75,-33.33333333,6.666666667,2.666666667,0.406481614,-0.281481493,1,0,0,0.6845,submitButton,2.177991453,0.145370386,-0.083333342,0,0,0,0,40,40,24,1,40,69169,blockP,180,2022-02-11_21h29.54.456,orientation adjustment blockP,2021.2.3,Win32,60.87168249,,,,,,,
,,,,,,,,,,,,,,,,,,,,,,-41.11111111,37,20,75,33.88888889,3.111111111,1.244444444,-0.434259224,-0.412037051,1,0,0,0.55,submitButton,2.143415638,-0.194444434,-0.35277779,0,0,0,0,41,41,21,1,37,69169,blockP,180,2022-02-11_21h29.54.456,orientation adjustment blockP,2021.2.3,Win32,60.87168249,,,,,,,
,,,,,,,,,,,,,,,,,,,,,,-32.22222222,33,20,75,27.77777778,5.222222222,2.088888889,-0.369444437,-0.406481495,1,0,0,0.3157,submitButton,2.141468254,0.148148164,-0.262962974,0,0,0,0,42,42,17,1,33,69169,blockP,180,2022-02-11_21h29.54.456,orientation adjustment blockP,2021.2.3,Win32,60.87168249,,,,,,,
,,,,,,,,,,,,,,,,,,,,,,-64.44444444,64,20,75,66.55555556,2.555555556,1.022222222,-0.367592585,-0.38703705,1,0,0,0.6166,submitButton,2.102873563,0.113888904,-0.2638889,0,0,0,0,43,43,48,1,64,69169,blockP,180,2022-02-11_21h29.54.456,orientation adjustment blockP,2021.2.3,Win32,60.87168249,,,,,,,
,,,,,,,,,,,,,,,,,,,,,,65,47,20,75,234,7,2.8,0.191666683,-0.301851864,1,0,0,1.136,submitButton,2.126111111,0.365740759,-0.407407421,1,0,0,0,44,44,31,1,47,69169,blockP,180,2022-02-11_21h29.54.456,orientation adjustment blockP,2021.2.3,Win32,60.87168249,continueButton,,,,,,
,,,,,,,,,,,,,,,,,,,,,,51.66666667,74,20,75,253.6666667,0.333333333,0.133333333,-0.425925919,-0.42592594,1,0,0,1.8702,submitButton,2.061827957,0.166666682,-0.296296308,0,0,0,0,45,45,58,1,74,69169,blockP,180,2022-02-11_21h29.54.456,orientation adjustment blockP,2021.2.3,Win32,60.87168249,,,,,,,
,,,,,,,,,,,,,,,,,,,,,,-26.66666667,19,20,75,19.33333333,0.333333333,0.133333333,-0.378703696,-0.38703705,1,0,0,0.3166,submitButton,2.0015625,0.183333349,-0.289814827,0,0,0,0,46,46,3,1,19,69169,blockP,180,2022-02-11_21h29.54.456,orientation adjustment blockP,2021.2.3,Win32,60.87168249,,,,,,,
,,,,,,,,,,,,,,,,,,,,,,31.11111111,-43,20,75,-34.88888889,8.111111111,3.244444444,-0.368518511,-0.411111125,1,0,0,0.2332,submitButton,2.039225589,0.281481499,-0.211111122,0,0,0,0,47,47,27,1,43,69169,blockP,180,2022-02-11_21h29.54.456,orientation adjustment blockP,2021.2.3,Win32,60.87168249,,,,,,,
,,,,,,,,,,,,,,,,,,,,,,59.44444444,-17,20,75,-15.55555556,1.444444444,0.577777778,0.214814831,-0.312037106,1,0,0,1.5867,submitButton,1.99624183,0.307407425,-0.175925936,0,0,0,0,48,48,1,1,17,69169,blockP,180,2022-02-11_21h29.54.456,orientation adjustment blockP,2021.2.3,Win32,60.87168249,,,,,,,
,,,,,,,,,,,,,,,,,,,,,,-61.11111111,-39,20,75,-215.1111111,3.888888889,1.555555556,-0.387962955,-0.42129631,1,0,0,2.0707,submitButton,1.983650794,-0.087037025,-0.347222235,0,0,0,0,49,49,23,1,39,69169,blockP,180,2022-02-11_21h29.54.456,orientation adjustment blockP,2021.2.3,Win32,60.87168249,,,,,,,
,,,,,,,,,,,,,,,,,,,,,,51.11111111,36,20,75,56.11111111,20.11111111,13.07222222,0.417592612,-0.280555567,1,0,0,0.6008,submitButton,2.291666667,0.197222238,-0.375000013,0,0,0,0,50,50,20,1,36,69169,blockP,180,2022-02-11_21h29.54.456,orientation adjustment blockP,2021.2.3,Win32,60.87168249,,,,,,,
,,,,,,,,,,,,,,,,,,,,,,54.44444444,-50,20,75,119.4444444,10.55555556,4.222222222,0.202777794,-0.293518587,1,0,0,0.2331,submitButton,2.343843844,-0.044444375,-0.292592604,0,0,0,0,51,51,34,1,50,69169,blockP,180,2022-02-11_21h29.54.456,orientation adjustment blockP,2021.2.3,Win32,60.87168249,,,,,,,
,,,,,,,,,,,,,,,,,,,,,,46.66666667,75,20,75,72.66666667,2.333333333,0.933333333,0.377777797,-0.295370382,1,0,0,0.0161,submitButton,2.306725146,-0.326851843,-0.410185199,0,0,0,0,52,52,59,1,75,69169,blockP,180,2022-02-11_21h29.54.456,orientation adjustment blockP,2021.2.3,Win32,60.87168249,,,,,,,
,,,,,,,,,,,,,,,,,,,,,,50.55555556,41,20,75,28.55555556,12.44444444,4.977777778,0.362037056,-0.300925938,1,0,0,1.0351,submitButton,2.375213675,-0.262962954,-0.422222236,0,0,0,0,53,53,25,1,41,69169,blockP,180,2022-02-11_21h29.54.456,orientation adjustment blockP,2021.2.3,Win32,60.87168249,,,,,,,
,,,,,,,,,,,,,,,,,,,,,,40.55555556,-70,20,75,-74.44444444,4.444444444,1.777777778,0.392592725,-0.305555568,1,0,0,1.6363,submitButton,2.360277778,-0.345370362,-0.394444458,0,0,0,0,54,54,54,1,70,69169,blockP,180,2022-02-11_21h29.54.456,orientation adjustment blockP,2021.2.3,Win32,60.87168249,,,,,,,
,,,,,,,,,,,,,,,,,,,,,,-75,22,20,75,16,6,2.4,-0.342592584,-0.429629643,1,0,0,1.4353,submitButton,2.361246612,0.07592594,0.008333326,0,0,0,0,55,55,6,1,22,69169,blockP,180,2022-02-11_21h29.54.456,orientation adjustment blockP,2021.2.3,Win32,60.87168249,,,,,,,
,,,,,,,,,,,,,,,,,,,,,,-25,27,20,75,25,2,0.8,-0.353703696,-0.397222236,1,0,0,0.7014,submitButton,2.324074074,0.429629762,0.102777772,0,0,0,0,56,56,11,1,27,69169,blockP,180,2022-02-11_21h29.54.456,orientation adjustment blockP,2021.2.3,Win32,60.87168249,,,,,,,
,,,,,,,,,,,,,,,,,,,,,,-45,18,20,75,14,4,1.6,0.394444464,-0.270370438,1,0,0,1.2016,submitButton,2.307235142,0.093518533,0.129629624,0,0,0,0,57,57,2,1,18,69169,blockP,180,2022-02-11_21h29.54.456,orientation adjustment blockP,2021.2.3,Win32,60.87168249,,,,,,,
,,,,,,,,,,,,,,,,,,,,,,56.11111111,61,20,75,260.1111111,19.11111111,12.42222222,0.221296313,-0.277777789,1,0,0,1.5532,submitButton,2.537121212,0.072222237,0.104629624,0,0,0,0,58,58,45,1,61,69169,blockP,180,2022-02-11_21h29.54.456,orientation adjustment blockP,2021.2.3,Win32,60.87168249,,,,,,,
,,,,,,,,,,,,,,,,,,,,,,30,-54,20,75,-56,2,0.8,-0.342592584,-0.431481495,1,0,0,0.7655,submitButton,2.498518519,0.399074093,-0.386111181,1,0,0,0,59,59,38,1,54,69169,blockP,180,2022-02-11_21h29.54.456,orientation adjustment blockP,2021.2.3,Win32,60.87168249,continueButton,,,,,,
,,,,,,,,,,,,,,,,,,,,,,-66.66666667,60,20,75,49.33333333,10.66666667,4.266666667,-0.362037029,-0.435185199,1,0,0,0.7322,submitButton,2.536956522,0.384259278,-0.219444512,0,0,0,1,0,60,44,1,60,69169,blockP,180,2022-02-11_21h29.54.456,orientation adjustment blockP,2021.2.3,Win32,60.87168249,,,,,,,
,,,,,,,,,,,,,,,,,,,,,,70.55555556,-74,20,75,-70.44444444,3.555555556,1.422222222,-0.338888881,-0.400925939,1,0,0,1.0826,submitButton,2.513238771,0.368518537,-0.260185197,0,0,0,1,1,61,58,1,74,69169,blockP,180,2022-02-11_21h29.54.456,orientation adjustment blockP,2021.2.3,Win32,60.87168249,,,,,,,
,,,,,,,,,,,,,,,,,,,,,,21.66666667,-67,20,75,-68.33333333,1.333333333,0.533333333,-0.360185177,-0.4046297,1,0,0,0.4828,submitButton,2.471990741,0.344444463,-0.233333401,0,0,0,1,2,62,51,1,67,69169,blockP,180,2022-02-11_21h29.54.456,orientation adjustment blockP,2021.2.3,Win32,60.87168249,,,,,,,
,,,,,,,,,,,,,,,,,,,,,,-66.66666667,55,20,75,42.33333333,12.66666667,5.066666667,0.211111128,-0.292592604,1,0,0,0.4,submitButton,2.524943311,0.312037055,-0.24351853,0,0,0,1,3,63,39,1,55,69169,blockP,180,2022-02-11_21h29.54.456,orientation adjustment blockP,2021.2.3,Win32,60.87168249,,,,,,,
,,,,,,,,,,,,,,,,,,,,,,36.66666667,58,20,75,249.6666667,11.66666667,4.666666667,0.191666683,-0.325000012,1,0,0,1.8885,submitButton,2.567777778,0.134259275,-0.183333344,0,0,0,1,4,64,42,1,58,69169,blockP,180,2022-02-11_21h29.54.456,orientation adjustment blockP,2021.2.3,Win32,60.87168249,,,,,,,
,,,,,,,,,,,,,,,,,,,,,,63.88888889,73,20,75,62.88888889,10.11111111,4.044444444,0.383333465,-0.306481493,1,0,0,0.3838,submitButton,2.596732026,0.100000015,-0.225000011,0,0,0,1,5,65,57,1,73,69169,blockP,180,2022-02-11_21h29.54.456,orientation adjustment blockP,2021.2.3,Win32,60.87168249,,,,,,,
,,,,,,,,,,,,,,,,,,,,,,-53.88888889,-36,20,75,-40.88888889,4.888888889,1.955555556,0.209259276,-0.307407476,1,0,0,0.2005,submitButton,2.584401709,0.232407424,-0.286111123,0,0,0,1,6,66,20,1,36,69169,blockP,180,2022-02-11_21h29.54.456,orientation adjustment blockP,2021.2.3,Win32,60.87168249,,,,,,,
,,,,,,,,,,,,,,,,,,,,,,44.44444444,-68,20,75,-45.55555556,22.44444444,14.58888889,0.412037056,-0.280555567,1,0,0,0.1999,submitButton,2.810901468,0.121296311,-0.394444458,0,0,0,1,7,67,52,1,68,69169,blockP,180,2022-02-11_21h29.54.456,orientation adjustment blockP,2021.2.3,Win32,60.87168249,,,,,,,
,,,,,,,,,,,,,,,,,,,,,,22.77777778,49,20,75,71.77777778,22.77777778,14.80555556,-0.346296288,-0.411111125,1,0,0,0.618,submitButton,3.033024691,0.147222238,-0.253703715,0,0,0,1,8,68,33,1,49,69169,blockP,180,2022-02-11_21h29.54.456,orientation adjustment blockP,2021.2.3,Win32,60.87168249,,,,,,,
,,,,,,,,,,,,,,,,,,,,,,43.33333333,-40,20,75,-34.66666667,5.333333333,2.133333333,0.402777797,-0.316666735,1,0,0,0.7176,submitButton,3.016666667,0.168518534,-0.285185197,0,0,0,1,9,69,24,1,40,69169,blockP,180,2022-02-11_21h29.54.456,orientation adjustment blockP,2021.2.3,Win32,60.87168249,,,,,,,
,,,,,,,,,,,,,,,,,,,,,,67.22222222,22,20,75,208.2222222,6.222222222,2.488888889,-0.341666659,-0.390740811,1,0,0,3.0222,submitButton,3.007242063,0.201851868,-0.294444456,0,0,0,1,10,70,6,1,22,69169,blockP,180,2022-02-11_21h29.54.456,orientation adjustment blockP,2021.2.3,Win32,60.87168249,,,,,,,
,,,,,,,,,,,,,,,,,,,,,,51.11111111,41,20,75,222.1111111,1.111111111,0.444444444,0.215740757,-0.331481494,1,0,0,0.0158,submitButton,2.962280702,0.078703718,-0.245370381,0,0,0,1,11,71,25,1,41,69169,blockP,180,2022-02-11_21h29.54.456,orientation adjustment blockP,2021.2.3,Win32,60.87168249,,,,,,,
,,,,,,,,,,,,,,,,,,,,,,-52.77777778,16,20,75,30.22222222,14.22222222,5.688888889,0.205555572,-0.321296365,1,0,0,0.8351,submitButton,3.009291188,0.190740757,-0.300000012,0,0,0,1,12,72,0,1,16,69169,blockP,180,2022-02-11_21h29.54.456,orientation adjustment blockP,2021.2.3,Win32,60.87168249,,,,,,,
,,,,,,,,,,,,,,,,,,,,,,38.33333333,48,20,75,51.33333333,3.333333333,1.333333333,0.399074093,-0.291666678,1,0,0,0.4341,submitButton,2.980885122,-0.112962951,-0.315740753,0,0,0,1,13,73,32,1,48,69169,blockP,180,2022-02-11_21h29.54.456,orientation adjustment blockP,2021.2.3,Win32,60.87168249,,,,,,,
,,,,,,,,,,,,,,,,,,,,,,33.88888889,25,20,75,30.88888889,5.888888889,2.355555556,0.427777797,-0.301851864,1,0,0,0.1332,submitButton,2.970462963,0.359259278,-0.413888959,1,0,0,1,14,74,9,1,25,69169,blockP,180,2022-02-11_21h29.54.456,orientation adjustment blockP,2021.2.3,Win32,60.87168249,continueButton,,,,,,
,,,,,,,,,,,,,,,,,,,,,,-69.44444444,30,20,75,25.55555556,4.444444444,1.777777778,0.394444464,-0.292592604,1,0,0,1.1353,submitButton,2.950910747,0.086111126,-0.101851861,0,0,0,1,15,75,14,1,30,69169,blockP,180,2022-02-11_21h29.54.456,orientation adjustment blockP,2021.2.3,Win32,60.87168249,,,,,,,
,,,,,,,,,,,,,,,,,,,,,,50.55555556,-26,20,75,-21.44444444,4.555555556,1.822222222,-0.449074068,-0.415740754,1,0,0,0.9351,submitButton,2.932706093,0.32685187,-0.27314816,0,0,0,1,16,76,10,1,26,69169,blockP,180,2022-02-11_21h29.54.456,orientation adjustment blockP,2021.2.3,Win32,60.87168249,,,,,,,
,,,,,,,,,,,,,,,,,,,,,,52.22222222,-65,20,75,-68.77777778,3.777777778,1.511111111,-0.356481474,-0.400925939,1,0,0,1.1013,submitButton,2.910141093,0.32222224,-0.298148217,0,0,0,1,17,77,49,1,65,69169,blockP,180,2022-02-11_21h29.54.456,orientation adjustment blockP,2021.2.3,Win32,60.87168249,,,,,,,
,,,,,,,,,,,,,,,,,,,,,,-75,72,20,75,63,9,3.6,-0.450925919,-0.40000007,1,0,0,1.1853,submitButton,2.920920139,0.223148165,-0.255555567,0,0,0,1,18,78,56,1,72,69169,blockP,180,2022-02-11_21h29.54.456,orientation adjustment blockP,2021.2.3,Win32,60.87168249,,,,,,,
,,,,,,,,,,,,,,,,,,,,,,-21.11111111,43,20,75,32.88888889,10.11111111,4.044444444,0.212962979,-0.306481493,1,0,0,0.1166,submitButton,2.938205128,0.235185202,-0.321296365,0,0,0,1,19,79,27,1,43,69169,blockP,180,2022-02-11_21h29.54.456,orientation adjustment blockP,2021.2.3,Win32,60.87168249,,,,,,,
,,,,,,,,,,,,,,,,,,,,,,-51.11111111,28,20,75,23.88888889,4.111111111,1.644444444,-0.364814807,-0.423148218,1,0,0,0.9183,submitButton,2.918602694,-0.364814807,-0.423148218,0,0,0,1,20,80,12,1,28,69169,blockP,180,2022-02-11_21h29.54.456,orientation adjustment blockP,2021.2.3,Win32,60.87168249,,,,,,,
,,,,,,,,,,,,,,,,,,,,,,-72.22222222,31,20,75,27.77777778,3.222222222,1.288888889,0.179629646,-0.306481493,1,0,0,0.4012,submitButton,2.894278607,0.230555572,-0.245370381,0,0,0,1,21,81,15,1,31,69169,blockP,180,2022-02-11_21h29.54.456,orientation adjustment blockP,2021.2.3,Win32,60.87168249,,,,,,,
,,,,,,,,,,,,,,,,,,,,,,-24.44444444,50,20,75,47.55555556,2.444444444,0.977777778,-0.346296288,-0.412962977,1,0,0,0.3169,submitButton,2.866094771,0.165740756,-0.172222232,0,0,0,1,22,82,34,1,50,69169,blockP,180,2022-02-11_21h29.54.456,orientation adjustment blockP,2021.2.3,Win32,60.87168249,,,,,,,
,,,,,,,,,,,,,,,,,,,,,,-63.88888889,-53,20,75,-230.8888889,2.111111111,0.844444444,-0.31388888,-0.40000007,1,0,0,2.0036,submitButton,2.836795491,0.213888905,-0.199074084,0,0,0,1,23,83,37,1,53,69169,blockP,180,2022-02-11_21h29.54.456,orientation adjustment blockP,2021.2.3,Win32,60.87168249,,,,,,,
,,,,,,,,,,,,,,,,,,,,,,-40.55555556,-38,20,75,-51.55555556,13.55555556,5.422222222,0.239814832,-0.284259327,1,0,0,0.1165,submitButton,2.873730159,0.117592608,-0.326851864,0,0,0,1,24,84,22,1,38,69169,blockP,180,2022-02-11_21h29.54.456,orientation adjustment blockP,2021.2.3,Win32,60.87168249,,,,,,,
,,,,,,,,,,,,,,,,,,,,,,25.55555556,-63,20,75,-58.44444444,4.555555556,1.822222222,-0.327777769,-0.412962977,1,0,0,0.768,submitButton,2.858920188,0.246296313,-0.287037049,0,0,0,1,25,85,47,1,63,69169,blockP,180,2022-02-11_21h29.54.456,orientation adjustment blockP,2021.2.3,Win32,60.87168249,,,,,,,
,,,,,,,,,,,,,,,,,,,,,,41.11111111,64,20,75,60.11111111,3.888888889,1.555555556,-0.353703696,-0.387962976,1,0,0,1.2861,submitButton,2.840817901,0.29722224,-0.262962974,0,0,0,1,26,86,48,1,64,69169,blockP,180,2022-02-11_21h29.54.456,orientation adjustment blockP,2021.2.3,Win32,60.87168249,,,,,,,
,,,,,,,,,,,,,,,,,,,,,,-55,-24,20,75,-32,8,3.2,-0.365740733,-0.418518589,1,0,0,1.3522,submitButton,2.845738204,0.095370385,-0.300925938,0,0,0,1,27,87,8,1,24,69169,blockP,180,2022-02-11_21h29.54.456,orientation adjustment blockP,2021.2.3,Win32,60.87168249,,,,,,,
,,,,,,,,,,,,,,,,,,,,,,-62.22222222,21,20,75,-165.2222222,6.222222222,2.488888889,0.369444576,-0.294444456,1,0,0,1.7037,submitButton,2.840915916,0.29259261,-0.23796303,0,0,0,1,28,88,5,1,21,69169,blockP,180,2022-02-11_21h29.54.456,orientation adjustment blockP,2021.2.3,Win32,60.87168249,,,,,,,
,,,,,,,,,,,,,,,,,,,,,,20.55555556,52,20,75,72.55555556,20.55555556,13.36111111,-0.349999992,-0.405555569,1,0,0,0.451,submitButton,2.981185185,0.296296314,-0.406481495,1,0,0,1,29,89,36,1,52,69169,blockP,180,2022-02-11_21h29.54.456,orientation adjustment blockP,2021.2.3,Win32,60.87168249,continueButton,,,,,,
,,,,,,,,,,,,,,,,,,,,,,-35,-51,20,75,-32,19,12.35,0.202777794,-0.300000012,1,0,0,0.2,submitButton,3.104459064,-0.071296284,-0.336111124,0,0,0,1,30,90,35,1,51,69169,blockP,180,2022-02-11_21h29.54.456,orientation adjustment blockP,2021.2.3,Win32,60.87168249,,,,,,,
,,,,,,,,,,,,,,,,,,,,,,-32.77777778,23,20,75,23.22222222,0.222222222,0.088888889,0.205555572,-0.306481493,1,0,0,0.0333,submitButton,3.065295815,-0.100925914,-0.300925938,0,0,0,1,31,91,7,1,23,69169,blockP,180,2022-02-11_21h29.54.456,orientation adjustment blockP,2021.2.3,Win32,60.87168249,,,,,,,
,,,,,,,,,,,,,,,,,,,,,,40,20,20,75,25,5,2,-0.336111103,-0.401851865,1,0,0,1.2192,submitButton,3.051638177,-0.057407395,-0.343518531,0,0,0,1,32,92,4,1,20,69169,blockP,180,2022-02-11_21h29.54.456,orientation adjustment blockP,2021.2.3,Win32,60.87168249,,,,,,,
,,,,,,,,,,,,,,,,,,,,,,-21.11111111,71,20,75,61.88888889,9.111111111,3.644444444,-0.315740732,-0.401851865,1,0,0,0.5683,submitButton,3.059142053,0.000925939,-0.27314816,0,0,0,1,33,93,55,1,71,69169,blockP,180,2022-02-11_21h29.54.456,orientation adjustment blockP,2021.2.3,Win32,60.87168249,,,,,,,
,,,,,,,,,,,,,,,,,,,,,,-35,46,20,75,40,6,2.4,-0.34814814,-0.39537044,1,0,0,0.735,submitButton,3.050902778,-0.113888821,-0.343518531,0,0,0,1,34,94,30,1,46,69169,blockP,180,2022-02-11_21h29.54.456,orientation adjustment blockP,2021.2.3,Win32,60.87168249,,,,,,,
,,,,,,,,,,,,,,,,,,,,,,23.88888889,35,20,75,40.88888889,5.888888889,2.355555556,0.421296316,-0.275925937,1,0,0,0.1498,submitButton,3.042318244,-0.01759258,-0.25185192,0,0,0,1,35,95,19,1,35,69169,blockP,180,2022-02-11_21h29.54.456,orientation adjustment blockP,2021.2.3,Win32,60.87168249,,,,,,,
,,,,,,,,,,,,,,,,,,,,,,-71.66666667,45,20,75,45.33333333,0.333333333,0.133333333,0.218518535,-0.310185197,1,0,0,0.9848,submitButton,3.006842818,0.073148162,-0.305555568,0,0,0,1,36,96,29,1,45,69169,blockP,180,2022-02-11_21h29.54.456,orientation adjustment blockP,2021.2.3,Win32,60.87168249,,,,,,,
,,,,,,,,,,,,,,,,,,,,,,-51.11111111,27,20,75,21.88888889,5.111111111,2.044444444,-0.31851851,-0.411111125,1,0,0,1.3521,submitButton,2.995247657,0.069444459,-0.278703715,0,0,0,1,37,97,11,1,27,69169,blockP,180,2022-02-11_21h29.54.456,orientation adjustment blockP,2021.2.3,Win32,60.87168249,,,,,,,
,,,,,,,,,,,,,,,,,,,,,,-36.66666667,62,20,75,53.33333333,8.666666667,3.466666667,0.264814832,-0.287962975,1,0,0,0.3004,submitButton,3.000859788,0.142592608,-0.262037048,0,0,0,1,38,98,46,1,62,69169,blockP,180,2022-02-11_21h29.54.456,orientation adjustment blockP,2021.2.3,Win32,60.87168249,,,,,,,
,,,,,,,,,,,,,,,,,,,,,,33.88888889,56,20,75,62.88888889,6.888888889,2.755555556,0.393518538,-0.288888957,1,0,0,0.166,submitButton,2.997973856,0.132407423,-0.17962964,0,0,0,1,39,99,40,1,56,69169,blockP,180,2022-02-11_21h29.54.456,orientation adjustment blockP,2021.2.3,Win32,60.87168249,,,,,,,
,,,,,,,,,,,,,,,,,,,,,,-46.66666667,-32,20,75,-30.66666667,1.333333333,0.533333333,0.187962979,-0.315740753,1,0,0,0.0167,submitButton,2.969315245,0.119444459,-0.023148156,0,0,0,1,40,100,16,1,32,69169,blockP,180,2022-02-11_21h29.54.456,orientation adjustment blockP,2021.2.3,Win32,60.87168249,,,,,,,
,,,,,,,,,,,,,,,,,,,,,,72.77777778,-17,20,75,-16.22222222,0.777777778,0.311111111,0.350000018,-0.310185197,1,0,0,0.0838,submitButton,2.938761175,-0.045370358,-0.02685186,0,0,0,1,41,101,1,1,17,69169,blockP,180,2022-02-11_21h29.54.456,orientation adjustment blockP,2021.2.3,Win32,60.87168249,,,,,,,
,,,,,,,,,,,,,,,,,,,,,,-60,37,20,75,26,11,4.4,-0.301851843,-0.397222236,1,0,0,1.1681,submitButton,2.955366162,0.097222237,0.105555521,0,0,0,1,42,102,21,1,37,69169,blockP,180,2022-02-11_21h29.54.456,orientation adjustment blockP,2021.2.3,Win32,60.87168249,,,,,,,
,,,,,,,,,,,,,,,,,,,,,,40.55555556,-34,20,75,-27.44444444,6.555555556,2.622222222,-0.37314814,-0.393518532,1,0,0,1.0017,submitButton,2.951622971,0.058333347,0.218518514,0,0,0,1,43,103,18,1,34,69169,blockP,180,2022-02-11_21h29.54.456,orientation adjustment blockP,2021.2.3,Win32,60.87168249,,,,,,,
,,,,,,,,,,,,,,,,,,,,,,75,-18,20,75,-21,3,1.2,-0.266666601,-0.400925939,1,0,0,2.0376,submitButton,2.932160494,0.300925944,-0.397222236,1,0,0,1,44,104,2,1,18,69169,blockP,180,2022-02-11_21h29.54.456,orientation adjustment blockP,2021.2.3,Win32,60.87168249,continueButton,,,,,,
,,,,,,,,,,,,,,,,,,,,,,56.11111111,-57,20,75,-67.88888889,10.88888889,4.355555556,-0.385185178,-0.422222236,1,0,0,1.3362,submitButton,2.947802198,0.107407422,0.013888882,0,0,0,1,45,105,41,1,57,69169,blockP,180,2022-02-11_21h29.54.456,orientation adjustment blockP,2021.2.3,Win32,60.87168249,,,,,,,
,,,,,,,,,,,,,,,,,,,,,,-50,39,20,75,42,3,1.2,-0.28518512,-0.40000007,1,0,0,1.2862,submitButton,2.928804348,0.420370503,-0.317592605,0,0,0,1,46,106,23,1,39,69169,blockP,180,2022-02-11_21h29.54.456,orientation adjustment blockP,2021.2.3,Win32,60.87168249,,,,,,,
,,,,,,,,,,,,,,,,,,,,,,31.66666667,-19,20,75,-23.33333333,4.333333333,1.733333333,-0.384259252,-0.412037051,1,0,0,0.7659,submitButton,2.915949821,0.052777848,0.104629624,0,0,0,1,47,107,3,1,19,69169,blockP,180,2022-02-11_21h29.54.456,orientation adjustment blockP,2021.2.3,Win32,60.87168249,,,,,,,
,,,,,,,,,,,,,,,,,,,,,,71.66666667,33,20,75,215.6666667,2.666666667,1.066666667,0.211111128,-0.333333346,1,0,0,1.4176,submitButton,2.896276596,0.156481497,-0.190740751,0,0,0,1,48,108,17,1,33,69169,blockP,180,2022-02-11_21h29.54.456,orientation adjustment blockP,2021.2.3,Win32,60.87168249,,,,,,,
,,,,,,,,,,,,,,,,,,,,,,65,-44,20,75,-60,16,10.4,-0.351851844,-0.39537044,1,0,0,1.7485,submitButton,2.975263158,0.146296312,-0.318518531,0,0,0,1,49,109,28,1,44,69169,blockP,180,2022-02-11_21h29.54.456,orientation adjustment blockP,2021.2.3,Win32,60.87168249,,,,,,,
,,,,,,,,,,,,,,,,,,,,,,-68.33333333,70,20,75,64.66666667,5.333333333,2.133333333,-0.341666659,-0.393518532,1,0,0,1.3154,submitButton,2.966493056,0.240740758,-0.257407419,0,0,0,1,50,110,54,1,70,69169,blockP,180,2022-02-11_21h29.54.456,orientation adjustment blockP,2021.2.3,Win32,60.87168249,,,,,,,
,,,,,,,,,,,,,,,,,,,,,,24.44444444,42,20,75,47.44444444,5.444444444,2.177777778,0.4666668,-0.295370382,1,0,0,0.0166,submitButton,2.95836197,0.227777794,-0.364814828,0,0,0,1,51,111,26,1,42,69169,blockP,180,2022-02-11_21h29.54.456,orientation adjustment blockP,2021.2.3,Win32,60.87168249,,,,,,,
,,,,,,,,,,,,,,,,,,,,,,28.33333333,-69,20,75,-64.66666667,4.333333333,1.733333333,-0.339814807,-0.394444458,1,0,0,0.5321,submitButton,2.945861678,0.107407422,-0.27314816,0,0,0,1,52,112,53,1,69,69169,blockP,180,2022-02-11_21h29.54.456,orientation adjustment blockP,2021.2.3,Win32,60.87168249,,,,,,,
,,,,,,,,,,,,,,,,,,,,,,-57.22222222,-29,20,75,-34.22222222,5.222222222,2.088888889,-0.331481473,-0.401851865,1,0,0,1.4197,submitButton,2.937205387,-0.055555543,-0.276851863,0,0,0,1,53,113,13,1,29,69169,blockP,180,2022-02-11_21h29.54.456,orientation adjustment blockP,2021.2.3,Win32,60.87168249,,,,,,,
,,,,,,,,,,,,,,,,,,,,,,50,59,20,75,63,4,1.6,0.375925945,-0.279629698,1,0,0,0.3008,submitButton,2.923833333,-0.115740729,-0.282407419,0,0,0,1,54,114,43,1,59,69169,blockP,180,2022-02-11_21h29.54.456,orientation adjustment blockP,2021.2.3,Win32,60.87168249,,,,,,,
,,,,,,,,,,,,,,,,,,,,,,-27.22222222,-75,20,75,-70.22222222,4.777777778,1.911111111,-0.390740733,-0.375000013,1,0,0,0.8351,submitButton,2.913806381,0.035185199,-0.286111123,0,0,0,1,55,115,59,1,75,69169,blockP,180,2022-02-11_21h29.54.456,orientation adjustment blockP,2021.2.3,Win32,60.87168249,,,,,,,
,,,,,,,,,,,,,,,,,,,,,,22.22222222,61,20,75,63.22222222,2.222222222,0.888888889,-0.374074066,-0.418518589,1,0,0,0.567,submitButton,2.893954248,-0.040740728,-0.276851863,0,0,0,1,56,116,45,1,61,69169,blockP,180,2022-02-11_21h29.54.456,orientation adjustment blockP,2021.2.3,Win32,60.87168249,,,,,,,
,,,,,,,,,,,,,,,,,,,,,,37.22222222,-66,20,75,-58.77777778,7.222222222,2.888888889,0.429629762,-0.274074086,1,0,0,0.2336,submitButton,2.89390507,0.057407478,-0.037962971,0,0,0,1,57,117,50,1,66,69169,blockP,180,2022-02-11_21h29.54.456,orientation adjustment blockP,2021.2.3,Win32,60.87168249,,,,,,,
,,,,,,,,,,,,,,,,,,,,,,-25.55555556,-54,20,75,-62.55555556,8.555555556,3.422222222,-0.376851844,-0.414814828,1,0,0,0.7847,submitButton,2.898985043,-0.242592583,-0.256481549,0,0,0,1,58,118,38,1,54,69169,blockP,180,2022-02-11_21h29.54.456,orientation adjustment blockP,2021.2.3,Win32,60.87168249,,,,,,,
,,,,,,,,,,,,,,,,,,,,,,-40,-47,20,75,-54,7,2.8,-0.342592584,-0.400925939,1,0,0,0.6345,submitButton,2.898042328,0.291666684,-0.413888959,1,0,0,1,59,119,31,1,47,69169,blockP,180,2022-02-11_21h29.54.456,orientation adjustment blockP,2021.2.3,Win32,60.87168249,continueButton,,,,,,
,,,,,,,,,,,,,,,,,,,,,,39.44444444,62,20,75,231.4444444,10.55555556,4.222222222,-0.311111103,-0.382407421,1,0,0,2.1644,submitButton,2.910534591,0.29722224,-0.287037049,0,0,0,2,0,120,46,1,62,69169,blockP,180,2022-02-11_21h29.54.456,orientation adjustment blockP,2021.2.3,Win32,60.87168249,,,,,,,
,,,,,,,,,,,,,,,,,,,,,,-35.55555556,39,20,75,43.44444444,4.444444444,1.777777778,-0.371296289,-0.424074088,1,0,0,0.9178,submitButton,2.899948079,0.151851867,-0.269444456,0,0,0,2,1,121,23,1,39,69169,blockP,180,2022-02-11_21h29.54.456,orientation adjustment blockP,2021.2.3,Win32,60.87168249,,,,,,,
,,,,,,,,,,,,,,,,,,,,,,-53.88888889,27,20,75,26.11111111,0.888888889,0.355555556,-0.311111103,-0.410185199,1,0,0,1.102,submitButton,2.876388889,0.285185203,-0.287037049,0,0,0,2,2,122,11,1,27,69169,blockP,180,2022-02-11_21h29.54.456,orientation adjustment blockP,2021.2.3,Win32,60.87168249,,,,,,,
,,,,,,,,,,,,,,,,,,,,,,39.44444444,-16,20,75,-30.55555556,14.55555556,5.822222222,-0.345370362,-0.411111125,1,0,0,1.3193,submitButton,2.903414883,0.282407425,-0.270370438,0,0,0,2,3,123,0,1,16,69169,blockP,180,2022-02-11_21h29.54.456,orientation adjustment blockP,2021.2.3,Win32,60.87168249,,,,,,,
,,,,,,,,,,,,,,,,,,,,,,-31.11111111,-74,20,75,-41.11111111,32.88888889,26.31111111,0.206481498,-0.286111123,1,0,0,0.684,submitButton,3.116212121,0.159259275,-0.354629642,0,0,0,2,4,124,58,1,74,69169,blockP,180,2022-02-11_21h29.54.456,orientation adjustment blockP,2021.2.3,Win32,60.87168249,,,,,,,
,,,,,,,,,,,,,,,,,,,,,,73.88888889,-25,20,75,135.8888889,19.11111111,12.42222222,0.188888905,-0.300925938,1,0,0,1.0683,submitButton,3.20005005,0.062962977,-0.305555568,0,0,0,2,5,125,9,1,25,69169,blockP,180,2022-02-11_21h29.54.456,orientation adjustment blockP,2021.2.3,Win32,60.87168249,,,,,,,
,,,,,,,,,,,,,,,,,,,,,,-75,69,20,75,-128,17,11.05,0.352777796,-0.289814827,1,0,0,0.5995,submitButton,3.270138889,0.024074088,-0.229629641,0,0,0,2,6,126,53,1,69,69169,blockP,180,2022-02-11_21h29.54.456,orientation adjustment blockP,2021.2.3,Win32,60.87168249,,,,,,,
,,,,,,,,,,,,,,,,,,,,,,41.11111111,18,20,75,14.11111111,3.888888889,1.555555556,0.354629648,-0.317592605,1,0,0,0.1162,submitButton,3.254965585,-0.027777765,-0.304629642,0,0,0,2,7,127,2,1,18,69169,blockP,180,2022-02-11_21h29.54.456,orientation adjustment blockP,2021.2.3,Win32,60.87168249,,,,,,,
,,,,,,,,,,,,,,,,,,,,,,24.44444444,-34,20,75,-35.55555556,1.555555556,0.622222222,0.333333352,-0.304629642,1,0,0,0.0327,submitButton,3.231871345,0.086111126,0.052777771,0,0,0,2,8,128,18,1,34,69169,blockP,180,2022-02-11_21h29.54.456,orientation adjustment blockP,2021.2.3,Win32,60.87168249,,,,,,,
,,,,,,,,,,,,,,,,,,,,,,-46.11111111,-31,20,75,-35.11111111,4.111111111,1.644444444,-0.309259251,-0.388888902,1,0,0,1.1985,submitButton,3.218067633,0.012962976,-0.267592604,0,0,0,2,9,129,15,1,31,69169,blockP,180,2022-02-11_21h29.54.456,orientation adjustment blockP,2021.2.3,Win32,60.87168249,,,,,,,
,,,,,,,,,,,,,,,,,,,,,,35.55555556,-48,20,75,-37.44444444,10.55555556,4.222222222,-0.353703696,-0.410185199,1,0,0,1.0822,submitButton,3.226724138,0.118518534,-0.196296363,0,0,0,2,10,130,32,1,48,69169,blockP,180,2022-02-11_21h29.54.456,orientation adjustment blockP,2021.2.3,Win32,60.87168249,,,,,,,
,,,,,,,,,,,,,,,,,,,,,,-64.44444444,-20,20,75,-27.44444444,7.444444444,2.977777778,-0.387962955,-0.400925939,1,0,0,1.2489,submitButton,3.224596391,-0.055555543,-0.291666678,0,0,0,2,11,131,4,1,20,69169,blockP,180,2022-02-11_21h29.54.456,orientation adjustment blockP,2021.2.3,Win32,60.87168249,,,,,,,
,,,,,,,,,,,,,,,,,,,,,,-60.55555556,-75,20,75,-83.55555556,8.555555556,3.422222222,0.211111128,-0.310185197,1,0,0,0.4326,submitButton,3.226271186,-0.166666656,-0.270370438,0,0,0,2,12,132,59,1,75,69169,blockP,180,2022-02-11_21h29.54.456,orientation adjustment blockP,2021.2.3,Win32,60.87168249,,,,,,,
,,,,,,,,,,,,,,,,,,,,,,43.88888889,47,20,75,57.88888889,10.88888889,4.355555556,-0.31388888,-0.4046297,1,0,0,1.1822,submitButton,3.235760971,-0.174999989,-0.40000007,0,0,0,2,13,133,31,1,47,69169,blockP,180,2022-02-11_21h29.54.456,orientation adjustment blockP,2021.2.3,Win32,60.87168249,,,,,,,
,,,,,,,,,,,,,,,,,,,,,,27.77777778,-29,20,75,-28.22222222,0.777777778,0.311111111,-0.28518512,-0.446296367,1,0,0,0.8658,submitButton,3.211388889,0.377777797,-0.39537044,1,0,0,2,14,134,13,1,29,69169,blockP,180,2022-02-11_21h29.54.456,orientation adjustment blockP,2021.2.3,Win32,60.87168249,continueButton,,,,,,
,,,,,,,,,,,,,,,,,,,,,,47.77777778,-73,20,75,-63.22222222,9.777777778,3.911111111,-0.393518511,-0.413888959,1,0,0,0.9151,submitButton,3.217171717,0.14907409,-0.202777788,0,0,0,2,15,135,57,1,73,69169,blockP,180,2022-02-11_21h29.54.456,orientation adjustment blockP,2021.2.3,Win32,60.87168249,,,,,,,
,,,,,,,,,,,,,,,,,,,,,,-71.11111111,-28,20,75,-62.11111111,34.11111111,27.28888889,0.250925943,-0.303703716,1,0,0,0.0339,submitButton,3.414480874,0.238888906,-0.217592603,0,0,0,2,16,136,12,1,28,69169,blockP,180,2022-02-11_21h29.54.456,orientation adjustment blockP,2021.2.3,Win32,60.87168249,,,,,,,
,,,,,,,,,,,,,,,,,,,,,,41.11111111,-66,20,75,-55.88888889,10.11111111,4.044444444,-0.282407398,-0.388888902,1,0,0,0.8322,submitButton,3.419602529,0.038888959,-0.285185197,0,0,0,2,17,137,50,1,66,69169,blockP,180,2022-02-11_21h29.54.456,orientation adjustment blockP,2021.2.3,Win32,60.87168249,,,,,,,
,,,,,,,,,,,,,,,,,,,,,,-71.11111111,49,20,75,-126.1111111,4.888888889,1.955555556,-0.247222213,-0.399074087,1,0,0,2.397,submitButton,3.407795699,-0.053703635,-0.386111181,0,0,0,2,18,138,33,1,49,69169,blockP,180,2022-02-11_21h29.54.456,orientation adjustment blockP,2021.2.3,Win32,60.87168249,,,,,,,
,,,,,,,,,,,,,,,,,,,,,,71.66666667,19,20,75,20.66666667,1.666666667,0.666666667,-0.326851843,-0.413888959,1,0,0,1.5984,submitButton,3.385866667,0.327777909,-0.283333345,0,0,0,2,19,139,3,1,19,69169,blockP,180,2022-02-11_21h29.54.456,orientation adjustment blockP,2021.2.3,Win32,60.87168249,,,,,,,
,,,,,,,,,,,,,,,,,,,,,,23.33333333,46,20,75,36.33333333,9.666666667,3.866666667,-0.29351851,-0.389814828,1,0,0,0.9489,submitButton,3.38968254,0.234259276,-0.258333345,0,0,0,2,20,140,30,1,46,69169,blockP,180,2022-02-11_21h29.54.456,orientation adjustment blockP,2021.2.3,Win32,60.87168249,,,,,,,
,,,,,,,,,,,,,,,,,,,,,,52.22222222,30,20,75,43.22222222,13.22222222,5.288888889,-0.361111103,-0.427777848,1,0,0,0.9324,submitButton,3.40463692,0.242592609,-0.336111124,0,0,0,2,21,141,14,1,30,69169,blockP,180,2022-02-11_21h29.54.456,orientation adjustment blockP,2021.2.3,Win32,60.87168249,,,,,,,
,,,,,,,,,,,,,,,,,,,,,,61.66666667,-57,20,75,-48.33333333,8.666666667,3.466666667,0.391666686,-0.280555567,1,0,0,0.5496,submitButton,3.405121528,0.209259276,-0.299074086,0,0,0,2,22,142,41,1,57,69169,blockP,180,2022-02-11_21h29.54.456,orientation adjustment blockP,2021.2.3,Win32,60.87168249,,,,,,,
,,,,,,,,,,,,,,,,,,,,,,-58.33333333,-23,20,75,-35.33333333,12.33333333,4.933333333,-0.319444436,-0.384259272,1,0,0,1.2144,submitButton,3.416968131,0.124074089,-0.304629642,0,0,0,2,23,143,7,1,23,69169,blockP,180,2022-02-11_21h29.54.456,orientation adjustment blockP,2021.2.3,Win32,60.87168249,,,,,,,
,,,,,,,,,,,,,,,,,,,,,,37.77777778,36,20,75,27.77777778,8.222222222,3.288888889,-0.292592584,-0.393518532,1,0,0,1.2141,submitButton,3.415982906,0.231481498,-0.311111123,0,0,0,2,24,144,20,1,36,69169,blockP,180,2022-02-11_21h29.54.456,orientation adjustment blockP,2021.2.3,Win32,60.87168249,,,,,,,
,,,,,,,,,,,,,,,,,,,,,,-33.88888889,-32,20,75,-21.88888889,10.11111111,4.044444444,-0.362037029,-0.389814828,1,0,0,1.2152,submitButton,3.420780322,0.129629645,-0.216666677,0,0,0,2,25,145,16,1,32,69169,blockP,180,2022-02-11_21h29.54.456,orientation adjustment blockP,2021.2.3,Win32,60.87168249,,,,,,,
,,,,,,,,,,,,,,,,,,,,,,-74.44444444,21,20,75,20.55555556,0.444444444,0.177777778,-0.302777769,-0.389814828,1,0,0,1.7649,submitButton,3.396212121,0.072222237,-0.295370382,0,0,0,2,26,146,5,1,21,69169,blockP,180,2022-02-11_21h29.54.456,orientation adjustment blockP,2021.2.3,Win32,60.87168249,,,,,,,
,,,,,,,,,,,,,,,,,,,,,,27.77777778,-55,20,75,-64.22222222,9.222222222,3.688888889,-0.305555547,-0.41666668,1,0,0,0.9161,submitButton,3.398412698,0.13981483,-0.162037047,0,0,0,2,27,147,39,1,55,69169,blockP,180,2022-02-11_21h29.54.456,orientation adjustment blockP,2021.2.3,Win32,60.87168249,,,,,,,
,,,,,,,,,,,,,,,,,,,,,,-25.55555556,56,20,75,59.44444444,3.444444444,1.377777778,0.160185201,-0.292592604,1,0,0,0.0832,submitButton,3.383333333,-0.031481469,-0.259259271,0,0,0,2,28,148,40,1,56,69169,blockP,180,2022-02-11_21h29.54.456,orientation adjustment blockP,2021.2.3,Win32,60.87168249,,,,,,,
,,,,,,,,,,,,,,,,,,,,,,42.22222222,58,20,75,61.22222222,3.222222222,1.288888889,0.408333353,-0.307407476,1,0,0,0.683,submitButton,3.36781893,0.358333352,-0.400925939,1,0,0,2,29,149,42,1,58,69169,blockP,180,2022-02-11_21h29.54.456,orientation adjustment blockP,2021.2.3,Win32,60.87168249,continueButton,,,,,,
,,,,,,,,,,,,,,,,,,,,,,-23.33333333,-68,20,75,-60.33333333,7.666666667,3.066666667,0.214814831,-0.322222234,1,0,0,0.5171,submitButton,3.365604575,-0.308333325,-0.382407421,0,0,0,2,30,150,52,1,68,69169,blockP,180,2022-02-11_21h29.54.456,orientation adjustment blockP,2021.2.3,Win32,60.87168249,,,,,,,
,,,,,,,,,,,,,,,,,,,,,,-54.44444444,53,20,75,-131.4444444,4.444444444,1.777777778,-0.361111103,-0.419444458,1,0,0,2.381,submitButton,3.354014599,0.274074091,-0.262037048,0,0,0,2,31,151,37,1,53,69169,blockP,180,2022-02-11_21h29.54.456,orientation adjustment blockP,2021.2.3,Win32,60.87168249,,,,,,,
,,,,,,,,,,,,,,,,,,,,,,46.11111111,-22,20,75,-23.88888889,1.888888889,0.755555556,0.433333353,-0.312037106,1,0,0,0.6659,submitButton,3.335185185,-0.362037029,-0.405555569,0,0,0,2,32,152,6,1,22,69169,blockP,180,2022-02-11_21h29.54.456,orientation adjustment blockP,2021.2.3,Win32,60.87168249,,,,,,,
,,,,,,,,,,,,,,,,,,,,,,-56.11111111,37,20,75,28.88888889,8.111111111,3.244444444,-0.360185177,-0.390740811,1,0,0,1.2983,submitButton,3.334532374,-0.360185177,-0.390740811,0,0,0,2,33,153,21,1,37,69169,blockP,180,2022-02-11_21h29.54.456,orientation adjustment blockP,2021.2.3,Win32,60.87168249,,,,,,,
,,,,,,,,,,,,,,,,,,,,,,-61.66666667,17,20,75,16.33333333,0.666666667,0.266666667,0.224074091,-0.324074086,1,0,0,0.2329,submitButton,3.312619048,0.236111128,-0.275925937,0,0,0,2,34,154,1,1,17,69169,blockP,180,2022-02-11_21h29.54.456,orientation adjustment blockP,2021.2.3,Win32,60.87168249,,,,,,,
,,,,,,,,,,,,,,,,,,,,,,-42.77777778,-33,20,75,-29.77777778,3.222222222,1.288888889,-0.367592585,-0.397222236,1,0,0,1.315,submitButton,3.298266351,-0.171296286,-0.162962973,0,0,0,2,35,155,17,1,33,69169,blockP,180,2022-02-11_21h29.54.456,orientation adjustment blockP,2021.2.3,Win32,60.87168249,,,,,,,
,,,,,,,,,,,,,,,,,,,,,,32.22222222,59,20,75,57.22222222,1.777777778,0.711111111,-0.326851843,-0.398148162,1,0,0,1.1481,submitButton,3.280046948,-0.204629619,-0.35277779,0,0,0,2,36,156,43,1,59,69169,blockP,180,2022-02-11_21h29.54.456,orientation adjustment blockP,2021.2.3,Win32,60.87168249,,,,,,,
,,,,,,,,,,,,,,,,,,,,,,32.22222222,43,20,75,46.22222222,3.222222222,1.288888889,-0.359259251,-0.403703717,1,0,0,0.9495,submitButton,3.266122766,-0.124999989,-0.325000012,0,0,0,2,37,157,27,1,43,69169,blockP,180,2022-02-11_21h29.54.456,orientation adjustment blockP,2021.2.3,Win32,60.87168249,,,,,,,
,,,,,,,,,,,,,,,,,,,,,,-35,-71,20,75,-68,3,1.2,0.126851867,-0.301851864,1,0,0,0.5823,submitButton,3.251774691,-0.016666597,-0.282407419,0,0,0,2,38,158,55,1,71,69169,blockP,180,2022-02-11_21h29.54.456,orientation adjustment blockP,2021.2.3,Win32,60.87168249,,,,,,,
,,,,,,,,,,,,,,,,,,,,,,-33.88888889,64,20,75,64.11111111,0.111111111,0.044444444,-0.401851845,-0.422222236,1,0,0,1.0992,submitButton,3.229655172,-0.069444432,-0.36203705,0,0,0,2,39,159,48,1,64,69169,blockP,180,2022-02-11_21h29.54.456,orientation adjustment blockP,2021.2.3,Win32,60.87168249,,,,,,,
,,,,,,,,,,,,,,,,,,,,,,-34.44444444,-38,20,75,-45.44444444,7.444444444,2.977777778,-0.28888888,-0.389814828,1,0,0,0.5497,submitButton,3.227929985,0.030555569,-0.309259271,0,0,0,2,40,160,22,1,38,69169,blockP,180,2022-02-11_21h29.54.456,orientation adjustment blockP,2021.2.3,Win32,60.87168249,,,,,,,
,,,,,,,,,,,,,,,,,,,,,,72.77777778,-50,20,75,-44.22222222,5.777777778,2.311111111,-0.340740733,-0.402777791,1,0,0,1.8818,submitButton,3.221693122,-0.100925914,-0.388888902,0,0,0,2,41,161,34,1,50,69169,blockP,180,2022-02-11_21h29.54.456,orientation adjustment blockP,2021.2.3,Win32,60.87168249,,,,,,,
,,,,,,,,,,,,,,,,,,,,,,38.88888889,54,20,75,55.88888889,1.888888889,0.755555556,-0.258333324,-0.409259329,1,0,0,0.7996,submitButton,3.20503003,-0.370370363,-0.392592606,0,0,0,2,42,162,38,1,54,69169,blockP,180,2022-02-11_21h29.54.456,orientation adjustment blockP,2021.2.3,Win32,60.87168249,,,,,,,
,,,,,,,,,,,,,,,,,,,,,,-26.66666667,70,20,75,62.33333333,7.666666667,3.066666667,-0.341666659,-0.377777791,1,0,0,0.8324,submitButton,3.204101417,0.083333348,-0.363888902,0,0,0,2,43,163,54,1,70,69169,blockP,180,2022-02-11_21h29.54.456,orientation adjustment blockP,2021.2.3,Win32,60.87168249,,,,,,,
,,,,,,,,,,,,,,,,,,,,,,-52.77777778,-40,20,75,-46.77777778,6.777777778,2.711111111,0.220370387,-0.287037049,1,0,0,0.1327,submitButton,3.200814815,0.348148167,-0.400925939,1,0,0,2,44,164,24,1,40,69169,blockP,180,2022-02-11_21h29.54.456,orientation adjustment blockP,2021.2.3,Win32,60.87168249,continueButton,,,,,,
,,,,,,,,,,,,,,,,,,,,,,53.33333333,52,20,75,224.3333333,7.666666667,3.066666667,0.214814831,-0.293518587,1,0,0,1.5484,submitButton,3.199926416,0.154629645,-0.292592604,0,0,0,2,45,165,36,1,52,69169,blockP,180,2022-02-11_21h29.54.456,orientation adjustment blockP,2021.2.3,Win32,60.87168249,,,,,,,
,,,,,,,,,,,,,,,,,,,,,,-54.44444444,-42,20,75,-55.44444444,13.44444444,5.377777778,0.221296313,-0.300000012,1,0,0,0.0659,submitButton,3.214254386,0.210185202,-0.303703716,0,0,0,2,46,166,26,1,42,69169,blockP,180,2022-02-11_21h29.54.456,orientation adjustment blockP,2021.2.3,Win32,60.87168249,,,,,,,
,,,,,,,,,,,,,,,,,,,,,,-62.22222222,41,20,75,30.77777778,10.22222222,4.088888889,0.201851868,-0.306481493,1,0,0,0.0999,submitButton,3.219970951,0.140740756,-0.214814882,0,0,0,2,47,167,25,1,41,69169,blockP,180,2022-02-11_21h29.54.456,orientation adjustment blockP,2021.2.3,Win32,60.87168249,,,,,,,
,,,,,,,,,,,,,,,,,,,,,,-27.22222222,-26,20,75,-24.22222222,1.777777778,0.711111111,-0.330555547,-0.413888959,1,0,0,0.8662,submitButton,3.203679654,0.013888902,-0.266666678,0,0,0,2,48,168,10,1,26,69169,blockP,180,2022-02-11_21h29.54.456,orientation adjustment blockP,2021.2.3,Win32,60.87168249,,,,,,,
,,,,,,,,,,,,,,,,,,,,,,-35.55555556,67,20,75,56.44444444,10.55555556,4.222222222,-0.344444436,-0.427777848,1,0,0,0.9148,submitButton,3.210250896,0.037037051,-0.315740753,0,0,0,2,49,169,51,1,67,69169,blockP,180,2022-02-11_21h29.54.456,orientation adjustment blockP,2021.2.3,Win32,60.87168249,,,,,,,
,,,,,,,,,,,,,,,,,,,,,,34.44444444,60,20,75,70.44444444,10.44444444,4.177777778,0.400925945,-0.284259327,1,0,0,0.0171,submitButton,3.216452991,0.084259274,-0.207407418,0,0,0,2,50,170,44,1,60,69169,blockP,180,2022-02-11_21h29.54.456,orientation adjustment blockP,2021.2.3,Win32,60.87168249,,,,,,,
,,,,,,,,,,,,,,,,,,,,,,64.44444444,24,20,75,14.44444444,9.555555556,3.822222222,-0.262036971,-0.390740811,1,0,0,1.882,submitButton,3.220311394,0.164814831,-0.287037049,0,0,0,2,51,171,8,1,24,69169,blockP,180,2022-02-11_21h29.54.456,orientation adjustment blockP,2021.2.3,Win32,60.87168249,,,,,,,
,,,,,,,,,,,,,,,,,,,,,,63.88888889,51,20,75,62.88888889,11.88888889,4.755555556,0.425000133,-0.292592604,1,0,0,0.4989,submitButton,3.230028129,-0.020370357,-0.20000001,0,0,0,2,52,172,35,1,51,69169,blockP,180,2022-02-11_21h29.54.456,orientation adjustment blockP,2021.2.3,Win32,60.87168249,,,,,,,
,,,,,,,,,,,,,,,,,,,,,,33.88888889,44,20,75,47.88888889,3.888888889,1.555555556,0.343518537,-0.298148217,1,0,0,0.4496,submitButton,3.219496855,-0.336111103,-0.424074088,0,0,0,2,53,173,28,1,44,69169,blockP,180,2022-02-11_21h29.54.456,orientation adjustment blockP,2021.2.3,Win32,60.87168249,,,,,,,
,,,,,,,,,,,,,,,,,,,,,,-30,-35,20,75,-31,4,1.6,-0.329629621,-0.420370384,1,0,0,0.9154,submitButton,3.209375,-0.329629621,-0.420370384,0,0,0,2,54,174,19,1,35,69169,blockP,180,2022-02-11_21h29.54.456,orientation adjustment blockP,2021.2.3,Win32,60.87168249,,,,,,,
,,,,,,,,,,,,,,,,,,,,,,66.11111111,-61,20,75,-65.88888889,4.888888889,1.955555556,-0.32314814,-0.409259329,1,0,0,1.5312,submitButton,3.201587302,-0.32314814,-0.409259329,0,0,0,2,55,175,45,1,61,69169,blockP,180,2022-02-11_21h29.54.456,orientation adjustment blockP,2021.2.3,Win32,60.87168249,,,,,,,
,,,,,,,,,,,,,,,,,,,,,,-54.44444444,65,20,75,63.55555556,1.444444444,0.577777778,-0.431481475,-0.419444458,1,0,0,1.0991,submitButton,3.185390947,0.026851865,-0.426851866,0,0,0,2,56,176,49,1,65,69169,blockP,180,2022-02-11_21h29.54.456,orientation adjustment blockP,2021.2.3,Win32,60.87168249,,,,,,,
,,,,,,,,,,,,,,,,,,,,,,27.22222222,-63,20,75,-74.77777778,11.77777778,4.711111111,0.393518538,-0.312962975,1,0,0,0.0333,submitButton,3.194751193,-0.310185177,-0.39537044,0,0,0,2,57,177,47,1,63,69169,blockP,180,2022-02-11_21h29.54.456,orientation adjustment blockP,2021.2.3,Win32,60.87168249,,,,,,,
,,,,,,,,,,,,,,,,,,,,,,-47.77777778,45,20,75,-110.7777778,24.22222222,15.74444444,0.403703723,-0.283333345,1,0,0,0.0492,submitButton,3.271273713,0.180555571,-0.269444456,0,0,0,2,58,178,29,1,45,69169,blockP,180,2022-02-11_21h29.54.456,orientation adjustment blockP,2021.2.3,Win32,60.87168249,,,,,,,
,,,,,,,,,,,,,,,,,,,,,,21.66666667,72,20,75,60.66666667,11.33333333,4.533333333,-0.251851842,-0.417592606,1,0,0,0.932,submitButton,3.278922559,-0.251851842,-0.417592606,0,0,0,2,59,179,56,1,72,69169,blockP,180,2022-02-11_21h29.54.456,orientation adjustment blockP,2021.2.3,Win32,60.87168249,,,,,,,
,,,,,,,,,,,,,,,,,,,,,,,,,,,,,,,,,,,,,,,,,,,,,,,,69169,blockP,180,2022-02-11_21h29.54.456,orientation adjustment blockP,2021.2.3,Win32,60.87168249,,0.231481498,-0.413888959,1,0,0,EndButtonTxt
