consentMouse1.x,consentMouse1.y,consentMouse1.leftButton,consentMouse1.midButton,consentMouse1.rightButton,consentMouse1.clicked_name,consent_Mouse.x,consent_Mouse.y,consent_Mouse.leftButton,consent_Mouse.midButton,consent_Mouse.rightButton,consent_Mouse.clicked_name,startMouse.x,startMouse.y,startMouse.leftButton,startMouse.midButton,startMouse.rightButton,startMouse_2.x,startMouse_2.y,startMouse_2.leftButton,startMouse_2.midButton,startMouse_2.rightButton,start_distance,fixedOri,minimalDistance,maxOri,this_ori,accuracy,presented_accuracy,submitMouse.x,submitMouse.y,submitMouse.leftButton,submitMouse.midButton,submitMouse.rightButton,submitMouse.time,submitMouse.clicked_name,block_accuracy,continueMouse.x,continueMouse.y,continueMouse.leftButton,continueMouse.midButton,continueMouse.rightButton,trials.thisRepN,trials.thisTrialN,trials.thisN,trials.thisIndex,trials.ran,startOri,participant,condition,nTrials,date,expName,psychopyVersion,OS,frameRate,continueMouse.clicked_name,EndButtonMouse.x,EndButtonMouse.y,EndButtonMouse.leftButton,EndButtonMouse.midButton,EndButtonMouse.rightButton,EndButtonMouse.clicked_name
0.302606947,-0.394047987,1,0,0,consent_button1,0.356635742,-0.39955363,1,0,0,consent_button,-0.038694933,-0.25862793,1,0,0,-0.032107747,-0.342978651,1,0,0,-70,-43,20,75,-93,50,42.5,0.181447618,-0.302326185,1,0,0,2.9352,submitButton,42.5,0.005080702,-0.339784885,0,0,0,0,0,0,27,1,43,69241,blockP,180,2022-02-14_23h38.44.647,orientation adjustment blockP,2021.2.3,MacIntel,60.0024001,,,,,,,
,,,,,,,,,,,,,,,,,,,,,,51.11111111,32,20,75,102.1111111,70.11111111,63.1,0.171635539,-0.295402629,1,0,0,1.5011,submitButton,52.8,-0.085703803,-0.345114339,0,0,0,0,1,1,16,1,32,69241,blockP,180,2022-02-14_23h38.44.647,orientation adjustment blockP,2021.2.3,MacIntel,60.0024001,,,,,,,
,,,,,,,,,,,,,,,,,,,,,,-26.66666667,70,20,75,43.33333333,26.66666667,17.33333333,-0.162392849,-0.391417779,1,0,0,3.0653,submitButton,40.97777778,-0.005575087,-0.315544298,0,0,0,0,2,2,54,1,70,69241,blockP,180,2022-02-14_23h38.44.647,orientation adjustment blockP,2021.2.3,MacIntel,60.0024001,,,,,,,
,,,,,,,,,,,,,,,,,,,,,,45,-69,20,75,-63,6,2.4,0.423241509,-0.294584893,1,0,0,1.032,submitButton,2.4,-0.150166897,-0.415857273,0,0,0,0,3,3,53,1,69,69241,blockP,180,2022-02-14_23h38.44.647,orientation adjustment blockP,2021.2.3,MacIntel,60.0024001,,,,,,,
,,,,,,,,,,,,,,,,,,,,,,53.33333333,39,20,75,34.33333333,4.666666667,1.866666667,0.388611925,-0.288406643,1,0,0,0.0173,submitButton,2.133333333,-0.117910021,-0.395180596,0,0,0,0,4,4,23,1,39,69241,blockP,180,2022-02-14_23h38.44.647,orientation adjustment blockP,2021.2.3,MacIntel,60.0024001,,,,,,,
,,,,,,,,,,,,,,,,,,,,,,53.88888889,-25,20,75,127.8888889,27.11111111,17.62222222,0.195069309,-0.313314548,1,0,0,0.0989,submitButton,7.296296296,-0.017925754,-0.409533691,0,0,0,0,5,5,9,1,25,69241,blockP,180,2022-02-14_23h38.44.647,orientation adjustment blockP,2021.2.3,MacIntel,60.0024001,,,,,,,
,,,,,,,,,,,,,,,,,,,,,,32.77777778,27,20,75,24.77777778,2.222222222,0.888888889,0.374680854,-0.319243368,1,0,0,0.7168,submitButton,0.888888889,-0.119715644,-0.403443739,0,0,0,0,6,6,11,1,27,69241,blockP,180,2022-02-14_23h38.44.647,orientation adjustment blockP,2021.2.3,MacIntel,60.0024001,,,,,,,
,,,,,,,,,,,,,,,,,,,,,,-25.55555556,35,20,75,20.44444444,14.55555556,5.822222222,0.196860623,-0.299410265,1,0,0,0.5013,submitButton,3.355555556,-0.16886027,-0.408898044,0,0,0,0,7,7,19,1,35,69241,blockP,180,2022-02-14_23h38.44.647,orientation adjustment blockP,2021.2.3,MacIntel,60.0024001,,,,,,,
,,,,,,,,,,,,,,,,,,,,,,-48.88888889,-45,20,75,-40.88888889,4.111111111,1.644444444,0.178551161,-0.29432312,1,0,0,1.0318,submitButton,2.785185185,-0.036727431,-0.340258721,0,0,0,0,8,8,29,1,45,69241,blockP,180,2022-02-14_23h38.44.647,orientation adjustment blockP,2021.2.3,MacIntel,60.0024001,,,,,,,
,,,,,,,,,,,,,,,,,,,,,,68.33333333,56,20,75,36.33333333,19.66666667,12.78333333,0.390226915,-0.310019396,1,0,0,1.2143,submitButton,12.78333333,-0.033476902,-0.377593723,0,0,0,0,9,9,40,1,56,69241,blockP,180,2022-02-14_23h38.44.647,orientation adjustment blockP,2021.2.3,MacIntel,60.0024001,,,,,,,
,,,,,,,,,,,,,,,,,,,,,,37.22222222,-41,20,75,129.2222222,9.777777778,3.911111111,0.188307427,-0.31261556,1,0,0,2.1812,submitButton,8.347222222,-0.189828423,-0.403914185,0,0,0,0,10,10,25,1,41,69241,blockP,180,2022-02-14_23h38.44.647,orientation adjustment blockP,2021.2.3,MacIntel,60.0024001,,,,,,,
,,,,,,,,,,,,,,,,,,,,,,-30,-51,20,75,-44,7,2.8,0.22968967,-0.302490031,1,0,0,0.185,submitButton,6.498148148,-0.158209635,-0.419416572,0,0,0,0,11,11,35,1,51,69241,blockP,180,2022-02-14_23h38.44.647,orientation adjustment blockP,2021.2.3,MacIntel,60.0024001,,,,,,,
,,,,,,,,,,,,,,,,,,,,,,37.22222222,-44,20,75,-48.77777778,4.777777778,1.911111111,0.390964355,-0.29503696,1,0,0,0.1004,submitButton,1.911111111,-0.260869954,-0.396518148,0,0,0,0,12,12,28,1,44,69241,blockP,180,2022-02-14_23h38.44.647,orientation adjustment blockP,2021.2.3,MacIntel,60.0024001,,,,,,,
,,,,,,,,,,,,,,,,,,,,,,-56.66666667,-17,20,75,-18.66666667,1.666666667,0.666666667,0.173509657,-0.332240262,1,0,0,0.1347,submitButton,1.288888889,0.067039524,-0.330057916,0,0,0,0,13,13,1,1,17,69241,blockP,180,2022-02-14_23h38.44.647,orientation adjustment blockP,2021.2.3,MacIntel,60.0024001,,,,,,,
,,,,,,,,,,,,,,,,,,,,,,-64.44444444,-50,20,75,-45.44444444,4.555555556,1.822222222,0.365722656,-0.275998942,1,0,0,0.2842,submitButton,1.466666667,0.410117052,-0.39776279,1,0,0,0,14,14,34,1,50,69241,blockP,180,2022-02-14_23h38.44.647,orientation adjustment blockP,2021.2.3,MacIntel,60.0024001,continueButton,,,,,,
,,,,,,,,,,,,,,,,,,,,,,-61.66666667,-23,20,75,-27.66666667,4.666666667,1.866666667,0.239085015,-0.317844035,1,0,0,0.7309,submitButton,1.866666667,-0.019937948,-0.320594211,0,0,0,0,15,15,7,1,23,69241,blockP,180,2022-02-14_23h38.44.647,orientation adjustment blockP,2021.2.3,MacIntel,60.0024001,,,,,,,
,,,,,,,,,,,,,,,,,,,,,,-27.22222222,-49,20,75,-34.22222222,14.77777778,5.911111111,0.174637655,-0.30796068,1,0,0,0.0983,submitButton,3.888888889,0.135803087,-0.296806166,0,0,0,0,16,16,33,1,49,69241,blockP,180,2022-02-14_23h38.44.647,orientation adjustment blockP,2021.2.3,MacIntel,60.0024001,,,,,,,
,,,,,,,,,,,,,,,,,,,,,,-45.55555556,48,20,75,34.44444444,13.55555556,5.422222222,0.24169671,-0.298668959,1,0,0,0.3688,submitButton,4.4,-0.021545003,-0.309807604,0,0,0,0,17,17,32,1,48,69241,blockP,180,2022-02-14_23h38.44.647,orientation adjustment blockP,2021.2.3,MacIntel,60.0024001,,,,,,,
,,,,,,,,,,,,,,,,,,,,,,-22.77777778,30,20,75,40.22222222,10.22222222,4.088888889,0.169825982,-0.301005859,1,0,0,0.185,submitButton,4.322222222,-0.005669352,-0.291603461,0,0,0,0,18,18,14,1,30,69241,blockP,180,2022-02-14_23h38.44.647,orientation adjustment blockP,2021.2.3,MacIntel,60.0024001,,,,,,,
,,,,,,,,,,,,,,,,,,,,,,-37.22222222,33,20,75,25.77777778,7.222222222,2.888888889,-0.218952501,-0.41773485,1,0,0,0.9168,submitButton,4.035555556,-0.019947984,-0.343395047,0,0,0,0,19,19,17,1,33,69241,blockP,180,2022-02-14_23h38.44.647,orientation adjustment blockP,2021.2.3,MacIntel,60.0024001,,,,,,,
,,,,,,,,,,,,,,,,,,,,,,-73.88888889,20,20,75,22.11111111,2.111111111,0.844444444,0.172939182,-0.294170803,1,0,0,1.0819,submitButton,3.503703704,0.027522244,-0.337730035,0,0,0,0,20,20,4,1,20,69241,blockP,180,2022-02-14_23h38.44.647,orientation adjustment blockP,2021.2.3,MacIntel,60.0024001,,,,,,,
,,,,,,,,,,,,,,,,,,,,,,67.77777778,75,20,75,259.7777778,4.777777778,1.911111111,0.183203261,-0.300937907,1,0,0,0.1509,submitButton,3.276190476,-0.186877713,-0.41365587,0,0,0,0,21,21,59,1,75,69241,blockP,180,2022-02-14_23h38.44.647,orientation adjustment blockP,2021.2.3,MacIntel,60.0024001,,,,,,,
,,,,,,,,,,,,,,,,,,,,,,55,-18,20,75,157,5,2,0.18766527,-0.301929593,1,0,0,1.9343,submitButton,3.116666667,-0.022928196,-0.281384616,0,0,0,0,22,22,2,1,18,69241,blockP,180,2022-02-14_23h38.44.647,orientation adjustment blockP,2021.2.3,MacIntel,60.0024001,,,,,,,
,,,,,,,,,,,,,,,,,,,,,,69.44444444,66,20,75,242.4444444,3.555555556,1.422222222,0.22336731,-0.303731486,1,0,0,0.0489,submitButton,2.928395062,-0.199277615,-0.411609497,0,0,0,0,23,23,50,1,66,69241,blockP,180,2022-02-14_23h38.44.647,orientation adjustment blockP,2021.2.3,MacIntel,60.0024001,,,,,,,
,,,,,,,,,,,,,,,,,,,,,,24.44444444,42,20,75,43.44444444,1.444444444,0.577777778,0.404158529,-0.292759332,1,0,0,1.2167,submitButton,2.693333333,-0.145950792,-0.405965847,0,0,0,0,24,24,26,1,42,69241,blockP,180,2022-02-14_23h38.44.647,orientation adjustment blockP,2021.2.3,MacIntel,60.0024001,,,,,,,
,,,,,,,,,,,,,,,,,,,,,,-45,-62,20,75,-57,5,2,0.197220595,-0.318368666,1,0,0,0.584,submitButton,2.63030303,0.065118205,-0.346167603,0,0,0,0,25,25,46,1,62,69241,blockP,180,2022-02-14_23h38.44.647,orientation adjustment blockP,2021.2.3,MacIntel,60.0024001,,,,,,,
,,,,,,,,,,,,,,,,,,,,,,-36.11111111,-21,20,75,-21.11111111,0.111111111,0.044444444,0.178229845,-0.284398804,1,0,0,0.5313,submitButton,2.414814815,-0.148416545,-0.388892415,0,0,0,0,26,26,5,1,21,69241,blockP,180,2022-02-14_23h38.44.647,orientation adjustment blockP,2021.2.3,MacIntel,60.0024001,,,,,,,
,,,,,,,,,,,,,,,,,,,,,,-57.22222222,-46,20,75,-49.22222222,3.222222222,1.288888889,-0.2522386,-0.411001926,1,0,0,1.3159,submitButton,2.328205128,-0.020657281,-0.380985311,0,0,0,0,27,27,30,1,46,69241,blockP,180,2022-02-14_23h38.44.647,orientation adjustment blockP,2021.2.3,MacIntel,60.0024001,,,,,,,
,,,,,,,,,,,,,,,,,,,,,,-66.11111111,-22,20,75,-14.11111111,7.888888889,3.155555556,0.180583225,-0.318870307,1,0,0,0.7153,submitButton,2.387301587,-0.18005249,-0.395520359,0,0,0,0,28,28,6,1,22,69241,blockP,180,2022-02-14_23h38.44.647,orientation adjustment blockP,2021.2.3,MacIntel,60.0024001,,,,,,,
,,,,,,,,,,,,,,,,,,,,,,-30,-36,20,75,-28,8,3.2,-0.161671821,-0.385660333,1,0,0,0.866,submitButton,2.441481481,0.277562052,-0.392109782,1,0,0,0,29,29,20,1,36,69241,blockP,180,2022-02-14_23h38.44.647,orientation adjustment blockP,2021.2.3,MacIntel,60.0024001,continueButton,,,,,,
,,,,,,,,,,,,,,,,,,,,,,53.88888889,26,20,75,214.8888889,8.888888889,3.555555556,-0.151971571,-0.390561863,1,0,0,2.7705,submitButton,2.511111111,-0.056579793,-0.360934448,0,0,0,0,30,30,10,1,26,69241,blockP,180,2022-02-14_23h38.44.647,orientation adjustment blockP,2021.2.3,MacIntel,60.0024001,,,,,,,
,,,,,,,,,,,,,,,,,,,,,,-73.88888889,-63,20,75,-56.88888889,6.111111111,2.444444444,0.17462972,-0.302076619,1,0,0,1.1173,submitButton,2.507189542,0.010959608,-0.341870253,0,0,0,0,31,31,47,1,63,69241,blockP,180,2022-02-14_23h38.44.647,orientation adjustment blockP,2021.2.3,MacIntel,60.0024001,,,,,,,
,,,,,,,,,,,,,,,,,,,,,,-51.66666667,-67,20,75,-59.66666667,7.333333333,2.933333333,-0.26177497,-0.399853109,1,0,0,1.3005,submitButton,2.530864198,0.078478868,-0.360219048,0,0,0,0,32,32,51,1,67,69241,blockP,180,2022-02-14_23h38.44.647,orientation adjustment blockP,2021.2.3,MacIntel,60.0024001,,,,,,,
,,,,,,,,,,,,,,,,,,,,,,-49.44444444,34,20,75,-146.4444444,0.444444444,0.177777778,-0.220788981,-0.419362522,1,0,0,2.5836,submitButton,2.407017544,-0.022484266,-0.315960558,0,0,0,0,33,33,18,1,34,69241,blockP,180,2022-02-14_23h38.44.647,orientation adjustment blockP,2021.2.3,MacIntel,60.0024001,,,,,,,
,,,,,,,,,,,,,,,,,,,,,,39.44444444,-28,20,75,-29.55555556,1.555555556,0.622222222,0.429230821,-0.292182617,1,0,0,0.9663,submitButton,2.317777778,-0.200683662,-0.382813517,0,0,0,0,34,34,12,1,28,69241,blockP,180,2022-02-14_23h38.44.647,orientation adjustment blockP,2021.2.3,MacIntel,60.0024001,,,,,,,
,,,,,,,,,,,,,,,,,,,,,,-73.88888889,-64,20,75,-227.8888889,16.11111111,10.47222222,0.425786133,-0.29255127,1,0,0,0.0839,submitButton,2.706084656,-0.030035129,-0.322568766,0,0,0,0,35,35,48,1,64,69241,blockP,180,2022-02-14_23h38.44.647,orientation adjustment blockP,2021.2.3,MacIntel,60.0024001,,,,,,,
,,,,,,,,,,,,,,,,,,,,,,-46.11111111,-68,20,75,-66.11111111,1.888888889,0.755555556,0.194860297,-0.279815131,1,0,0,0.0824,submitButton,2.617424242,0.086742893,-0.333811306,0,0,0,0,36,36,52,1,68,69241,blockP,180,2022-02-14_23h38.44.647,orientation adjustment blockP,2021.2.3,MacIntel,60.0024001,,,,,,,
,,,,,,,,,,,,,,,,,,,,,,-54.44444444,57,20,75,50.55555556,6.444444444,2.577777778,0.183585612,-0.302041219,1,0,0,0.6002,submitButton,2.615700483,0.05150194,-0.276131185,0,0,0,0,37,37,41,1,57,69241,blockP,180,2022-02-14_23h38.44.647,orientation adjustment blockP,2021.2.3,MacIntel,60.0024001,,,,,,,
,,,,,,,,,,,,,,,,,,,,,,-46.11111111,16,20,75,19.88888889,3.888888889,1.555555556,-0.10905565,-0.3975413,1,0,0,1.4003,submitButton,2.571527778,-0.10905565,-0.3975413,0,0,0,0,38,38,0,1,16,69241,blockP,180,2022-02-14_23h38.44.647,orientation adjustment blockP,2021.2.3,MacIntel,60.0024001,,,,,,,
,,,,,,,,,,,,,,,,,,,,,,46.11111111,-55,20,75,-45.88888889,9.111111111,3.644444444,-0.137349175,-0.389171956,1,0,0,0.9,submitButton,2.614444444,0.145080295,-0.314876777,0,0,0,0,39,39,39,1,55,69241,blockP,180,2022-02-14_23h38.44.647,orientation adjustment blockP,2021.2.3,MacIntel,60.0024001,,,,,,,
,,,,,,,,,,,,,,,,,,,,,,-29.44444444,-61,20,75,-68.44444444,7.444444444,2.977777778,-0.155165134,-0.395489434,1,0,0,0.6166,submitButton,2.628418803,0.138066067,-0.325735813,0,0,0,0,40,40,45,1,61,69241,blockP,180,2022-02-14_23h38.44.647,orientation adjustment blockP,2021.2.3,MacIntel,60.0024001,,,,,,,
,,,,,,,,,,,,,,,,,,,,,,-72.22222222,71,20,75,38.77777778,32.22222222,25.77777778,0.165677626,-0.296068115,1,0,0,0.3988,submitButton,3.485802469,0.053912557,-0.310279744,0,0,0,0,41,41,55,1,71,69241,blockP,180,2022-02-14_23h38.44.647,orientation adjustment blockP,2021.2.3,MacIntel,60.0024001,,,,,,,
,,,,,,,,,,,,,,,,,,,,,,62.22222222,54,20,75,67.22222222,13.22222222,5.288888889,-0.147201606,-0.395468614,1,0,0,1.3844,submitButton,3.550198413,0.012780355,-0.37377143,0,0,0,0,42,42,38,1,54,69241,blockP,180,2022-02-14_23h38.44.647,orientation adjustment blockP,2021.2.3,MacIntel,60.0024001,,,,,,,
,,,,,,,,,,,,,,,,,,,,,,-41.11111111,52,20,75,46.88888889,5.111111111,2.044444444,0.192114936,-0.30777832,1,0,0,0.1671,submitButton,3.498275862,-0.111139323,-0.381468167,0,0,0,0,43,43,36,1,52,69241,blockP,180,2022-02-14_23h38.44.647,orientation adjustment blockP,2021.2.3,MacIntel,60.0024001,,,,,,,
,,,,,,,,,,,,,,,,,,,,,,-55,40,20,75,42,2,0.8,-0.228787977,-0.405023939,1,0,0,1.1999,submitButton,3.408333333,0.257982449,-0.398595988,1,0,0,0,44,44,24,1,40,69241,blockP,180,2022-02-14_23h38.44.647,orientation adjustment blockP,2021.2.3,MacIntel,60.0024001,continueButton,,,,,,
,,,,,,,,,,,,,,,,,,,,,,33.88888889,58,20,75,71.88888889,13.88888889,5.555555556,0.401956923,-0.298579441,1,0,0,0.4167,submitButton,3.477598566,0.021315782,-0.35931288,0,0,0,0,45,45,42,1,58,69241,blockP,180,2022-02-14_23h38.44.647,orientation adjustment blockP,2021.2.3,MacIntel,60.0024001,,,,,,,
,,,,,,,,,,,,,,,,,,,,,,63.88888889,-37,20,75,124.8888889,18.11111111,11.77222222,-0.166587118,-0.406229587,1,0,0,2.1357,submitButton,3.736805556,0.056385701,-0.318112047,0,0,0,0,46,46,21,1,37,69241,blockP,180,2022-02-14_23h38.44.647,orientation adjustment blockP,2021.2.3,MacIntel,60.0024001,,,,,,,
,,,,,,,,,,,,,,,,,,,,,,74.44444444,-38,20,75,-36.55555556,1.444444444,0.577777778,0.412811551,-0.309181925,1,0,0,0.3011,submitButton,3.641077441,0.000972019,-0.3753734,0,0,0,0,47,47,22,1,38,69241,blockP,180,2022-02-14_23h38.44.647,orientation adjustment blockP,2021.2.3,MacIntel,60.0024001,,,,,,,
,,,,,,,,,,,,,,,,,,,,,,-50,73,20,75,70,3,1.2,-0.144884508,-0.399860975,1,0,0,1.467,submitButton,3.569281046,0.076101345,-0.346587389,0,0,0,0,48,48,57,1,73,69241,blockP,180,2022-02-14_23h38.44.647,orientation adjustment blockP,2021.2.3,MacIntel,60.0024001,,,,,,,
,,,,,,,,,,,,,,,,,,,,,,-28.88888889,-53,20,75,-53.88888889,0.888888889,0.355555556,-0.167572157,-0.426319716,1,0,0,0.7497,submitButton,3.477460317,0.221387668,-0.316189914,0,0,0,0,49,49,37,1,53,69241,blockP,180,2022-02-14_23h38.44.647,orientation adjustment blockP,2021.2.3,MacIntel,60.0024001,,,,,,,
,,,,,,,,,,,,,,,,,,,,,,66.11111111,29,20,75,224.1111111,15.11111111,9.822222222,-0.194132419,-0.398117744,1,0,0,2.784,submitButton,3.653703704,0.070800917,-0.334478014,0,0,0,0,50,50,13,1,29,69241,blockP,180,2022-02-14_23h38.44.647,orientation adjustment blockP,2021.2.3,MacIntel,60.0024001,,,,,,,
,,,,,,,,,,,,,,,,,,,,,,72.22222222,-72,20,75,105.2222222,2.777777778,1.111111111,-0.199033746,-0.397225003,1,0,0,2.2825,submitButton,3.584984985,-0.199033746,-0.397225003,0,0,0,0,51,51,56,1,72,69241,blockP,180,2022-02-14_23h38.44.647,orientation adjustment blockP,2021.2.3,MacIntel,60.0024001,,,,,,,
,,,,,,,,,,,,,,,,,,,,,,-41.66666667,59,20,75,51.33333333,7.666666667,3.066666667,0.435144043,-0.301191203,1,0,0,0.6013,submitButton,3.571345029,-0.218050741,-0.40699056,0,0,0,0,52,52,43,1,59,69241,blockP,180,2022-02-14_23h38.44.647,orientation adjustment blockP,2021.2.3,MacIntel,60.0024001,,,,,,,
,,,,,,,,,,,,,,,,,,,,,,-63.88888889,19,20,75,21.11111111,2.111111111,0.844444444,0.374359266,-0.286422729,1,0,0,0.1683,submitButton,3.501424501,-0.166286079,-0.401276177,0,0,0,0,53,53,3,1,19,69241,blockP,180,2022-02-14_23h38.44.647,orientation adjustment blockP,2021.2.3,MacIntel,60.0024001,,,,,,,
,,,,,,,,,,,,,,,,,,,,,,32.77777778,-65,20,75,-59.22222222,5.777777778,2.311111111,0.408423123,-0.283241306,1,0,0,0.6834,submitButton,3.471666667,0.098107571,-0.322621392,0,0,0,0,54,54,49,1,65,69241,blockP,180,2022-02-14_23h38.44.647,orientation adjustment blockP,2021.2.3,MacIntel,60.0024001,,,,,,,
,,,,,,,,,,,,,,,,,,,,,,23.88888889,74,20,75,63.88888889,10.11111111,4.044444444,0.374625244,-0.311152208,1,0,0,0.1167,submitButton,3.485636856,0.206693793,-0.34032152,0,0,0,0,55,55,58,1,74,69241,blockP,180,2022-02-14_23h38.44.647,orientation adjustment blockP,2021.2.3,MacIntel,60.0024001,,,,,,,
,,,,,,,,,,,,,,,,,,,,,,-52.77777778,-31,20,75,-34.77777778,3.777777778,1.511111111,0.179758233,-0.311171265,1,0,0,1.1512,submitButton,3.438624339,0.104430474,-0.336969604,0,0,0,0,56,56,15,1,31,69241,blockP,180,2022-02-14_23h38.44.647,orientation adjustment blockP,2021.2.3,MacIntel,60.0024001,,,,,,,
,,,,,,,,,,,,,,,,,,,,,,71.66666667,47,20,75,53.66666667,6.666666667,2.666666667,-0.235842556,-0.404401855,1,0,0,1.5505,submitButton,3.420671835,0.004077284,-0.406365153,0,0,0,0,57,57,31,1,47,69241,blockP,180,2022-02-14_23h38.44.647,orientation adjustment blockP,2021.2.3,MacIntel,60.0024001,,,,,,,
,,,,,,,,,,,,,,,,,,,,,,-41.66666667,-60,20,75,-46.66666667,13.33333333,5.333333333,-0.195382284,-0.409636773,1,0,0,1.7174,submitButton,3.464141414,0.080864054,-0.393078478,0,0,0,0,58,58,44,1,60,69241,blockP,180,2022-02-14_23h38.44.647,orientation adjustment blockP,2021.2.3,MacIntel,60.0024001,,,,,,,
,,,,,,,,,,,,,,,,,,,,,,-46.11111111,-24,20,75,-25.11111111,1.111111111,0.444444444,0.17483195,-0.324042426,1,0,0,0.6667,submitButton,3.397037037,0.337445679,-0.401848891,1,0,0,0,59,59,8,1,24,69241,blockP,180,2022-02-14_23h38.44.647,orientation adjustment blockP,2021.2.3,MacIntel,60.0024001,continueButton,,,,,,
,,,,,,,,,,,,,,,,,,,,,,-31.11111111,43,20,75,33.88888889,9.111111111,3.644444444,-0.173781942,-0.377557916,1,0,0,0.9992,submitButton,3.402415459,0.07357822,-0.345767754,0,0,0,1,0,60,27,1,43,69241,blockP,180,2022-02-14_23h38.44.647,orientation adjustment blockP,2021.2.3,MacIntel,60.0024001,,,,,,,
,,,,,,,,,,,,,,,,,,,,,,-27.22222222,-68,20,75,-122.2222222,54.22222222,46.08888889,0.384602186,-0.298394979,1,0,0,1.5849,submitButton,4.310638298,-0.081568875,-0.35989251,0,0,0,1,1,61,52,1,68,69241,blockP,180,2022-02-14_23h38.44.647,orientation adjustment blockP,2021.2.3,MacIntel,60.0024001,,,,,,,
,,,,,,,,,,,,,,,,,,,,,,-47.77777778,28,20,75,18.22222222,9.777777778,3.911111111,-0.165118069,-0.397358398,1,0,0,1.2156,submitButton,4.302314815,-0.00982883,-0.309655694,0,0,0,1,2,62,12,1,28,69241,blockP,180,2022-02-14_23h38.44.647,orientation adjustment blockP,2021.2.3,MacIntel,60.0024001,,,,,,,
,,,,,,,,,,,,,,,,,,,,,,55.55555556,-65,20,75,-45.44444444,19.55555556,12.71111111,0.457982585,-0.297743802,1,0,0,0.0487,submitButton,4.473922902,-0.089028117,-0.321494141,0,0,0,1,3,63,49,1,65,69241,blockP,180,2022-02-14_23h38.44.647,orientation adjustment blockP,2021.2.3,MacIntel,60.0024001,,,,,,,
,,,,,,,,,,,,,,,,,,,,,,42.22222222,-31,20,75,-26.77777778,4.222222222,1.688888889,0.374217529,-0.279399618,1,0,0,0.1676,submitButton,4.418222222,-0.170208198,-0.353643934,0,0,0,1,4,64,15,1,31,69241,blockP,180,2022-02-14_23h38.44.647,orientation adjustment blockP,2021.2.3,MacIntel,60.0024001,,,,,,,
,,,,,,,,,,,,,,,,,,,,,,-22.22222222,60,20,75,59.77777778,0.222222222,0.088888889,-0.167452596,-0.387433539,1,0,0,0.5836,submitButton,4.333333333,0.158119642,-0.332907376,0,0,0,1,5,65,44,1,60,69241,blockP,180,2022-02-14_23h38.44.647,orientation adjustment blockP,2021.2.3,MacIntel,60.0024001,,,,,,,
,,,,,,,,,,,,,,,,,,,,,,-38.33333333,-58,20,75,-60.33333333,2.333333333,0.933333333,0.242313707,-0.309022149,1,0,0,0.3501,submitButton,4.267948718,0.093419732,-0.364323052,0,0,0,1,6,66,42,1,58,69241,blockP,180,2022-02-14_23h38.44.647,orientation adjustment blockP,2021.2.3,MacIntel,60.0024001,,,,,,,
,,,,,,,,,,,,,,,,,,,,,,43.33333333,30,20,75,36.33333333,6.333333333,2.533333333,0.425238715,-0.321129625,1,0,0,0.2521,submitButton,4.235220126,0.036260376,-0.328860067,0,0,0,1,7,67,14,1,30,69241,blockP,180,2022-02-14_23h38.44.647,orientation adjustment blockP,2021.2.3,MacIntel,60.0024001,,,,,,,
,,,,,,,,,,,,,,,,,,,,,,-22.77777778,61,20,75,57.22222222,3.777777778,1.511111111,-0.185361735,-0.396866659,1,0,0,0.8489,submitButton,4.184773663,0.050340441,-0.371489597,0,0,0,1,8,68,45,1,61,69241,blockP,180,2022-02-14_23h38.44.647,orientation adjustment blockP,2021.2.3,MacIntel,60.0024001,,,,,,,
,,,,,,,,,,,,,,,,,,,,,,47.77777778,45,20,75,56.77777778,11.77777778,4.711111111,0.392001682,-0.283844876,1,0,0,0.1797,submitButton,4.194343434,0.018311022,-0.407881266,0,0,0,1,9,69,29,1,45,69241,blockP,180,2022-02-14_23h38.44.647,orientation adjustment blockP,2021.2.3,MacIntel,60.0024001,,,,,,,
,,,,,,,,,,,,,,,,,,,,,,56.66666667,21,20,75,41.66666667,20.66666667,13.43333333,-0.178675401,-0.406783108,1,0,0,1.2162,submitButton,4.359325397,0.032766791,-0.373946804,0,0,0,1,10,70,5,1,21,69241,blockP,180,2022-02-14_23h38.44.647,orientation adjustment blockP,2021.2.3,MacIntel,60.0024001,,,,,,,
,,,,,,,,,,,,,,,,,,,,,,67.77777778,-24,20,75,-21.22222222,2.777777778,1.111111111,0.404334852,-0.288891262,1,0,0,0.0656,submitButton,4.302339181,-0.227086589,-0.391148682,0,0,0,1,11,71,8,1,24,69241,blockP,180,2022-02-14_23h38.44.647,orientation adjustment blockP,2021.2.3,MacIntel,60.0024001,,,,,,,
,,,,,,,,,,,,,,,,,,,,,,-33.88888889,-18,20,75,-23.88888889,5.888888889,2.355555556,0.186507026,-0.291545953,1,0,0,0.7166,submitButton,4.268773946,0.020968085,-0.317767944,0,0,0,1,12,72,2,1,18,69241,blockP,180,2022-02-14_23h38.44.647,orientation adjustment blockP,2021.2.3,MacIntel,60.0024001,,,,,,,
,,,,,,,,,,,,,,,,,,,,,,39.44444444,41,20,75,44.44444444,3.444444444,1.377777778,0.398956028,-0.279421522,1,0,0,0.1675,submitButton,4.219774011,0.034924995,-0.328221571,0,0,0,1,13,73,25,1,41,69241,blockP,180,2022-02-14_23h38.44.647,orientation adjustment blockP,2021.2.3,MacIntel,60.0024001,,,,,,,
,,,,,,,,,,,,,,,,,,,,,,22.22222222,33,20,75,31.22222222,1.777777778,0.711111111,-0.224261814,-0.412301636,1,0,0,1.0333,submitButton,4.161296296,0.339373101,-0.410224202,1,0,0,1,14,74,17,1,33,69241,blockP,180,2022-02-14_23h38.44.647,orientation adjustment blockP,2021.2.3,MacIntel,60.0024001,continueButton,,,,,,
,,,,,,,,,,,,,,,,,,,,,,44.44444444,19,20,75,34.44444444,15.44444444,10.03888889,-0.149872572,-0.328408339,1,0,0,0.8853,submitButton,4.257650273,0.045360921,-0.313749932,0,0,0,1,15,75,3,1,19,69241,blockP,180,2022-02-14_23h38.44.647,orientation adjustment blockP,2021.2.3,MacIntel,60.0024001,,,,,,,
,,,,,,,,,,,,,,,,,,,,,,55.55555556,39,20,75,46.55555556,7.555555556,3.022222222,0.380232069,-0.304769897,1,0,0,0.7802,submitButton,4.237724014,0.005585056,-0.321468031,0,0,0,1,16,76,23,1,39,69241,blockP,180,2022-02-14_23h38.44.647,orientation adjustment blockP,2021.2.3,MacIntel,60.0024001,,,,,,,
,,,,,,,,,,,,,,,,,,,,,,-33.33333333,54,20,75,37.66666667,16.33333333,10.61666667,0.37520969,-0.29822998,1,0,0,0.2003,submitButton,4.338977072,-0.211697184,-0.410333794,0,0,0,1,17,77,38,1,54,69241,blockP,180,2022-02-14_23h38.44.647,orientation adjustment blockP,2021.2.3,MacIntel,60.0024001,,,,,,,
,,,,,,,,,,,,,,,,,,,,,,41.66666667,57,20,75,68.66666667,11.66666667,4.666666667,-0.232082384,-0.441774631,1,0,0,1.1324,submitButton,4.344097222,0.039595812,-0.385389947,0,0,0,1,18,78,41,1,57,69241,blockP,180,2022-02-14_23h38.44.647,orientation adjustment blockP,2021.2.3,MacIntel,60.0024001,,,,,,,
,,,,,,,,,,,,,,,,,,,,,,-56.11111111,-74,20,75,-67.11111111,6.888888889,2.755555556,0.386046956,-0.295167508,1,0,0,0.3799,submitButton,4.31965812,-0.086469184,-0.368916423,0,0,0,1,19,79,58,1,74,69241,blockP,180,2022-02-14_23h38.44.647,orientation adjustment blockP,2021.2.3,MacIntel,60.0024001,,,,,,,
,,,,,,,,,,,,,,,,,,,,,,57.77777778,23,20,75,38.77777778,15.77777778,10.25555556,0.383361274,-0.322683241,1,0,0,0.0665,submitButton,4.40959596,-0.223523627,-0.405989109,0,0,0,1,20,80,7,1,23,69241,blockP,180,2022-02-14_23h38.44.647,orientation adjustment blockP,2021.2.3,MacIntel,60.0024001,,,,,,,
,,,,,,,,,,,,,,,,,,,,,,28.88888889,34,20,75,39.88888889,5.888888889,2.355555556,0.419790582,-0.316480374,1,0,0,0.1006,submitButton,4.37893864,-0.212303738,-0.411907077,0,0,0,1,21,81,18,1,34,69241,blockP,180,2022-02-14_23h38.44.647,orientation adjustment blockP,2021.2.3,MacIntel,60.0024001,,,,,,,
,,,,,,,,,,,,,,,,,,,,,,-49.44444444,64,20,75,70.55555556,6.555555556,2.622222222,0.196069472,-0.2960751,1,0,0,0.835,submitButton,4.353104575,0.063090752,-0.382175293,0,0,0,1,22,82,48,1,64,69241,blockP,180,2022-02-14_23h38.44.647,orientation adjustment blockP,2021.2.3,MacIntel,60.0024001,,,,,,,
,,,,,,,,,,,,,,,,,,,,,,32.22222222,-63,20,75,-49.77777778,13.22222222,5.288888889,0.372002767,-0.298878581,1,0,0,0.1648,submitButton,4.366666667,-0.149635552,-0.360755954,0,0,0,1,23,83,47,1,63,69241,blockP,180,2022-02-14_23h38.44.647,orientation adjustment blockP,2021.2.3,MacIntel,60.0024001,,,,,,,
,,,,,,,,,,,,,,,,,,,,,,23.33333333,-71,20,75,-59.66666667,11.33333333,4.533333333,-0.217077772,-0.39909729,1,0,0,0.8151,submitButton,4.369047619,-0.217077772,-0.39909729,0,0,0,1,24,84,55,1,71,69241,blockP,180,2022-02-14_23h38.44.647,orientation adjustment blockP,2021.2.3,MacIntel,60.0024001,,,,,,,
,,,,,,,,,,,,,,,,,,,,,,-57.77777778,40,20,75,35.22222222,4.777777778,1.911111111,-0.243552585,-0.42157369,1,0,0,1.3656,submitButton,4.334428795,0.012052002,-0.394445801,0,0,0,1,25,85,24,1,40,69241,blockP,180,2022-02-14_23h38.44.647,orientation adjustment blockP,2021.2.3,MacIntel,60.0024001,,,,,,,
,,,,,,,,,,,,,,,,,,,,,,31.11111111,20,20,75,31.11111111,11.11111111,4.444444444,0.377222765,-0.301584608,1,0,0,0.1354,submitButton,4.33595679,-0.242349921,-0.416202393,0,0,0,1,26,86,4,1,20,69241,blockP,180,2022-02-14_23h38.44.647,orientation adjustment blockP,2021.2.3,MacIntel,60.0024001,,,,,,,
,,,,,,,,,,,,,,,,,,,,,,30.55555556,22,20,75,28.55555556,6.555555556,2.622222222,0.398634169,-0.310274116,1,0,0,0.0643,submitButton,4.312480974,0.025117662,-0.335831095,0,0,0,1,27,87,6,1,22,69241,blockP,180,2022-02-14_23h38.44.647,orientation adjustment blockP,2021.2.3,MacIntel,60.0024001,,,,,,,
,,,,,,,,,,,,,,,,,,,,,,-67.77777778,52,20,75,35.22222222,16.77777778,10.90555556,0.214818251,-0.311483222,1,0,0,0.3655,submitButton,4.401576577,-0.261140238,-0.380872735,0,0,0,1,28,88,36,1,52,69241,blockP,180,2022-02-14_23h38.44.647,orientation adjustment blockP,2021.2.3,MacIntel,60.0024001,,,,,,,
,,,,,,,,,,,,,,,,,,,,,,52.22222222,69,20,75,234.2222222,14.77777778,5.911111111,-0.277521973,-0.397803345,1,0,0,2.6187,submitButton,4.421703704,0.467056885,-0.411127523,1,0,0,1,29,89,53,1,69,69241,blockP,180,2022-02-14_23h38.44.647,orientation adjustment blockP,2021.2.3,MacIntel,60.0024001,continueButton,,,,,,
,,,,,,,,,,,,,,,,,,,,,,35,-56,20,75,-50,6,2.4,-0.190533651,-0.417117106,1,0,0,1.1661,submitButton,4.395102339,-0.190533651,-0.417117106,0,0,0,1,30,90,40,1,56,69241,blockP,180,2022-02-14_23h38.44.647,orientation adjustment blockP,2021.2.3,MacIntel,60.0024001,,,,,,,
,,,,,,,,,,,,,,,,,,,,,,-71.11111111,25,20,75,26.88888889,1.888888889,0.755555556,-0.147801378,-0.401787381,1,0,0,1.6009,submitButton,4.347835498,0.037387627,-0.31905504,0,0,0,1,31,91,9,1,25,69241,blockP,180,2022-02-14_23h38.44.647,orientation adjustment blockP,2021.2.3,MacIntel,60.0024001,,,,,,,
,,,,,,,,,,,,,,,,,,,,,,24.44444444,-75,20,75,-70.55555556,4.444444444,1.777777778,-0.192847765,-0.375787625,1,0,0,0.8016,submitButton,4.31488604,0.045730659,-0.3043514,0,0,0,1,32,92,59,1,75,69241,blockP,180,2022-02-14_23h38.44.647,orientation adjustment blockP,2021.2.3,MacIntel,60.0024001,,,,,,,
,,,,,,,,,,,,,,,,,,,,,,-60.55555556,-46,20,75,-212.5555556,13.44444444,5.377777778,-0.250910882,-0.380607435,1,0,0,2.432,submitButton,4.328340366,0.048704224,-0.245438029,0,0,0,1,33,93,30,1,46,69241,blockP,180,2022-02-14_23h38.44.647,orientation adjustment blockP,2021.2.3,MacIntel,60.0024001,,,,,,,
,,,,,,,,,,,,,,,,,,,,,,60.55555556,38,20,75,213.5555556,4.444444444,1.777777778,-0.140294664,-0.373174438,1,0,0,2.0688,submitButton,4.296458333,0.133703139,-0.30231425,0,0,0,1,34,94,22,1,38,69241,blockP,180,2022-02-14_23h38.44.647,orientation adjustment blockP,2021.2.3,MacIntel,60.0024001,,,,,,,
,,,,,,,,,,,,,,,,,,,,,,-46.11111111,-66,20,75,-226.1111111,19.88888889,12.92777778,-0.228736233,-0.399326918,1,0,0,2.1324,submitButton,4.403017833,0.085482313,-0.373570421,0,0,0,1,35,95,50,1,66,69241,blockP,180,2022-02-14_23h38.44.647,orientation adjustment blockP,2021.2.3,MacIntel,60.0024001,,,,,,,
,,,,,,,,,,,,,,,,,,,,,,72.77777778,-17,20,75,-19.22222222,2.222222222,0.888888889,-0.370042013,-0.402411024,1,0,0,1.551,submitButton,4.360162602,-0.01052341,-0.310573934,0,0,0,1,36,96,1,1,17,69241,blockP,180,2022-02-14_23h38.44.647,orientation adjustment blockP,2021.2.3,MacIntel,60.0024001,,,,,,,
,,,,,,,,,,,,,,,,,,,,,,-42.22222222,48,20,75,36.77777778,11.22222222,4.488888889,-0.222503662,-0.407973904,1,0,0,0.6319,submitButton,4.361713521,0.141514757,-0.365734117,0,0,0,1,37,97,32,1,48,69241,blockP,180,2022-02-14_23h38.44.647,orientation adjustment blockP,2021.2.3,MacIntel,60.0024001,,,,,,,
,,,,,,,,,,,,,,,,,,,,,,-67.22222222,32,20,75,26.77777778,5.222222222,2.088888889,-0.160102403,-0.40350057,1,0,0,1.2512,submitButton,4.334656085,0.119455566,-0.280449083,0,0,0,1,38,98,16,1,32,69241,blockP,180,2022-02-14_23h38.44.647,orientation adjustment blockP,2021.2.3,MacIntel,60.0024001,,,,,,,
,,,,,,,,,,,,,,,,,,,,,,32.77777778,-50,20,75,-39.22222222,10.77777778,4.311111111,-0.243337335,-0.42512736,1,0,0,0.6675,submitButton,4.334379085,0.039575941,-0.357104357,0,0,0,1,39,99,34,1,50,69241,blockP,180,2022-02-14_23h38.44.647,orientation adjustment blockP,2021.2.3,MacIntel,60.0024001,,,,,,,
,,,,,,,,,,,,,,,,,,,,,,-22.22222222,44,20,75,43.77777778,0.222222222,0.088888889,-0.174139404,-0.382470364,1,0,0,0.4499,submitButton,4.28501292,0.001326904,-0.341753065,0,0,0,1,40,100,28,1,44,69241,blockP,180,2022-02-14_23h38.44.647,orientation adjustment blockP,2021.2.3,MacIntel,60.0024001,,,,,,,
,,,,,,,,,,,,,,,,,,,,,,-65,29,20,75,24,5,2,-0.222216458,-0.399212307,1,0,0,1.3691,submitButton,4.258748404,0.108630371,-0.301416558,0,0,0,1,41,101,13,1,29,69241,blockP,180,2022-02-14_23h38.44.647,orientation adjustment blockP,2021.2.3,MacIntel,60.0024001,,,,,,,
,,,,,,,,,,,,,,,,,,,,,,-51.66666667,62,20,75,50.33333333,11.66666667,4.666666667,0.184197184,-0.298281793,1,0,0,0.4647,submitButton,4.263383838,-0.052200928,-0.343834771,0,0,0,1,42,102,46,1,62,69241,blockP,180,2022-02-14_23h38.44.647,orientation adjustment blockP,2021.2.3,MacIntel,60.0024001,,,,,,,
,,,,,,,,,,,,,,,,,,,,,,-47.77777778,53,20,75,56.22222222,3.222222222,1.288888889,0.182291531,-0.316799859,1,0,0,0.7334,submitButton,4.229962547,0.058984782,-0.340961846,0,0,0,1,43,103,37,1,53,69241,blockP,180,2022-02-14_23h38.44.647,orientation adjustment blockP,2021.2.3,MacIntel,60.0024001,,,,,,,
,,,,,,,,,,,,,,,,,,,,,,-33.88888889,42,20,75,40.11111111,1.888888889,0.755555556,-0.18642551,-0.389172295,1,0,0,0.9011,submitButton,4.191358025,0.294355943,-0.396386108,1,0,0,1,44,104,26,1,42,69241,blockP,180,2022-02-14_23h38.44.647,orientation adjustment blockP,2021.2.3,MacIntel,60.0024001,continueButton,,,,,,
,,,,,,,,,,,,,,,,,,,,,,53.33333333,35,20,75,49.33333333,14.33333333,5.733333333,0.421021864,-0.316453179,1,0,0,0.4003,submitButton,4.208302808,0.107399089,-0.347887709,0,0,0,1,45,105,19,1,35,69241,blockP,180,2022-02-14_23h38.44.647,orientation adjustment blockP,2021.2.3,MacIntel,60.0024001,,,,,,,
,,,,,,,,,,,,,,,,,,,,,,-63.33333333,73,20,75,66.66666667,6.333333333,2.533333333,0.198384467,-0.294682821,1,0,0,0.7664,submitButton,4.190096618,0.179144626,-0.349958225,0,0,0,1,46,106,57,1,73,69241,blockP,180,2022-02-14_23h38.44.647,orientation adjustment blockP,2021.2.3,MacIntel,60.0024001,,,,,,,
,,,,,,,,,,,,,,,,,,,,,,-66.11111111,55,20,75,42.88888889,12.11111111,4.844444444,-0.175533108,-0.395310059,1,0,0,1.2835,submitButton,4.197132616,0.113898722,-0.332847154,0,0,0,1,47,107,39,1,55,69241,blockP,180,2022-02-14_23h38.44.647,orientation adjustment blockP,2021.2.3,MacIntel,60.0024001,,,,,,,
,,,,,,,,,,,,,,,,,,,,,,-27.22222222,-72,20,75,-54.22222222,17.77777778,11.55555556,-0.168291423,-0.40903734,1,0,0,1.3491,submitButton,4.275413712,0.125903727,-0.34545756,0,0,0,1,48,108,56,1,72,69241,blockP,180,2022-02-14_23h38.44.647,orientation adjustment blockP,2021.2.3,MacIntel,60.0024001,,,,,,,
,,,,,,,,,,,,,,,,,,,,,,-43.88888889,-26,20,75,-20.88888889,5.111111111,2.044444444,0.158448486,-0.294077623,1,0,0,0.6161,submitButton,4.251929825,0.04264011,-0.365691732,0,0,0,1,49,109,10,1,26,69241,blockP,180,2022-02-14_23h38.44.647,orientation adjustment blockP,2021.2.3,MacIntel,60.0024001,,,,,,,
,,,,,,,,,,,,,,,,,,,,,,-24.44444444,-47,20,75,-40.44444444,6.555555556,2.622222222,-0.135174628,-0.429385173,1,0,0,0.6834,submitButton,4.234953704,0.057051934,-0.381952447,0,0,0,1,50,110,31,1,47,69241,blockP,180,2022-02-14_23h38.44.647,orientation adjustment blockP,2021.2.3,MacIntel,60.0024001,,,,,,,
,,,,,,,,,,,,,,,,,,,,,,41.66666667,59,20,75,55.66666667,3.333333333,1.333333333,-0.210224338,-0.387558187,1,0,0,1.3512,submitButton,4.205040092,0.075488146,-0.381972928,0,0,0,1,51,111,43,1,59,69241,blockP,180,2022-02-14_23h38.44.647,orientation adjustment blockP,2021.2.3,MacIntel,60.0024001,,,,,,,
,,,,,,,,,,,,,,,,,,,,,,45,37,20,75,47,10,4,-0.194033746,-0.425015259,1,0,0,0.9849,submitButton,4.202947846,0.147984077,-0.38818434,0,0,0,1,52,112,21,1,37,69241,blockP,180,2022-02-14_23h38.44.647,orientation adjustment blockP,2021.2.3,MacIntel,60.0024001,,,,,,,
,,,,,,,,,,,,,,,,,,,,,,60,-70,20,75,-61,9,3.6,0.392573378,-0.286380819,1,0,0,0.0835,submitButton,4.196857464,0.128794895,-0.388372531,0,0,0,1,53,113,54,1,70,69241,blockP,180,2022-02-14_23h38.44.647,orientation adjustment blockP,2021.2.3,MacIntel,60.0024001,,,,,,,
,,,,,,,,,,,,,,,,,,,,,,53.88888889,49,20,75,42.88888889,6.111111111,2.444444444,-0.218235067,-0.416056654,1,0,0,1.3523,submitButton,4.179333333,-0.218235067,-0.416056654,0,0,0,1,54,114,33,1,49,69241,blockP,180,2022-02-14_23h38.44.647,orientation adjustment blockP,2021.2.3,MacIntel,60.0024001,,,,,,,
,,,,,,,,,,,,,,,,,,,,,,-62.22222222,-36,20,75,-25.22222222,10.77777778,4.311111111,-0.166510552,-0.381001316,1,0,0,1.8508,submitButton,4.180638064,0.10855306,-0.336495361,0,0,0,1,55,115,20,1,36,69241,blockP,180,2022-02-14_23h38.44.647,orientation adjustment blockP,2021.2.3,MacIntel,60.0024001,,,,,,,
,,,,,,,,,,,,,,,,,,,,,,-39.44444444,16,20,75,-158.4444444,5.555555556,2.222222222,0.414567735,-0.299722629,1,0,0,2.0819,submitButton,4.161437908,0.138641018,-0.327393934,0,0,0,1,56,116,0,1,16,69241,blockP,180,2022-02-14_23h38.44.647,orientation adjustment blockP,2021.2.3,MacIntel,60.0024001,,,,,,,
,,,,,,,,,,,,,,,,,,,,,,-41.11111111,51,20,75,38.88888889,12.11111111,4.844444444,0.185938653,-0.298918389,1,0,0,0.7845,submitButton,4.16806904,0.108614909,-0.361886732,0,0,0,1,57,117,35,1,51,69241,blockP,180,2022-02-14_23h38.44.647,orientation adjustment blockP,2021.2.3,MacIntel,60.0024001,,,,,,,
,,,,,,,,,,,,,,,,,,,,,,28.88888889,27,20,75,38.88888889,11.88888889,4.755555556,0.379934896,-0.298088921,1,0,0,0.4824,submitButton,4.173717949,0.089974772,-0.394812554,0,0,0,1,58,118,11,1,27,69241,blockP,180,2022-02-14_23h38.44.647,orientation adjustment blockP,2021.2.3,MacIntel,60.0024001,,,,,,,
,,,,,,,,,,,,,,,,,,,,,,-32.22222222,-67,20,75,-53.22222222,13.77777778,5.511111111,0.179934489,-0.331308119,1,0,0,0.833,submitButton,4.186455026,0.273377075,-0.391141697,1,0,0,1,59,119,51,1,67,69241,blockP,180,2022-02-14_23h38.44.647,orientation adjustment blockP,2021.2.3,MacIntel,60.0024001,continueButton,,,,,,
,,,,,,,,,,,,,,,,,,,,,,-28.33333333,-43,20,75,-40.33333333,2.666666667,1.066666667,0.184604967,-0.302159763,1,0,0,0.5325,submitButton,4.157023061,0.104658135,-0.351839125,0,0,0,2,0,120,27,1,43,69241,blockP,180,2022-02-14_23h38.44.647,orientation adjustment blockP,2021.2.3,MacIntel,60.0024001,,,,,,,
,,,,,,,,,,,,,,,,,,,,,,58.33333333,-47,20,75,-32.66666667,14.33333333,5.733333333,0.423098551,-0.306496243,1,0,0,0.3669,submitButton,4.171754933,0.050364041,-0.375203044,0,0,0,2,1,121,31,1,47,69241,blockP,180,2022-02-14_23h38.44.647,orientation adjustment blockP,2021.2.3,MacIntel,60.0024001,,,,,,,
,,,,,,,,,,,,,,,,,,,,,,-57.77777778,23,20,75,34.22222222,11.22222222,4.488888889,0.194368015,-0.302833252,1,0,0,0.0163,submitButton,4.174691358,0.065596653,-0.383115845,0,0,0,2,2,122,7,1,23,69241,blockP,180,2022-02-14_23h38.44.647,orientation adjustment blockP,2021.2.3,MacIntel,60.0024001,,,,,,,
,,,,,,,,,,,,,,,,,,,,,,57.22222222,72,20,75,56.22222222,15.77777778,10.25555556,-0.28324056,-0.419684313,1,0,0,1.7325,submitButton,4.230479103,0.10734687,-0.345061781,0,0,0,2,3,123,56,1,72,69241,blockP,180,2022-02-14_23h38.44.647,orientation adjustment blockP,2021.2.3,MacIntel,60.0024001,,,,,,,
,,,,,,,,,,,,,,,,,,,,,,-57.22222222,74,20,75,68.77777778,5.222222222,2.088888889,-0.24064938,-0.423822089,1,0,0,1.668,submitButton,4.211010101,-0.010526666,-0.360049913,0,0,0,2,4,124,58,1,74,69241,blockP,180,2022-02-14_23h38.44.647,orientation adjustment blockP,2021.2.3,MacIntel,60.0024001,,,,,,,
,,,,,,,,,,,,,,,,,,,,,,31.66666667,19,20,75,23.66666667,4.666666667,1.866666667,-0.210626289,-0.383352525,1,0,0,0.6501,submitButton,4.18988989,0.106559923,-0.340278388,0,0,0,2,5,125,3,1,19,69241,blockP,180,2022-02-14_23h38.44.647,orientation adjustment blockP,2021.2.3,MacIntel,60.0024001,,,,,,,
,,,,,,,,,,,,,,,,,,,,,,-56.66666667,-62,20,75,-48.66666667,13.33333333,5.333333333,-0.191126709,-0.401848891,1,0,0,1.3338,submitButton,4.200099206,0.034545627,-0.360808241,0,0,0,2,6,126,46,1,62,69241,blockP,180,2022-02-14_23h38.44.647,orientation adjustment blockP,2021.2.3,MacIntel,60.0024001,,,,,,,
,,,,,,,,,,,,,,,,,,,,,,31.66666667,-48,20,75,-49.33333333,1.333333333,0.533333333,0.373350152,-0.310188056,1,0,0,0.0502,submitButton,4.167649951,0.031478339,-0.354544,0,0,0,2,7,127,32,1,48,69241,blockP,180,2022-02-14_23h38.44.647,orientation adjustment blockP,2021.2.3,MacIntel,60.0024001,,,,,,,
,,,,,,,,,,,,,,,,,,,,,,-63.33333333,56,20,75,40.66666667,15.33333333,9.966666667,0.14873386,-0.321609429,1,0,0,0.1324,submitButton,4.218518519,0.126577555,-0.35306722,0,0,0,2,8,128,40,1,56,69241,blockP,180,2022-02-14_23h38.44.647,orientation adjustment blockP,2021.2.3,MacIntel,60.0024001,,,,,,,
,,,,,,,,,,,,,,,,,,,,,,-27.22222222,-18,20,75,-16.22222222,1.777777778,0.711111111,-0.193062609,-0.384771729,1,0,0,1.1319,submitButton,4.188019324,0.04429267,-0.367077569,0,0,0,2,9,129,2,1,18,69241,blockP,180,2022-02-14_23h38.44.647,orientation adjustment blockP,2021.2.3,MacIntel,60.0024001,,,,,,,
,,,,,,,,,,,,,,,,,,,,,,-34.44444444,-27,20,75,-15.44444444,11.55555556,4.622222222,0.173248969,-0.327509833,1,0,0,0.601,submitButton,4.191762452,-0.048826904,-0.358056912,0,0,0,2,10,130,11,1,27,69241,blockP,180,2022-02-14_23h38.44.647,orientation adjustment blockP,2021.2.3,MacIntel,60.0024001,,,,,,,
,,,,,,,,,,,,,,,,,,,,,,-41.66666667,-61,20,75,-60.66666667,0.333333333,0.133333333,-0.166019151,-0.413801744,1,0,0,1.1679,submitButton,4.157075024,0.020414903,-0.404673123,0,0,0,2,11,131,45,1,61,69241,blockP,180,2022-02-14_23h38.44.647,orientation adjustment blockP,2021.2.3,MacIntel,60.0024001,,,,,,,
,,,,,,,,,,,,,,,,,,,,,,-21.11111111,73,20,75,74.88888889,1.888888889,0.755555556,0.198828125,-0.301965603,1,0,0,0.118,submitButton,4.128248588,0.016518826,-0.405856798,0,0,0,2,12,132,57,1,73,69241,blockP,180,2022-02-14_23h38.44.647,orientation adjustment blockP,2021.2.3,MacIntel,60.0024001,,,,,,,
,,,,,,,,,,,,,,,,,,,,,,-22.22222222,-44,20,75,-38.22222222,5.777777778,2.311111111,-0.210717638,-0.386737128,1,0,0,0.5684,submitButton,4.112978525,0.017383219,-0.384371948,0,0,0,2,13,133,28,1,44,69241,blockP,180,2022-02-14_23h38.44.647,orientation adjustment blockP,2021.2.3,MacIntel,60.0024001,,,,,,,
,,,,,,,,,,,,,,,,,,,,,,41.11111111,33,20,75,37.11111111,4.111111111,1.644444444,-0.196083645,-0.386259155,1,0,0,0.8676,submitButton,4.092407407,0.311439209,-0.399916992,1,0,0,2,14,134,17,1,33,69241,blockP,180,2022-02-14_23h38.44.647,orientation adjustment blockP,2021.2.3,MacIntel,60.0024001,continueButton,,,,,,
,,,,,,,,,,,,,,,,,,,,,,38.88888889,30,20,75,34.88888889,4.888888889,1.955555556,-0.119317966,-0.384151544,1,0,0,0.716,submitButton,4.074747475,0.166270142,-0.333222249,0,0,0,2,15,135,14,1,30,69241,blockP,180,2022-02-14_23h38.44.647,orientation adjustment blockP,2021.2.3,MacIntel,60.0024001,,,,,,,
,,,,,,,,,,,,,,,,,,,,,,-41.11111111,-71,20,75,-47.11111111,23.88888889,15.52777778,-0.179221191,-0.398636678,1,0,0,1.1839,submitButton,4.168624772,0.158759766,-0.339635417,0,0,0,2,16,136,55,1,71,69241,blockP,180,2022-02-14_23h38.44.647,orientation adjustment blockP,2021.2.3,MacIntel,60.0024001,,,,,,,
,,,,,,,,,,,,,,,,,,,,,,-62.22222222,-17,20,75,-15.22222222,1.777777778,0.711111111,-0.175188327,-0.375467801,1,0,0,1.0167,submitButton,4.140514905,0.051759915,-0.324396634,0,0,0,2,17,137,1,1,17,69241,blockP,180,2022-02-14_23h38.44.647,orientation adjustment blockP,2021.2.3,MacIntel,60.0024001,,,,,,,
,,,,,,,,,,,,,,,,,,,,,,28.33333333,52,20,75,38.33333333,13.66666667,5.466666667,-0.28420261,-0.402904121,1,0,0,0.8141,submitButton,4.151209677,0.104717136,-0.307628988,0,0,0,2,18,138,36,1,52,69241,blockP,180,2022-02-14_23h38.44.647,orientation adjustment blockP,2021.2.3,MacIntel,60.0024001,,,,,,,
,,,,,,,,,,,,,,,,,,,,,,-69.44444444,67,20,75,50.55555556,16.44444444,10.68888889,0.184786513,-0.317563883,1,0,0,0.0666,submitButton,4.203511111,0.141887139,-0.328387383,0,0,0,2,19,139,51,1,67,69241,blockP,180,2022-02-14_23h38.44.647,orientation adjustment blockP,2021.2.3,MacIntel,60.0024001,,,,,,,
,,,,,,,,,,,,,,,,,,,,,,40,40,20,75,44,4,1.6,0.358667806,-0.286936239,1,0,0,0.4337,submitButton,4.182848325,0.114721748,-0.353308784,0,0,0,2,20,140,24,1,40,69241,blockP,180,2022-02-14_23h38.44.647,orientation adjustment blockP,2021.2.3,MacIntel,60.0024001,,,,,,,
,,,,,,,,,,,,,,,,,,,,,,40,-51,20,75,-51,0,0,0.380023058,-0.280180257,1,0,0,0.2503,submitButton,4.149912511,0.077380371,-0.318125475,0,0,0,2,21,141,35,1,51,69241,blockP,180,2022-02-14_23h38.44.647,orientation adjustment blockP,2021.2.3,MacIntel,60.0024001,,,,,,,
,,,,,,,,,,,,,,,,,,,,,,66.11111111,-21,20,75,-27.88888889,6.888888889,2.755555556,0.366287571,-0.278299493,1,0,0,0.0488,submitButton,4.139019097,0.00984904,-0.35210239,0,0,0,2,22,142,5,1,21,69241,blockP,180,2022-02-14_23h38.44.647,orientation adjustment blockP,2021.2.3,MacIntel,60.0024001,,,,,,,
,,,,,,,,,,,,,,,,,,,,,,-57.22222222,60,20,75,45.77777778,14.22222222,5.688888889,-0.234345771,-0.374353841,1,0,0,1.1173,submitButton,4.151033592,-0.007901272,-0.35178833,0,0,0,2,23,143,44,1,60,69241,blockP,180,2022-02-14_23h38.44.647,orientation adjustment blockP,2021.2.3,MacIntel,60.0024001,,,,,,,
,,,,,,,,,,,,,,,,,,,,,,57.22222222,25,20,75,39.22222222,14.22222222,5.688888889,-0.25352868,-0.396768663,1,0,0,1.1819,submitButton,4.162863248,0.051116808,-0.380764296,0,0,0,2,24,144,9,1,25,69241,blockP,180,2022-02-14_23h38.44.647,orientation adjustment blockP,2021.2.3,MacIntel,60.0024001,,,,,,,
,,,,,,,,,,,,,,,,,,,,,,60,-46,20,75,-44,2,0.8,-0.311389838,-0.389736396,1,0,0,1.6672,submitButton,4.137192536,-0.311389838,-0.389736396,0,0,0,2,25,145,30,1,46,69241,blockP,180,2022-02-14_23h38.44.647,orientation adjustment blockP,2021.2.3,MacIntel,60.0024001,,,,,,,
,,,,,,,,,,,,,,,,,,,,,,25,-16,20,75,-28,12,4.8,-0.315806071,-0.367144301,1,0,0,1.0663,submitButton,4.142213805,-0.050201823,-0.310310126,0,0,0,2,26,146,0,1,16,69241,blockP,180,2022-02-14_23h38.44.647,orientation adjustment blockP,2021.2.3,MacIntel,60.0024001,,,,,,,
,,,,,,,,,,,,,,,,,,,,,,75,-41,20,75,-24,17,11.05,-0.318050537,-0.403647393,1,0,0,1.4845,submitButton,4.194152047,-0.055432129,-0.391562025,0,0,0,2,27,147,25,1,41,69241,blockP,180,2022-02-14_23h38.44.647,orientation adjustment blockP,2021.2.3,MacIntel,60.0024001,,,,,,,
,,,,,,,,,,,,,,,,,,,,,,42.77777778,31,20,75,42.77777778,11.77777778,4.711111111,0.378947483,-0.285195313,1,0,0,0.2327,submitButton,4.19800995,0.015494792,-0.381615736,0,0,0,2,28,148,15,1,31,69241,blockP,180,2022-02-14_23h38.44.647,orientation adjustment blockP,2021.2.3,MacIntel,60.0024001,,,,,,,
,,,,,,,,,,,,,,,,,,,,,,46.66666667,34,20,75,31.66666667,2.333333333,0.933333333,-0.329610257,-0.396531576,1,0,0,1.1501,submitButton,4.17382716,0.32240899,-0.408715346,1,0,0,2,29,149,18,1,34,69241,blockP,180,2022-02-14_23h38.44.647,orientation adjustment blockP,2021.2.3,MacIntel,60.0024001,continueButton,,,,,,
,,,,,,,,,,,,,,,,,,,,,,54.44444444,-54,20,75,-36.55555556,17.44444444,11.33888889,0.388682183,-0.308500773,1,0,0,0.1664,submitButton,4.226511438,0.08193278,-0.350180868,0,0,0,2,30,150,38,1,54,69241,blockP,180,2022-02-14_23h38.44.647,orientation adjustment blockP,2021.2.3,MacIntel,60.0024001,,,,,,,
,,,,,,,,,,,,,,,,,,,,,,-32.22222222,-53,20,75,-226.2222222,6.777777778,2.711111111,-0.317176141,-0.407552626,1,0,0,2.8164,submitButton,4.215450122,-0.05799018,-0.370597534,0,0,0,2,31,151,37,1,53,69241,blockP,180,2022-02-14_23h38.44.647,orientation adjustment blockP,2021.2.3,MacIntel,60.0024001,,,,,,,
,,,,,,,,,,,,,,,,,,,,,,-26.66666667,-66,20,75,-57.66666667,8.333333333,3.333333333,-0.202005208,-0.367017415,1,0,0,0.7853,submitButton,4.209057971,0.099755995,-0.319330173,0,0,0,2,32,152,50,1,66,69241,blockP,180,2022-02-14_23h38.44.647,orientation adjustment blockP,2021.2.3,MacIntel,60.0024001,,,,,,,
,,,,,,,,,,,,,,,,,,,,,,58.88888889,42,20,75,32.88888889,9.111111111,3.644444444,-0.237021179,-0.420664741,1,0,0,1.5665,submitButton,4.204996003,0.102744683,-0.346118503,0,0,0,2,33,153,26,1,42,69241,blockP,180,2022-02-14_23h38.44.647,orientation adjustment blockP,2021.2.3,MacIntel,60.0024001,,,,,,,
,,,,,,,,,,,,,,,,,,,,,,-31.66666667,-58,20,75,-52.66666667,5.333333333,2.133333333,-0.198423598,-0.407517158,1,0,0,0.7652,submitButton,4.190198413,0.063420275,-0.354421115,0,0,0,2,34,154,42,1,58,69241,blockP,180,2022-02-14_23h38.44.647,orientation adjustment blockP,2021.2.3,MacIntel,60.0024001,,,,,,,
,,,,,,,,,,,,,,,,,,,,,,48.33333333,-37,20,75,-29.66666667,7.333333333,2.933333333,0.407202013,-0.311555718,1,0,0,0.1313,submitButton,4.181284476,0.068513251,-0.367734443,0,0,0,2,35,155,21,1,37,69241,blockP,180,2022-02-14_23h38.44.647,orientation adjustment blockP,2021.2.3,MacIntel,60.0024001,,,,,,,
,,,,,,,,,,,,,,,,,,,,,,25,57,20,75,58,1,0.4,-0.293426242,-0.419237671,1,0,0,1.081,submitButton,4.154655712,0.035740763,-0.384439494,0,0,0,2,36,156,41,1,57,69241,blockP,180,2022-02-14_23h38.44.647,orientation adjustment blockP,2021.2.3,MacIntel,60.0024001,,,,,,,
,,,,,,,,,,,,,,,,,,,,,,63.88888889,-22,20,75,-23.11111111,1.111111111,0.444444444,-0.288716634,-0.412627089,1,0,0,1.5364,submitButton,4.128710179,0.06240682,-0.370180257,0,0,0,2,37,157,6,1,22,69241,blockP,180,2022-02-14_23h38.44.647,orientation adjustment blockP,2021.2.3,MacIntel,60.0024001,,,,,,,
,,,,,,,,,,,,,,,,,,,,,,71.11111111,35,20,75,219.1111111,4.111111111,1.644444444,0.200620049,-0.307410278,1,0,0,0.0665,submitButton,4.111458333,-0.047322523,-0.434393853,0,0,0,2,38,158,19,1,35,69241,blockP,180,2022-02-14_23h38.44.647,orientation adjustment blockP,2021.2.3,MacIntel,60.0024001,,,,,,,
,,,,,,,,,,,,,,,,,,,,,,38.88888889,68,20,75,237.8888889,10.11111111,4.044444444,0.182011041,-0.292046373,1,0,0,2.5657,submitButton,4.110996169,-0.187324761,-0.417666016,0,0,0,2,39,159,52,1,68,69241,blockP,180,2022-02-14_23h38.44.647,orientation adjustment blockP,2021.2.3,MacIntel,60.0024001,,,,,,,
,,,,,,,,,,,,,,,,,,,,,,54.44444444,26,20,75,43.44444444,17.44444444,11.33888889,-0.2734493,-0.405538534,1,0,0,1.15,submitButton,4.160502283,-0.2734493,-0.405538534,0,0,0,2,40,160,10,1,26,69241,blockP,180,2022-02-14_23h38.44.647,orientation adjustment blockP,2021.2.3,MacIntel,60.0024001,,,,,,,
,,,,,,,,,,,,,,,,,,,,,,-44.44444444,-59,20,75,-216.4444444,22.55555556,14.66111111,0.416512316,-0.314079658,1,0,0,0.6176,submitButton,4.231934996,0.0151376,-0.370669963,0,0,0,2,41,161,43,1,59,69241,blockP,180,2022-02-14_23h38.44.647,orientation adjustment blockP,2021.2.3,MacIntel,60.0024001,,,,,,,
,,,,,,,,,,,,,,,,,,,,,,29.44444444,20,20,75,31.44444444,11.44444444,4.577777778,0.397005073,-0.279716797,1,0,0,0.1,submitButton,4.234271772,-0.011888428,-0.394065416,0,0,0,2,42,162,4,1,20,69241,blockP,180,2022-02-14_23h38.44.647,orientation adjustment blockP,2021.2.3,MacIntel,60.0024001,,,,,,,
,,,,,,,,,,,,,,,,,,,,,,-67.22222222,29,20,75,-151.2222222,0.222222222,0.088888889,-0.343158298,-0.404285211,1,0,0,2.4331,submitButton,4.20645041,-0.047202827,-0.40096422,0,0,0,2,43,163,13,1,29,69241,blockP,180,2022-02-14_23h38.44.647,orientation adjustment blockP,2021.2.3,MacIntel,60.0024001,,,,,,,
,,,,,,,,,,,,,,,,,,,,,,43.33333333,63,20,75,48.33333333,14.66666667,5.866666667,-0.283933919,-0.428816867,1,0,0,1.4658,submitButton,4.217518519,0.285082194,-0.404852431,1,0,0,2,44,164,47,1,63,69241,blockP,180,2022-02-14_23h38.44.647,orientation adjustment blockP,2021.2.3,MacIntel,60.0024001,continueButton,,,,,,
,,,,,,,,,,,,,,,,,,,,,,-66.11111111,75,20,75,52.88888889,22.11111111,14.37222222,0.166345554,-0.291966417,1,0,0,0.3164,submitButton,4.284768212,-0.252717217,-0.388042128,0,0,0,2,45,165,59,1,75,69241,blockP,180,2022-02-14_23h38.44.647,orientation adjustment blockP,2021.2.3,MacIntel,60.0024001,,,,,,,
,,,,,,,,,,,,,,,,,,,,,,-27.77777778,-38,20,75,-32.77777778,5.222222222,2.088888889,-0.244102308,-0.405957981,1,0,0,1.3174,submitButton,4.270321637,0.083755222,-0.343634711,0,0,0,2,46,166,22,1,38,69241,blockP,180,2022-02-14_23h38.44.647,orientation adjustment blockP,2021.2.3,MacIntel,60.0024001,,,,,,,
,,,,,,,,,,,,,,,,,,,,,,-66.66666667,64,20,75,37.33333333,26.66666667,17.33333333,0.483007948,-0.311092597,1,0,0,0.1668,submitButton,4.355700799,0.091639811,-0.343927612,0,0,0,2,47,167,48,1,64,69241,blockP,180,2022-02-14_23h38.44.647,orientation adjustment blockP,2021.2.3,MacIntel,60.0024001,,,,,,,
,,,,,,,,,,,,,,,,,,,,,,-75,-50,20,75,-221,9,3.6,0.423035211,-0.295186903,1,0,0,0.3347,submitButton,4.350793651,0.069949951,-0.346934543,0,0,0,2,48,168,34,1,50,69241,blockP,180,2022-02-14_23h38.44.647,orientation adjustment blockP,2021.2.3,MacIntel,60.0024001,,,,,,,
,,,,,,,,,,,,,,,,,,,,,,-53.33333333,65,20,75,50.66666667,14.33333333,5.733333333,-0.119126655,-0.383235609,1,0,0,1.2326,submitButton,4.359713262,0.092636719,-0.304173787,0,0,0,2,49,169,49,1,65,69241,blockP,180,2022-02-14_23h38.44.647,orientation adjustment blockP,2021.2.3,MacIntel,60.0024001,,,,,,,
,,,,,,,,,,,,,,,,,,,,,,-35.55555556,36,20,75,33.44444444,2.555555556,1.022222222,-0.171950751,-0.391050822,1,0,0,0.8335,submitButton,4.338319088,0.057058241,-0.337236125,0,0,0,2,50,170,20,1,36,69241,blockP,180,2022-02-14_23h38.44.647,orientation adjustment blockP,2021.2.3,MacIntel,60.0024001,,,,,,,
,,,,,,,,,,,,,,,,,,,,,,-72.77777778,24,20,75,29.22222222,5.222222222,2.088888889,-0.261082594,-0.375892741,1,0,0,1.6658,submitButton,4.323991507,-0.065795831,-0.435000678,0,0,0,2,51,171,8,1,24,69241,blockP,180,2022-02-14_23h38.44.647,orientation adjustment blockP,2021.2.3,MacIntel,60.0024001,,,,,,,
,,,,,,,,,,,,,,,,,,,,,,57.77777778,-70,20,75,-43.22222222,26.77777778,17.40555556,0.421857232,-0.303717516,1,0,0,0.0826,submitButton,4.406786217,0.191254951,-0.342333238,0,0,0,2,52,172,54,1,70,69241,blockP,180,2022-02-14_23h38.44.647,orientation adjustment blockP,2021.2.3,MacIntel,60.0024001,,,,,,,
,,,,,,,,,,,,,,,,,,,,,,37.77777778,69,20,75,233.7777778,15.22222222,9.894444444,-0.150074463,-0.419839817,1,0,0,2.634,submitButton,4.44129979,0.090749308,-0.387990451,0,0,0,2,53,173,53,1,69,69241,blockP,180,2022-02-14_23h38.44.647,orientation adjustment blockP,2021.2.3,MacIntel,60.0024001,,,,,,,
,,,,,,,,,,,,,,,,,,,,,,-45,-32,20,75,-23,9,3.6,0.18496799,-0.319417114,1,0,0,0.6336,submitButton,4.436041667,0.025729167,-0.374838935,0,0,0,2,54,174,16,1,32,69241,blockP,180,2022-02-14_23h38.44.647,orientation adjustment blockP,2021.2.3,MacIntel,60.0024001,,,,,,,
,,,,,,,,,,,,,,,,,,,,,,-50.55555556,-49,20,75,-30.55555556,18.44444444,11.98888889,0.145247125,-0.317983941,1,0,0,1.1491,submitButton,4.482953761,-0.02613166,-0.393094008,0,0,0,2,55,175,33,1,49,69241,blockP,180,2022-02-14_23h38.44.647,orientation adjustment blockP,2021.2.3,MacIntel,60.0024001,,,,,,,
,,,,,,,,,,,,,,,,,,,,,,-54.44444444,45,20,75,36.55555556,8.444444444,3.377777778,0.391453315,-0.29992018,1,0,0,0.0505,submitButton,4.476131687,0.046301812,-0.344391819,0,0,0,2,56,176,29,1,45,69241,blockP,180,2022-02-14_23h38.44.647,orientation adjustment blockP,2021.2.3,MacIntel,60.0024001,,,,,,,
,,,,,,,,,,,,,,,,,,,,,,-37.22222222,-55,20,75,-226.2222222,8.777777778,3.511111111,0.383106825,-0.285295342,1,0,0,0.0334,submitButton,4.470211316,-0.212350396,-0.398993937,0,0,0,2,57,177,39,1,55,69241,blockP,180,2022-02-14_23h38.44.647,orientation adjustment blockP,2021.2.3,MacIntel,60.0024001,,,,,,,
,,,,,,,,,,,,,,,,,,,,,,-64.44444444,-28,20,75,-211.4444444,3.444444444,1.377777778,-0.251299099,-0.441089545,1,0,0,2.8494,submitButton,4.451355014,-0.251299099,-0.402500271,0,0,0,2,58,178,12,1,28,69241,blockP,180,2022-02-14_23h38.44.647,orientation adjustment blockP,2021.2.3,MacIntel,60.0024001,,,,,,,
,,,,,,,,,,,,,,,,,,,,,,-20.55555556,-39,20,75,-32.55555556,6.444444444,2.577777778,0.179597778,-0.303116455,1,0,0,0.0331,submitButton,4.44,-0.164799127,-0.412440525,0,0,0,2,59,179,23,1,39,69241,blockP,180,2022-02-14_23h38.44.647,orientation adjustment blockP,2021.2.3,MacIntel,60.0024001,,,,,,,
,,,,,,,,,,,,,,,,,,,,,,,,,,,,,,,,,,,,,,,,,,,,,,,,69241,blockP,180,2022-02-14_23h38.44.647,orientation adjustment blockP,2021.2.3,MacIntel,60.0024001,,0.260689426,-0.395252618,1,0,0,EndButtonTxt
