consentMouse1.x,consentMouse1.y,consentMouse1.leftButton,consentMouse1.midButton,consentMouse1.rightButton,consentMouse1.clicked_name,consent_Mouse.x,consent_Mouse.y,consent_Mouse.leftButton,consent_Mouse.midButton,consent_Mouse.rightButton,consent_Mouse.clicked_name,startMouse.x,startMouse.y,startMouse.leftButton,startMouse.midButton,startMouse.rightButton,startMouse_2.x,startMouse_2.y,startMouse_2.leftButton,startMouse_2.midButton,startMouse_2.rightButton,start_distance,fixedOri,minimalDistance,maxOri,this_ori,accuracy,presented_accuracy,submitMouse.x,submitMouse.y,submitMouse.leftButton,submitMouse.midButton,submitMouse.rightButton,submitMouse.time,submitMouse.clicked_name,block_accuracy,continueMouse.x,continueMouse.y,continueMouse.leftButton,continueMouse.midButton,continueMouse.rightButton,trials.thisRepN,trials.thisTrialN,trials.thisN,trials.thisIndex,trials.ran,startOri,participant,condition,nTrials,date,expName,psychopyVersion,OS,frameRate,continueMouse.clicked_name,EndButtonMouse.x,EndButtonMouse.y,EndButtonMouse.leftButton,EndButtonMouse.midButton,EndButtonMouse.rightButton,EndButtonMouse.clicked_name
0.355744629,-0.397880452,1,0,0,consent_button1,0.388924018,-0.400397814,1,0,0,consent_button,0.105125326,-0.249658203,1,0,0,0.035892673,-0.353773736,1,0,0,43.33333333,-65,20,75,90.33333333,24.66666667,16.03333333,0.214091051,-0.29390686,1,0,0,2.4001,submitButton,16.03333333,-0.283853828,-0.406338298,0,0,0,0,0,0,49,1,65,69637,blockP,180,2022-02-14_23h19.32.289,orientation adjustment blockP,2021.2.3,MacIntel,60.0024001,,,,,,,
,,,,,,,,,,,,,,,,,,,,,,-56.11111111,66,20,75,-35.11111111,78.88888889,71,0.398255887,-0.278004083,1,0,0,1.1012,submitButton,43.51666667,-0.342695821,-0.391374512,0,0,0,0,1,1,50,1,66,69637,blockP,180,2022-02-14_23h19.32.289,orientation adjustment blockP,2021.2.3,MacIntel,60.0024001,,,,,,,
,,,,,,,,,,,,,,,,,,,,,,57.77777778,60,20,75,220.7777778,19.22222222,12.49444444,0.195068902,-0.30565979,1,0,0,0.1343,submitButton,33.17592593,-0.497083266,-0.408069933,0,0,0,0,2,2,44,1,60,69637,blockP,180,2022-02-14_23h19.32.289,orientation adjustment blockP,2021.2.3,MacIntel,60.0024001,,,,,,,
,,,,,,,,,,,,,,,,,,,,,,54.44444444,28,20,75,19.44444444,8.555555556,3.422222222,0.383292372,-0.289526638,1,0,0,0.1232,submitButton,3.422222222,-0.417909003,-0.408498739,0,0,0,0,3,3,12,1,28,69637,blockP,180,2022-02-14_23h19.32.289,orientation adjustment blockP,2021.2.3,MacIntel,60.0024001,,,,,,,
,,,,,,,,,,,,,,,,,,,,,,-65,29,20,75,-153,2,0.8,0.39685357,-0.3349882,1,0,0,1.6363,submitButton,2.111111111,-0.339307522,-0.395091214,0,0,0,0,4,4,13,1,29,69637,blockP,180,2022-02-14_23h19.32.289,orientation adjustment blockP,2021.2.3,MacIntel,60.0024001,,,,,,,
,,,,,,,,,,,,,,,,,,,,,,43.33333333,-19,20,75,156.3333333,4.666666667,1.866666667,0.192907715,-0.302261556,1,0,0,1.9318,submitButton,2.02962963,-0.495078498,-0.405773519,0,0,0,0,5,5,3,1,19,69637,blockP,180,2022-02-14_23h19.32.289,orientation adjustment blockP,2021.2.3,MacIntel,60.0024001,,,,,,,
,,,,,,,,,,,,,,,,,,,,,,30.55555556,-50,20,75,-43.44444444,6.555555556,2.622222222,0.209153781,-0.300225898,1,0,0,0.2519,submitButton,2.622222222,-0.376704102,-0.394653049,0,0,0,0,6,6,34,1,50,69637,blockP,180,2022-02-14_23h19.32.289,orientation adjustment blockP,2021.2.3,MacIntel,60.0024001,,,,,,,
,,,,,,,,,,,,,,,,,,,,,,-51.11111111,-56,20,75,-234.1111111,1.888888889,0.755555556,0.402301297,-0.277134806,1,0,0,2.2003,submitButton,1.688888889,-0.499982096,-0.395765516,0,0,0,0,7,7,40,1,56,69637,blockP,180,2022-02-14_23h19.32.289,orientation adjustment blockP,2021.2.3,MacIntel,60.0024001,,,,,,,
,,,,,,,,,,,,,,,,,,,,,,-67.77777778,-32,20,75,-6.777777778,25.22222222,16.39444444,0.228958605,-0.28856642,1,0,0,1.3484,submitButton,6.590740741,-0.366722209,-0.414268053,0,0,0,0,8,8,16,1,32,69637,blockP,180,2022-02-14_23h19.32.289,orientation adjustment blockP,2021.2.3,MacIntel,60.0024001,,,,,,,
,,,,,,,,,,,,,,,,,,,,,,-46.66666667,-42,20,75,-34.66666667,7.333333333,2.933333333,0.234021403,-0.286105143,1,0,0,0.7667,submitButton,2.933333333,-0.420520121,-0.392317166,0,0,0,0,9,9,26,1,42,69637,blockP,180,2022-02-14_23h19.32.289,orientation adjustment blockP,2021.2.3,MacIntel,60.0024001,,,,,,,
,,,,,,,,,,,,,,,,,,,,,,45,-26,20,75,158,4,1.6,0.225942654,-0.308644613,1,0,0,2.2012,submitButton,2.266666667,-0.417031386,-0.404361979,0,0,0,0,10,10,10,1,26,69637,blockP,180,2022-02-14_23h19.32.289,orientation adjustment blockP,2021.2.3,MacIntel,60.0024001,,,,,,,
,,,,,,,,,,,,,,,,,,,,,,56.11111111,44,20,75,221.1111111,2.888888889,1.155555556,0.219779527,-0.292191094,1,0,0,2.1183,submitButton,1.896296296,-0.437447103,-0.401991306,0,0,0,0,11,11,28,1,44,69637,blockP,180,2022-02-14_23h19.32.289,orientation adjustment blockP,2021.2.3,MacIntel,60.0024001,,,,,,,
,,,,,,,,,,,,,,,,,,,,,,-51.11111111,70,20,75,63.88888889,6.111111111,2.444444444,-0.524358487,-0.39763109,1,0,0,1.4835,submitButton,2.444444444,-0.524358487,-0.39763109,0,0,0,0,12,12,54,1,70,69637,blockP,180,2022-02-14_23h19.32.289,orientation adjustment blockP,2021.2.3,MacIntel,60.0024001,,,,,,,
,,,,,,,,,,,,,,,,,,,,,,52.77777778,38,20,75,212.7777778,5.222222222,2.088888889,0.17589837,-0.303147176,1,0,0,1.1513,submitButton,2.266666667,-0.385016785,-0.428360121,0,0,0,0,13,13,22,1,38,69637,blockP,180,2022-02-14_23h19.32.289,orientation adjustment blockP,2021.2.3,MacIntel,60.0024001,,,,,,,
,,,,,,,,,,,,,,,,,,,,,,62.77777778,59,20,75,229.7777778,9.222222222,3.688888889,0.193446384,-0.322053223,1,0,0,1.4342,submitButton,2.740740741,0.380765652,-0.395673896,1,0,0,0,14,14,43,1,59,69637,blockP,180,2022-02-14_23h19.32.289,orientation adjustment blockP,2021.2.3,MacIntel,60.0024001,continueButton,,,,,,
,,,,,,,,,,,,,,,,,,,,,,47.77777778,61,20,75,221.7777778,19.22222222,12.49444444,0.222026299,-0.317317098,1,0,0,1.3812,submitButton,12.49444444,0.112999268,-0.288304918,0,0,0,0,15,15,45,1,61,69637,blockP,180,2022-02-14_23h19.32.289,orientation adjustment blockP,2021.2.3,MacIntel,60.0024001,,,,,,,
,,,,,,,,,,,,,,,,,,,,,,55.55555556,45,20,75,217.5555556,7.444444444,2.977777778,-0.492124702,-0.407474162,1,0,0,1.8176,submitButton,7.736111111,0.138429633,-0.286023627,0,0,0,0,16,16,29,1,45,69637,blockP,180,2022-02-14_23h19.32.289,orientation adjustment blockP,2021.2.3,MacIntel,60.0024001,,,,,,,
,,,,,,,,,,,,,,,,,,,,,,55,-49,20,75,142,11,4.4,-0.335600722,-0.382226834,1,0,0,2.3648,submitButton,6.624074074,-0.335600722,-0.382226834,0,0,0,0,17,17,33,1,49,69637,blockP,180,2022-02-14_23h19.32.289,orientation adjustment blockP,2021.2.3,MacIntel,60.0024001,,,,,,,
,,,,,,,,,,,,,,,,,,,,,,40.55555556,72,20,75,249.5555556,2.444444444,0.977777778,-0.387816162,-0.36384786,1,0,0,2.4331,submitButton,5.2125,-0.427434421,-0.401936239,0,0,0,0,18,18,56,1,72,69637,blockP,180,2022-02-14_23h19.32.289,orientation adjustment blockP,2021.2.3,MacIntel,60.0024001,,,,,,,
,,,,,,,,,,,,,,,,,,,,,,40.55555556,16,20,75,196.5555556,0.555555556,0.222222222,0.165935737,-0.318989326,1,0,0,1.7012,submitButton,4.214444444,-0.366491292,-0.389506497,0,0,0,0,19,19,0,1,16,69637,blockP,180,2022-02-14_23h19.32.289,orientation adjustment blockP,2021.2.3,MacIntel,60.0024001,,,,,,,
,,,,,,,,,,,,,,,,,,,,,,60.55555556,-43,20,75,147.5555556,10.55555556,4.222222222,0.187156033,-0.325361192,1,0,0,1.2849,submitButton,4.215740741,0.155064562,-0.282132433,0,0,0,0,20,20,27,1,43,69637,blockP,180,2022-02-14_23h19.32.289,orientation adjustment blockP,2021.2.3,MacIntel,60.0024001,,,,,,,
,,,,,,,,,,,,,,,,,,,,,,27.77777778,47,20,75,208.7777778,18.22222222,11.84444444,0.234817301,-0.273259413,1,0,0,1.7527,submitButton,5.305555556,-0.500394287,-0.393874851,0,0,0,0,21,21,31,1,47,69637,blockP,180,2022-02-14_23h19.32.289,orientation adjustment blockP,2021.2.3,MacIntel,60.0024001,,,,,,,
,,,,,,,,,,,,,,,,,,,,,,-32.77777778,-31,20,75,-24.77777778,6.222222222,2.488888889,0.200222168,-0.279234416,1,0,0,0.0663,submitButton,4.953472222,-0.463338962,-0.411030952,0,0,0,0,22,22,15,1,31,69637,blockP,180,2022-02-14_23h19.32.289,orientation adjustment blockP,2021.2.3,MacIntel,60.0024001,,,,,,,
,,,,,,,,,,,,,,,,,,,,,,-28.88888889,62,20,75,57.11111111,4.888888889,1.955555556,-0.553623878,-0.393234592,1,0,0,0.683,submitButton,4.62037037,0.252113987,-0.29271559,0,0,0,0,23,23,46,1,62,69637,blockP,180,2022-02-14_23h19.32.289,orientation adjustment blockP,2021.2.3,MacIntel,60.0024001,,,,,,,
,,,,,,,,,,,,,,,,,,,,,,-67.22222222,-53,20,75,-47.22222222,5.777777778,2.311111111,0.246480306,-0.293087836,1,0,0,0.8473,submitButton,4.389444444,-0.303270264,-0.408042535,0,0,0,0,24,24,37,1,53,69637,blockP,180,2022-02-14_23h19.32.289,orientation adjustment blockP,2021.2.3,MacIntel,60.0024001,,,,,,,
,,,,,,,,,,,,,,,,,,,,,,39.44444444,67,20,75,244.4444444,2.555555556,1.022222222,0.205401476,-0.317103136,1,0,0,1.5998,submitButton,4.083333333,-0.355924954,-0.419799262,0,0,0,0,25,25,51,1,67,69637,blockP,180,2022-02-14_23h19.32.289,orientation adjustment blockP,2021.2.3,MacIntel,60.0024001,,,,,,,
,,,,,,,,,,,,,,,,,,,,,,-69.44444444,-73,20,75,-59.44444444,13.55555556,5.422222222,0.228058811,-0.289392768,1,0,0,0.8487,submitButton,4.194907407,0.162460327,-0.274111125,0,0,0,0,26,26,57,1,73,69637,blockP,180,2022-02-14_23h19.32.289,orientation adjustment blockP,2021.2.3,MacIntel,60.0024001,,,,,,,
,,,,,,,,,,,,,,,,,,,,,,-40,68,20,75,66,2,0.8,-0.362325439,-0.41957628,1,0,0,0.4495,submitButton,3.933760684,0.145172662,-0.248822361,0,0,0,0,27,27,52,1,68,69637,blockP,180,2022-02-14_23h19.32.289,orientation adjustment blockP,2021.2.3,MacIntel,60.0024001,,,,,,,
,,,,,,,,,,,,,,,,,,,,,,41.11111111,63,20,75,240.1111111,2.888888889,1.155555556,0.207804023,-0.287059462,1,0,0,1.7316,submitButton,3.73531746,0.198196479,-0.281877306,0,0,0,0,28,28,47,1,63,69637,blockP,180,2022-02-14_23h19.32.289,orientation adjustment blockP,2021.2.3,MacIntel,60.0024001,,,,,,,
,,,,,,,,,,,,,,,,,,,,,,-32.77777778,71,20,75,79.22222222,8.222222222,3.288888889,0.198451538,-0.281385159,1,0,0,0.3193,submitButton,3.705555556,0.277119141,-0.409273749,1,0,0,0,29,29,55,1,71,69637,blockP,180,2022-02-14_23h19.32.289,orientation adjustment blockP,2021.2.3,MacIntel,60.0024001,continueButton,,,,,,
,,,,,,,,,,,,,,,,,,,,,,20,-27,20,75,-19,8,3.2,0.214129367,-0.31209276,1,0,0,0.1182,submitButton,3.673958333,-0.148725925,-0.283652547,0,0,0,0,30,30,11,1,27,69637,blockP,180,2022-02-14_23h19.32.289,orientation adjustment blockP,2021.2.3,MacIntel,60.0024001,,,,,,,
,,,,,,,,,,,,,,,,,,,,,,-39.44444444,36,20,75,30.55555556,5.444444444,2.177777778,-0.388277384,-0.400962321,1,0,0,0.8994,submitButton,3.585947712,0.032037354,-0.33848131,0,0,0,0,31,31,20,1,36,69637,blockP,180,2022-02-14_23h19.32.289,orientation adjustment blockP,2021.2.3,MacIntel,60.0024001,,,,,,,
,,,,,,,,,,,,,,,,,,,,,,72.77777778,-46,20,75,142.7777778,8.777777778,3.511111111,0.213885227,-0.303237305,1,0,0,1.4011,submitButton,3.581790123,-0.146890327,-0.365570747,0,0,0,0,32,32,30,1,46,69637,blockP,180,2022-02-14_23h19.32.289,orientation adjustment blockP,2021.2.3,MacIntel,60.0024001,,,,,,,
,,,,,,,,,,,,,,,,,,,,,,49.44444444,-39,20,75,-36.55555556,2.444444444,0.977777778,-0.468932427,-0.375846625,1,0,0,1.5992,submitButton,3.444736842,-0.123582221,-0.349541355,0,0,0,0,33,33,23,1,39,69637,blockP,180,2022-02-14_23h19.32.289,orientation adjustment blockP,2021.2.3,MacIntel,60.0024001,,,,,,,
,,,,,,,,,,,,,,,,,,,,,,68.88888889,-25,20,75,150.8888889,4.111111111,1.644444444,0.225382962,-0.317199978,1,0,0,1.6998,submitButton,3.354722222,-0.396488919,-0.401226061,0,0,0,0,34,34,9,1,25,69637,blockP,180,2022-02-14_23h19.32.289,orientation adjustment blockP,2021.2.3,MacIntel,60.0024001,,,,,,,
,,,,,,,,,,,,,,,,,,,,,,47.22222222,40,20,75,201.2222222,18.77777778,12.20555556,-0.383814969,-0.376585693,1,0,0,2.2818,submitButton,3.776190476,-0.060470106,-0.356274753,0,0,0,0,35,35,24,1,40,69637,blockP,180,2022-02-14_23h19.32.289,orientation adjustment blockP,2021.2.3,MacIntel,60.0024001,,,,,,,
,,,,,,,,,,,,,,,,,,,,,,22.77777778,18,20,75,19.77777778,1.777777778,0.711111111,0.415914035,-0.261282959,1,0,0,0.2009,submitButton,3.636868687,-0.464195964,-0.393686659,0,0,0,0,36,36,2,1,18,69637,blockP,180,2022-02-14_23h19.32.289,orientation adjustment blockP,2021.2.3,MacIntel,60.0024001,,,,,,,
,,,,,,,,,,,,,,,,,,,,,,51.11111111,-69,20,75,-61.88888889,7.111111111,2.844444444,0.427306722,-0.285395643,1,0,0,0.4509,submitButton,3.602415459,0.122029622,-0.307875977,0,0,0,0,37,37,53,1,69,69637,blockP,180,2022-02-14_23h19.32.289,orientation adjustment blockP,2021.2.3,MacIntel,60.0024001,,,,,,,
,,,,,,,,,,,,,,,,,,,,,,73.33333333,54,20,75,236.3333333,2.333333333,0.933333333,0.193987901,-0.29738505,1,0,0,1.4157,submitButton,3.491203704,-0.339952053,-0.409240451,0,0,0,0,38,38,38,1,54,69637,blockP,180,2022-02-14_23h19.32.289,orientation adjustment blockP,2021.2.3,MacIntel,60.0024001,,,,,,,
,,,,,,,,,,,,,,,,,,,,,,-63.88888889,30,20,75,30.11111111,0.111111111,0.044444444,-0.316961602,-0.391680501,1,0,0,1.2671,submitButton,3.353333333,0.097035658,-0.305904405,0,0,0,0,39,39,14,1,30,69637,blockP,180,2022-02-14_23h19.32.289,orientation adjustment blockP,2021.2.3,MacIntel,60.0024001,,,,,,,
,,,,,,,,,,,,,,,,,,,,,,-47.22222222,-75,20,75,-82.22222222,7.222222222,2.888888889,-0.335224135,-0.408966268,1,0,0,0.85,submitButton,3.335470085,-0.335224135,-0.408966268,0,0,0,0,40,40,59,1,75,69637,blockP,180,2022-02-14_23h19.32.289,orientation adjustment blockP,2021.2.3,MacIntel,60.0024001,,,,,,,
,,,,,,,,,,,,,,,,,,,,,,-61.66666667,17,20,75,12.33333333,4.666666667,1.866666667,0.183421902,-0.311835666,1,0,0,0.8166,submitButton,3.281069959,-0.329439121,-0.405831028,0,0,0,0,41,41,1,1,17,69637,blockP,180,2022-02-14_23h19.32.289,orientation adjustment blockP,2021.2.3,MacIntel,60.0024001,,,,,,,
,,,,,,,,,,,,,,,,,,,,,,-37.22222222,-21,20,75,-202.2222222,1.222222222,0.488888889,0.436690267,-0.280711806,1,0,0,2.1513,submitButton,3.181349206,-0.381041938,-0.407023248,0,0,0,0,42,42,5,1,21,69637,blockP,180,2022-02-14_23h19.32.289,orientation adjustment blockP,2021.2.3,MacIntel,60.0024001,,,,,,,
,,,,,,,,,,,,,,,,,,,,,,-38.33333333,23,20,75,15.66666667,7.333333333,2.933333333,0.199514771,-0.287803887,1,0,0,0.1636,submitButton,3.172796935,0.189267578,-0.267007378,0,0,0,0,43,43,7,1,23,69637,blockP,180,2022-02-14_23h19.32.289,orientation adjustment blockP,2021.2.3,MacIntel,60.0024001,,,,,,,
,,,,,,,,,,,,,,,,,,,,,,-49.44444444,-41,20,75,-228.4444444,7.444444444,2.977777778,0.408926324,-0.275456272,1,0,0,1.7994,submitButton,3.166296296,0.335459595,-0.39712972,1,0,0,0,44,44,25,1,41,69637,blockP,180,2022-02-14_23h19.32.289,orientation adjustment blockP,2021.2.3,MacIntel,60.0024001,continueButton,,,,,,
,,,,,,,,,,,,,,,,,,,,,,51.66666667,74,20,75,241.6666667,12.33333333,4.933333333,0.232841933,-0.309544406,1,0,0,1.7652,submitButton,3.223297491,-0.013110148,-0.280028212,0,0,0,0,45,45,58,1,74,69637,blockP,180,2022-02-14_23h19.32.289,orientation adjustment blockP,2021.2.3,MacIntel,60.0024001,,,,,,,
,,,,,,,,,,,,,,,,,,,,,,62.77777778,35,20,75,212.7777778,2.222222222,0.888888889,0.192599691,-0.281697795,1,0,0,1.5507,submitButton,3.150347222,-0.245298564,-0.355432061,0,0,0,0,46,46,19,1,35,69637,blockP,180,2022-02-14_23h19.32.289,orientation adjustment blockP,2021.2.3,MacIntel,60.0024001,,,,,,,
,,,,,,,,,,,,,,,,,,,,,,52.22222222,52,20,75,234.2222222,2.222222222,0.888888889,0.235625136,-0.29212694,1,0,0,1.6468,submitButton,3.081818182,-0.224215834,-0.361491021,0,0,0,0,47,47,36,1,52,69637,blockP,180,2022-02-14_23h19.32.289,orientation adjustment blockP,2021.2.3,MacIntel,60.0024001,,,,,,,
,,,,,,,,,,,,,,,,,,,,,,-31.11111111,64,20,75,69.88888889,5.888888889,2.355555556,0.202273695,-0.302344293,1,0,0,0.7177,submitButton,3.060457516,-0.306537204,-0.384349637,0,0,0,0,48,48,48,1,64,69637,blockP,180,2022-02-14_23h19.32.289,orientation adjustment blockP,2021.2.3,MacIntel,60.0024001,,,,,,,
,,,,,,,,,,,,,,,,,,,,,,72.77777778,-51,20,75,-48.22222222,2.777777778,1.111111111,0.381529541,-0.270999417,1,0,0,0.7671,submitButton,3.004761905,-0.313924289,-0.403767632,0,0,0,0,49,49,35,1,51,69637,blockP,180,2022-02-14_23h19.32.289,orientation adjustment blockP,2021.2.3,MacIntel,60.0024001,,,,,,,
,,,,,,,,,,,,,,,,,,,,,,50,-58,20,75,-64,6,2.4,-0.314074063,-0.420923937,1,0,0,1.1635,submitButton,2.987962963,0.296824137,-0.231513468,0,0,0,0,50,50,42,1,58,69637,blockP,180,2022-02-14_23h19.32.289,orientation adjustment blockP,2021.2.3,MacIntel,60.0024001,,,,,,,
,,,,,,,,,,,,,,,,,,,,,,-30.55555556,20,20,75,21.44444444,1.444444444,0.577777778,-0.585884942,-0.407663439,1,0,0,0.7696,submitButton,2.922822823,-0.585884942,-0.407663439,0,0,0,0,51,51,4,1,20,69637,blockP,180,2022-02-14_23h19.32.289,orientation adjustment blockP,2021.2.3,MacIntel,60.0024001,,,,,,,
,,,,,,,,,,,,,,,,,,,,,,-65.55555556,57,20,75,54.44444444,2.555555556,1.022222222,0.198171115,-0.290541992,1,0,0,0.6358,submitButton,2.872807018,-0.402664117,-0.397376099,0,0,0,0,52,52,41,1,57,69637,blockP,180,2022-02-14_23h19.32.289,orientation adjustment blockP,2021.2.3,MacIntel,60.0024001,,,,,,,
,,,,,,,,,,,,,,,,,,,,,,-28.33333333,-22,20,75,-16.33333333,5.666666667,2.266666667,0.210879856,-0.318557807,1,0,0,0.4832,submitButton,2.857264957,-0.330138448,-0.381223958,0,0,0,0,53,53,6,1,22,69637,blockP,180,2022-02-14_23h19.32.289,orientation adjustment blockP,2021.2.3,MacIntel,60.0024001,,,,,,,
,,,,,,,,,,,,,,,,,,,,,,-37.77777778,33,20,75,35.22222222,2.222222222,0.888888889,-0.362356906,-0.409824626,1,0,0,0.9518,submitButton,2.808055556,-0.362356906,-0.409824626,0,0,0,0,54,54,17,1,33,69637,blockP,180,2022-02-14_23h19.32.289,orientation adjustment blockP,2021.2.3,MacIntel,60.0024001,,,,,,,
,,,,,,,,,,,,,,,,,,,,,,-31.11111111,48,20,75,39.88888889,8.111111111,3.244444444,-0.411052246,-0.381154785,1,0,0,0.5147,submitButton,2.818699187,0.086552463,-0.297295939,0,0,0,0,55,55,32,1,48,69637,blockP,180,2022-02-14_23h19.32.289,orientation adjustment blockP,2021.2.3,MacIntel,60.0024001,,,,,,,
,,,,,,,,,,,,,,,,,,,,,,-63.33333333,34,20,75,31.66666667,2.333333333,0.933333333,0.18865743,-0.302070109,1,0,0,0.852,submitButton,2.773809524,-0.331730686,-0.381911757,0,0,0,0,56,56,18,1,34,69637,blockP,180,2022-02-14_23h19.32.289,orientation adjustment blockP,2021.2.3,MacIntel,60.0024001,,,,,,,
,,,,,,,,,,,,,,,,,,,,,,-22.77777778,55,20,75,50.22222222,4.777777778,1.911111111,-0.386310493,-0.405301446,1,0,0,0.436,submitButton,2.75374677,-0.386310493,-0.405301446,0,0,0,0,57,57,39,1,55,69637,blockP,180,2022-02-14_23h19.32.289,orientation adjustment blockP,2021.2.3,MacIntel,60.0024001,,,,,,,
,,,,,,,,,,,,,,,,,,,,,,-56.11111111,37,20,75,28.88888889,8.111111111,3.244444444,0.224295112,-0.283599311,1,0,0,0.7198,submitButton,2.76489899,-0.278497179,-0.396522895,0,0,0,0,58,58,21,1,37,69637,blockP,180,2022-02-14_23h19.32.289,orientation adjustment blockP,2021.2.3,MacIntel,60.0024001,,,,,,,
,,,,,,,,,,,,,,,,,,,,,,48.33333333,24,20,75,25.33333333,1.333333333,0.533333333,-0.385063612,-0.40983412,1,0,0,1.419,submitButton,2.715308642,0.280391303,-0.400026516,1,0,0,0,59,59,8,1,24,69637,blockP,180,2022-02-14_23h19.32.289,orientation adjustment blockP,2021.2.3,MacIntel,60.0024001,continueButton,,,,,,
,,,,,,,,,,,,,,,,,,,,,,-42.22222222,58,20,75,54.77777778,3.222222222,1.288888889,0.203237983,-0.333366089,1,0,0,0.5372,submitButton,2.684299517,0.08047248,-0.309185791,0,0,0,1,0,60,42,1,58,69637,blockP,180,2022-02-14_23h19.32.289,orientation adjustment blockP,2021.2.3,MacIntel,60.0024001,,,,,,,
,,,,,,,,,,,,,,,,,,,,,,47.22222222,69,20,75,244.2222222,4.777777778,1.911111111,-0.414684855,-0.419467299,1,0,0,2.6005,submitButton,2.6678487,0.153101874,-0.283642917,0,0,0,1,1,61,53,1,69,69637,blockP,180,2022-02-14_23h19.32.289,orientation adjustment blockP,2021.2.3,MacIntel,60.0024001,,,,,,,
,,,,,,,,,,,,,,,,,,,,,,-74.44444444,-54,20,75,-231.4444444,2.555555556,1.022222222,-0.323892721,-0.383524441,1,0,0,2.1639,submitButton,2.633564815,0.077931993,-0.347143962,0,0,0,1,2,62,38,1,54,69637,blockP,180,2022-02-14_23h19.32.289,orientation adjustment blockP,2021.2.3,MacIntel,60.0024001,,,,,,,
,,,,,,,,,,,,,,,,,,,,,,24.44444444,37,20,75,208.4444444,8.555555556,3.422222222,0.207813856,-0.315550469,1,0,0,1.852,submitButton,2.649659864,-0.267527432,-0.415079481,0,0,0,1,3,63,21,1,37,69637,blockP,180,2022-02-14_23h19.32.289,orientation adjustment blockP,2021.2.3,MacIntel,60.0024001,,,,,,,
,,,,,,,,,,,,,,,,,,,,,,-40,25,20,75,21,4,1.6,-0.264679701,-0.425510932,1,0,0,1.2183,submitButton,2.628666667,-0.16482822,-0.366754286,0,0,0,1,4,64,9,1,25,69637,blockP,180,2022-02-14_23h19.32.289,orientation adjustment blockP,2021.2.3,MacIntel,60.0024001,,,,,,,
,,,,,,,,,,,,,,,,,,,,,,-57.22222222,-52,20,75,-232.2222222,0.222222222,0.088888889,0.386950277,-0.288250868,1,0,0,1.4001,submitButton,2.578867102,-0.310982327,-0.387475179,0,0,0,1,5,65,36,1,52,69637,blockP,180,2022-02-14_23h19.32.289,orientation adjustment blockP,2021.2.3,MacIntel,60.0024001,,,,,,,
,,,,,,,,,,,,,,,,,,,,,,68.33333333,43,20,75,221.3333333,1.666666667,0.666666667,0.208298679,-0.322658285,1,0,0,1.0979,submitButton,2.542094017,-0.274347738,-0.401500244,0,0,0,1,6,66,27,1,43,69637,blockP,180,2022-02-14_23h19.32.289,orientation adjustment blockP,2021.2.3,MacIntel,60.0024001,,,,,,,
,,,,,,,,,,,,,,,,,,,,,,-47.77777778,48,20,75,45.22222222,2.777777778,1.111111111,-0.434836765,-0.400338203,1,0,0,0.9991,submitButton,2.51509434,-0.434836765,-0.400338203,0,0,0,1,7,67,32,1,48,69637,blockP,180,2022-02-14_23h19.32.289,orientation adjustment blockP,2021.2.3,MacIntel,60.0024001,,,,,,,
,,,,,,,,,,,,,,,,,,,,,,72.77777778,71,20,75,256.7777778,5.777777778,2.311111111,0.174176297,-0.326567315,1,0,0,1.5022,submitButton,2.511316872,0.139088677,-0.217621799,0,0,0,1,8,68,55,1,71,69637,blockP,180,2022-02-14_23h19.32.289,orientation adjustment blockP,2021.2.3,MacIntel,60.0024001,,,,,,,
,,,,,,,,,,,,,,,,,,,,,,-51.66666667,-38,20,75,-212.6666667,5.333333333,2.133333333,-0.274476522,-0.401062961,1,0,0,2.4152,submitButton,2.504444444,-0.274476522,-0.401062961,0,0,0,1,9,69,22,1,38,69637,blockP,180,2022-02-14_23h19.32.289,orientation adjustment blockP,2021.2.3,MacIntel,60.0024001,,,,,,,
,,,,,,,,,,,,,,,,,,,,,,56.11111111,64,20,75,242.1111111,1.888888889,0.755555556,0.186331855,-0.339206679,1,0,0,1.4996,submitButton,2.473214286,-0.330912476,-0.391829902,0,0,0,1,10,70,48,1,64,69637,blockP,180,2022-02-14_23h19.32.289,orientation adjustment blockP,2021.2.3,MacIntel,60.0024001,,,,,,,
,,,,,,,,,,,,,,,,,,,,,,-48.33333333,-27,20,75,-196.3333333,10.66666667,4.266666667,0.368407254,-0.290419244,1,0,0,1.6531,submitButton,2.504678363,-0.203704291,-0.419589844,0,0,0,1,11,71,11,1,27,69637,blockP,180,2022-02-14_23h19.32.289,orientation adjustment blockP,2021.2.3,MacIntel,60.0024001,,,,,,,
,,,,,,,,,,,,,,,,,,,,,,52.22222222,28,20,75,196.2222222,11.77777778,4.711111111,0.182387424,-0.310017361,1,0,0,1.4687,submitButton,2.542720307,-0.419473877,-0.39547838,0,0,0,1,12,72,12,1,28,69637,blockP,180,2022-02-14_23h19.32.289,orientation adjustment blockP,2021.2.3,MacIntel,60.0024001,,,,,,,
,,,,,,,,,,,,,,,,,,,,,,42.77777778,-68,20,75,-54.22222222,13.77777778,5.511111111,-0.329757487,-0.412017483,1,0,0,1.1837,submitButton,2.593032015,-0.329757487,-0.412017483,0,0,0,1,13,73,52,1,68,69637,blockP,180,2022-02-14_23h19.32.289,orientation adjustment blockP,2021.2.3,MacIntel,60.0024001,,,,,,,
,,,,,,,,,,,,,,,,,,,,,,30.55555556,-60,20,75,-64.44444444,4.444444444,1.777777778,0.378905029,-0.295389743,1,0,0,0.1668,submitButton,2.579444444,0.369097087,-0.400169,1,0,0,1,14,74,44,1,60,69637,blockP,180,2022-02-14_23h19.32.289,orientation adjustment blockP,2021.2.3,MacIntel,60.0024001,continueButton,,,,,,
,,,,,,,,,,,,,,,,,,,,,,49.44444444,-44,20,75,-42.55555556,1.444444444,0.577777778,-0.258167046,-0.407694295,1,0,0,0.9,submitButton,2.546630237,-0.258167046,-0.407694295,0,0,0,1,15,75,28,1,44,69637,blockP,180,2022-02-14_23h19.32.289,orientation adjustment blockP,2021.2.3,MacIntel,60.0024001,,,,,,,
,,,,,,,,,,,,,,,,,,,,,,61.11111111,39,20,75,215.1111111,3.888888889,1.555555556,0.190864393,-0.303232897,1,0,0,1.4818,submitButton,2.530645161,-0.340969442,-0.391167467,0,0,0,1,16,76,23,1,39,69637,blockP,180,2022-02-14_23h19.32.289,orientation adjustment blockP,2021.2.3,MacIntel,60.0024001,,,,,,,
,,,,,,,,,,,,,,,,,,,,,,47.22222222,-45,20,75,-38.77777778,6.222222222,2.488888889,-0.369472521,-0.412575345,1,0,0,0.9842,submitButton,2.529982363,-0.369472521,-0.412575345,0,0,0,1,17,77,29,1,45,69637,blockP,180,2022-02-14_23h19.32.289,orientation adjustment blockP,2021.2.3,MacIntel,60.0024001,,,,,,,
,,,,,,,,,,,,,,,,,,,,,,65,-18,20,75,-16,2,0.8,0.403897298,-0.294819675,1,0,0,1.131,submitButton,2.502951389,-0.300060933,-0.398403185,0,0,0,1,18,78,2,1,18,69637,blockP,180,2022-02-14_23h19.32.289,orientation adjustment blockP,2021.2.3,MacIntel,60.0024001,,,,,,,
,,,,,,,,,,,,,,,,,,,,,,-46.11111111,21,20,75,15.88888889,5.111111111,2.044444444,0.193010457,-0.312105916,1,0,0,0.2346,submitButton,2.495897436,-0.318573676,-0.405998332,0,0,0,1,19,79,5,1,21,69637,blockP,180,2022-02-14_23h19.32.289,orientation adjustment blockP,2021.2.3,MacIntel,60.0024001,,,,,,,
,,,,,,,,,,,,,,,,,,,,,,-62.77777778,-23,20,75,-197.7777778,5.222222222,2.088888889,0.398475071,-0.311291707,1,0,0,1.4334,submitButton,2.48973064,-0.265382724,-0.40261773,0,0,0,1,20,80,7,1,23,69637,blockP,180,2022-02-14_23h19.32.289,orientation adjustment blockP,2021.2.3,MacIntel,60.0024001,,,,,,,
,,,,,,,,,,,,,,,,,,,,,,-25.55555556,-67,20,75,-249.5555556,2.555555556,1.022222222,0.385371908,-0.293840739,1,0,0,1.8683,submitButton,2.467827529,-0.365899862,-0.397842882,0,0,0,1,21,81,51,1,67,69637,blockP,180,2022-02-14_23h19.32.289,orientation adjustment blockP,2021.2.3,MacIntel,60.0024001,,,,,,,
,,,,,,,,,,,,,,,,,,,,,,25.55555556,-75,20,75,-70.44444444,4.555555556,1.822222222,-0.271820611,-0.39350647,1,0,0,0.7182,submitButton,2.458333333,-0.271820611,-0.39350647,0,0,0,1,22,82,59,1,75,69637,blockP,180,2022-02-14_23h19.32.289,orientation adjustment blockP,2021.2.3,MacIntel,60.0024001,,,,,,,
,,,,,,,,,,,,,,,,,,,,,,32.22222222,-49,20,75,-53.77777778,4.777777778,1.911111111,0.419241265,-0.299744195,1,0,0,0.4506,submitButton,2.450402576,-0.353479309,-0.417161594,0,0,0,1,23,83,33,1,49,69637,blockP,180,2022-02-14_23h19.32.289,orientation adjustment blockP,2021.2.3,MacIntel,60.0024001,,,,,,,
,,,,,,,,,,,,,,,,,,,,,,56.66666667,-65,20,75,-56.33333333,8.666666667,3.466666667,0.376697049,-0.296431817,1,0,0,0.5,submitButton,2.464920635,-0.312364638,-0.416863878,0,0,0,1,24,84,49,1,65,69637,blockP,180,2022-02-14_23h19.32.289,orientation adjustment blockP,2021.2.3,MacIntel,60.0024001,,,,,,,
,,,,,,,,,,,,,,,,,,,,,,-65.55555556,-63,20,75,-244.5555556,1.555555556,0.622222222,-0.252834744,-0.428771091,1,0,0,2.1855,submitButton,2.438967136,-0.292057699,-0.394388292,0,0,0,1,25,85,47,1,63,69637,blockP,180,2022-02-14_23h19.32.289,orientation adjustment blockP,2021.2.3,MacIntel,60.0024001,,,,,,,
,,,,,,,,,,,,,,,,,,,,,,71.66666667,41,20,75,213.6666667,7.333333333,2.933333333,0.227986654,-0.318691271,1,0,0,1.4991,submitButton,2.445833333,-0.242573174,-0.412117174,0,0,0,1,26,86,25,1,41,69637,blockP,180,2022-02-14_23h19.32.289,orientation adjustment blockP,2021.2.3,MacIntel,60.0024001,,,,,,,
,,,,,,,,,,,,,,,,,,,,,,-35,30,20,75,30,0,0,-0.29199039,-0.405274997,1,0,0,0.8666,submitButton,2.412328767,-0.29199039,-0.405274997,0,0,0,1,27,87,14,1,30,69637,blockP,180,2022-02-14_23h19.32.289,orientation adjustment blockP,2021.2.3,MacIntel,60.0024001,,,,,,,
,,,,,,,,,,,,,,,,,,,,,,-66.11111111,17,20,75,18.88888889,1.888888889,0.755555556,0.218868747,-0.29938775,1,0,0,0.8212,submitButton,2.38993994,-0.219679023,-0.420422228,0,0,0,1,28,88,1,1,17,69637,blockP,180,2022-02-14_23h19.32.289,orientation adjustment blockP,2021.2.3,MacIntel,60.0024001,,,,,,,
,,,,,,,,,,,,,,,,,,,,,,-65.55555556,-61,20,75,-231.5555556,9.444444444,3.777777778,0.437806125,-0.289627618,1,0,0,1.5011,submitButton,2.408444444,0.35738539,-0.395280151,1,0,0,1,29,89,45,1,61,69637,blockP,180,2022-02-14_23h19.32.289,orientation adjustment blockP,2021.2.3,MacIntel,60.0024001,continueButton,,,,,,
,,,,,,,,,,,,,,,,,,,,,,-26.66666667,47,20,75,41.33333333,5.666666667,2.266666667,-0.07356859,-0.381694268,1,0,0,0.6697,submitButton,2.406578947,-0.170820584,-0.406213786,0,0,0,1,30,90,31,1,47,69637,blockP,180,2022-02-14_23h19.32.289,orientation adjustment blockP,2021.2.3,MacIntel,60.0024001,,,,,,,
,,,,,,,,,,,,,,,,,,,,,,46.66666667,32,20,75,25.66666667,6.333333333,2.533333333,0.409052734,-0.308608805,1,0,0,0.0329,submitButton,2.408225108,0.078238118,-0.352977566,0,0,0,1,31,91,16,1,32,69637,blockP,180,2022-02-14_23h19.32.289,orientation adjustment blockP,2021.2.3,MacIntel,60.0024001,,,,,,,
,,,,,,,,,,,,,,,,,,,,,,68.88888889,51,20,75,220.8888889,10.11111111,4.044444444,0.217119005,-0.299701063,1,0,0,1.3476,submitButton,2.429202279,-0.149490289,-0.396123861,0,0,0,1,32,92,35,1,51,69637,blockP,180,2022-02-14_23h19.32.289,orientation adjustment blockP,2021.2.3,MacIntel,60.0024001,,,,,,,
,,,,,,,,,,,,,,,,,,,,,,46.66666667,-20,20,75,-21.33333333,1.333333333,0.533333333,-0.347597588,-0.411590373,1,0,0,1.0996,submitButton,2.405203938,-0.347597588,-0.411590373,0,0,0,1,33,93,4,1,20,69637,blockP,180,2022-02-14_23h19.32.289,orientation adjustment blockP,2021.2.3,MacIntel,60.0024001,,,,,,,
,,,,,,,,,,,,,,,,,,,,,,31.11111111,19,20,75,5.111111111,13.88888889,5.555555556,0.433168538,-0.276915419,1,0,0,0.3003,submitButton,2.444583333,-0.354223701,-0.415063477,0,0,0,1,34,94,3,1,19,69637,blockP,180,2022-02-14_23h19.32.289,orientation adjustment blockP,2021.2.3,MacIntel,60.0024001,,,,,,,
,,,,,,,,,,,,,,,,,,,,,,-37.22222222,-24,20,75,-21.22222222,2.777777778,1.111111111,0.204046156,-0.276719903,1,0,0,0.1666,submitButton,2.428120713,-0.254829441,-0.40166314,0,0,0,1,35,95,8,1,24,69637,blockP,180,2022-02-14_23h19.32.289,orientation adjustment blockP,2021.2.3,MacIntel,60.0024001,,,,,,,
,,,,,,,,,,,,,,,,,,,,,,-45.55555556,-35,20,75,-28.55555556,6.444444444,2.577777778,0.181754829,-0.304702488,1,0,0,0.6519,submitButton,2.429945799,-0.229479031,-0.407392239,0,0,0,1,36,96,19,1,35,69637,blockP,180,2022-02-14_23h19.32.289,orientation adjustment blockP,2021.2.3,MacIntel,60.0024001,,,,,,,
,,,,,,,,,,,,,,,,,,,,,,25.55555556,-29,20,75,-35.44444444,6.444444444,2.577777778,0.383417155,-0.279635824,1,0,0,0.0817,submitButton,2.431726908,-0.334808621,-0.384057075,0,0,0,1,37,97,13,1,29,69637,blockP,180,2022-02-14_23h19.32.289,orientation adjustment blockP,2021.2.3,MacIntel,60.0024001,,,,,,,
,,,,,,,,,,,,,,,,,,,,,,66.11111111,-55,20,75,-48.88888889,6.111111111,2.444444444,-0.43491428,-0.386853638,1,0,0,1.7696,submitButton,2.431878307,-0.43491428,-0.386853638,0,0,0,1,38,98,39,1,55,69637,blockP,180,2022-02-14_23h19.32.289,orientation adjustment blockP,2021.2.3,MacIntel,60.0024001,,,,,,,
,,,,,,,,,,,,,,,,,,,,,,-38.88888889,40,20,75,-140.8888889,0.888888889,0.355555556,0.388375922,-0.314775255,1,0,0,0.6329,submitButton,2.40745098,-0.473743252,-0.386054687,0,0,0,1,39,99,24,1,40,69637,blockP,180,2022-02-14_23h19.32.289,orientation adjustment blockP,2021.2.3,MacIntel,60.0024001,,,,,,,
,,,,,,,,,,,,,,,,,,,,,,66.11111111,46,20,75,216.1111111,9.888888889,3.955555556,-0.291164042,-0.380001831,1,0,0,2.2994,submitButton,2.425452196,-0.291164042,-0.380001831,0,0,0,1,40,100,30,1,46,69637,blockP,180,2022-02-14_23h19.32.289,orientation adjustment blockP,2021.2.3,MacIntel,60.0024001,,,,,,,
,,,,,,,,,,,,,,,,,,,,,,63.88888889,72,20,75,248.8888889,3.111111111,1.244444444,0.224906141,-0.305312229,1,0,0,1.4853,submitButton,2.411877395,-0.32069102,-0.390594889,0,0,0,1,41,101,56,1,72,69637,blockP,180,2022-02-14_23h19.32.289,orientation adjustment blockP,2021.2.3,MacIntel,60.0024001,,,,,,,
,,,,,,,,,,,,,,,,,,,,,,-39.44444444,53,20,75,59.55555556,6.555555556,2.622222222,0.202224325,-0.300145874,1,0,0,0.5332,submitButton,2.414267677,-0.279348755,-0.389347195,0,0,0,1,42,102,37,1,53,69637,blockP,180,2022-02-14_23h19.32.289,orientation adjustment blockP,2021.2.3,MacIntel,60.0024001,,,,,,,
,,,,,,,,,,,,,,,,,,,,,,-57.77777778,-16,20,75,-206.7777778,10.77777778,4.311111111,0.393413628,-0.293501655,1,0,0,2.0353,submitButton,2.435580524,-0.215119629,-0.408236898,0,0,0,1,43,103,0,1,16,69637,blockP,180,2022-02-14_23h19.32.289,orientation adjustment blockP,2021.2.3,MacIntel,60.0024001,,,,,,,
,,,,,,,,,,,,,,,,,,,,,,-36.66666667,50,20,75,44.33333333,5.666666667,2.266666667,-0.335120917,-0.371109687,1,0,0,0.884,submitButton,2.433703704,0.396787381,-0.392409871,1,0,0,1,44,104,34,1,50,69637,blockP,180,2022-02-14_23h19.32.289,orientation adjustment blockP,2021.2.3,MacIntel,60.0024001,continueButton,,,,,,
,,,,,,,,,,,,,,,,,,,,,,60,-73,20,75,-71,2,0.8,-0.457206014,-0.406587863,1,0,0,1.3666,submitButton,2.415750916,-0.457206014,-0.406587863,0,0,0,1,45,105,57,1,73,69637,blockP,180,2022-02-14_23h19.32.289,orientation adjustment blockP,2021.2.3,MacIntel,60.0024001,,,,,,,
,,,,,,,,,,,,,,,,,,,,,,53.33333333,-33,20,75,-35.66666667,2.666666667,1.066666667,0.434257134,-0.281066895,1,0,0,0.0334,submitButton,2.401086957,-0.330755174,-0.390529039,0,0,0,1,46,106,17,1,33,69637,blockP,180,2022-02-14_23h19.32.289,orientation adjustment blockP,2021.2.3,MacIntel,60.0024001,,,,,,,
,,,,,,,,,,,,,,,,,,,,,,-33.33333333,62,20,75,51.66666667,10.33333333,4.133333333,0.174569702,-0.318383789,1,0,0,0.0812,submitButton,2.419713262,-0.397367147,-0.405819092,0,0,0,1,47,107,46,1,62,69637,blockP,180,2022-02-14_23h19.32.289,orientation adjustment blockP,2021.2.3,MacIntel,60.0024001,,,,,,,
,,,,,,,,,,,,,,,,,,,,,,62.77777778,31,20,75,207.7777778,3.222222222,1.288888889,0.222789307,-0.304684923,1,0,0,1.8834,submitButton,2.407683215,-0.079255642,-0.299231228,0,0,0,1,48,108,15,1,31,69637,blockP,180,2022-02-14_23h19.32.289,orientation adjustment blockP,2021.2.3,MacIntel,60.0024001,,,,,,,
,,,,,,,,,,,,,,,,,,,,,,49.44444444,59,20,75,239.4444444,0.444444444,0.177777778,0.224410333,-0.297647027,1,0,0,1.6504,submitButton,2.384210526,-0.261675042,-0.396180827,0,0,0,1,49,109,43,1,59,69637,blockP,180,2022-02-14_23h19.32.289,orientation adjustment blockP,2021.2.3,MacIntel,60.0024001,,,,,,,
,,,,,,,,,,,,,,,,,,,,,,-28.88888889,-70,20,75,-248.8888889,1.111111111,0.444444444,0.433630235,-0.281524251,1,0,0,2.968,submitButton,2.36400463,-0.137822333,-0.404752333,0,0,0,1,50,110,54,1,70,69637,blockP,180,2022-02-14_23h19.32.289,orientation adjustment blockP,2021.2.3,MacIntel,60.0024001,,,,,,,
,,,,,,,,,,,,,,,,,,,,,,-27.77777778,36,20,75,39.22222222,3.222222222,1.288888889,0.176711494,-0.32384257,1,0,0,0.6999,submitButton,2.352920962,-0.240540907,-0.411405301,0,0,0,1,51,111,20,1,36,69637,blockP,180,2022-02-14_23h19.32.289,orientation adjustment blockP,2021.2.3,MacIntel,60.0024001,,,,,,,
,,,,,,,,,,,,,,,,,,,,,,-62.22222222,-57,20,75,-237.2222222,0.222222222,0.088888889,-0.224115126,-0.392537638,1,0,0,2.2673,submitButton,2.329818594,-0.224115126,-0.392537638,0,0,0,1,52,112,41,1,57,69637,blockP,180,2022-02-14_23h19.32.289,orientation adjustment blockP,2021.2.3,MacIntel,60.0024001,,,,,,,
,,,,,,,,,,,,,,,,,,,,,,43.88888889,-34,20,75,148.8888889,2.888888889,1.155555556,0.235314195,-0.296562636,1,0,0,2.1178,submitButton,2.317957351,-0.231026815,-0.382236057,0,0,0,1,53,113,18,1,34,69637,blockP,180,2022-02-14_23h19.32.289,orientation adjustment blockP,2021.2.3,MacIntel,60.0024001,,,,,,,
,,,,,,,,,,,,,,,,,,,,,,51.11111111,56,20,75,248.1111111,12.11111111,4.844444444,-0.243124288,-0.373585273,1,0,0,2.2678,submitButton,2.343222222,-0.243124288,-0.373585273,0,0,0,1,54,114,40,1,56,69637,blockP,180,2022-02-14_23h19.32.289,orientation adjustment blockP,2021.2.3,MacIntel,60.0024001,,,,,,,
,,,,,,,,,,,,,,,,,,,,,,60.55555556,26,20,75,208.5555556,2.555555556,1.022222222,0.15604187,-0.296355048,1,0,0,1.5008,submitButton,2.330143014,-0.399533217,-0.410745714,0,0,0,1,55,115,10,1,26,69637,blockP,180,2022-02-14_23h19.32.289,orientation adjustment blockP,2021.2.3,MacIntel,60.0024001,,,,,,,
,,,,,,,,,,,,,,,,,,,,,,-31.11111111,74,20,75,70.88888889,3.111111111,1.244444444,-0.366438327,-0.395348104,1,0,0,0.682,submitButton,2.319498911,-0.366438327,-0.395348104,0,0,0,1,56,116,58,1,74,69637,blockP,180,2022-02-14_23h19.32.289,orientation adjustment blockP,2021.2.3,MacIntel,60.0024001,,,,,,,
,,,,,,,,,,,,,,,,,,,,,,34.44444444,66,20,75,244.4444444,1.555555556,0.622222222,0.185616794,-0.325283135,1,0,0,1.9006,submitButton,2.303020496,-0.185703125,-0.413672214,0,0,0,1,57,117,50,1,66,69637,blockP,180,2022-02-14_23h19.32.289,orientation adjustment blockP,2021.2.3,MacIntel,60.0024001,,,,,,,
,,,,,,,,,,,,,,,,,,,,,,-30.55555556,-42,20,75,-50.55555556,8.555555556,3.422222222,0.185602892,-0.284817776,1,0,0,0.1176,submitButton,2.313782051,-0.278330621,-0.427793104,0,0,0,1,58,118,26,1,42,69637,blockP,180,2022-02-14_23h19.32.289,orientation adjustment blockP,2021.2.3,MacIntel,60.0024001,,,,,,,
,,,,,,,,,,,,,,,,,,,,,,-47.22222222,-22,20,75,-15.22222222,6.777777778,2.711111111,0.184677938,-0.293967692,1,0,0,1.6007,submitButton,2.317566138,0.303718669,-0.401158854,1,0,0,1,59,119,6,1,22,69637,blockP,180,2022-02-14_23h19.32.289,orientation adjustment blockP,2021.2.3,MacIntel,60.0024001,continueButton,,,,,,
,,,,,,,,,,,,,,,,,,,,,,-57.77777778,71,20,75,67.22222222,3.777777778,1.511111111,0.204605306,-0.333972982,1,0,0,0.4333,submitButton,2.309958071,-0.255634494,-0.416498413,0,0,0,2,0,120,55,1,71,69637,blockP,180,2022-02-14_23h19.32.289,orientation adjustment blockP,2021.2.3,MacIntel,60.0024001,,,,,,,
,,,,,,,,,,,,,,,,,,,,,,61.11111111,41,20,75,227.1111111,6.111111111,2.444444444,0.185614556,-0.302575412,1,0,0,1.6513,submitButton,2.311214953,-0.157785509,-0.401469455,0,0,0,2,1,121,25,1,41,69637,blockP,180,2022-02-14_23h19.32.289,orientation adjustment blockP,2021.2.3,MacIntel,60.0024001,,,,,,,
,,,,,,,,,,,,,,,,,,,,,,-42.77777778,65,20,75,51.22222222,13.77777778,5.511111111,-0.341157905,-0.464125434,1,0,0,0.6323,submitButton,2.340843621,-0.339598728,-0.392517158,0,0,0,2,2,122,49,1,65,69637,blockP,180,2022-02-14_23h19.32.289,orientation adjustment blockP,2021.2.3,MacIntel,60.0024001,,,,,,,
,,,,,,,,,,,,,,,,,,,,,,56.11111111,61,20,75,238.1111111,2.888888889,1.155555556,0.196967773,-0.281296455,1,0,0,1.6005,submitButton,2.329969419,0.07935262,-0.327502238,0,0,0,2,3,123,45,1,61,69637,blockP,180,2022-02-14_23h19.32.289,orientation adjustment blockP,2021.2.3,MacIntel,60.0024001,,,,,,,
,,,,,,,,,,,,,,,,,,,,,,-43.33333333,70,20,75,70.66666667,0.666666667,0.266666667,-0.211927083,-0.40866428,1,0,0,0.7811,submitButton,2.311212121,0.119967177,-0.294365099,0,0,0,2,4,124,54,1,70,69637,blockP,180,2022-02-14_23h19.32.289,orientation adjustment blockP,2021.2.3,MacIntel,60.0024001,,,,,,,
,,,,,,,,,,,,,,,,,,,,,,-60,-59,20,75,-241,2,0.8,0.414265815,-0.277369317,1,0,0,1.5838,submitButton,2.297597598,-0.336372477,-0.383411865,0,0,0,2,5,125,43,1,59,69637,blockP,180,2022-02-14_23h19.32.289,orientation adjustment blockP,2021.2.3,MacIntel,60.0024001,,,,,,,
,,,,,,,,,,,,,,,,,,,,,,-37.22222222,25,20,75,22.77777778,2.222222222,0.888888889,-0.273094177,-0.413510878,1,0,0,0.7684,submitButton,2.285019841,-0.273094177,-0.413510878,0,0,0,2,6,126,9,1,25,69637,blockP,180,2022-02-14_23h19.32.289,orientation adjustment blockP,2021.2.3,MacIntel,60.0024001,,,,,,,
,,,,,,,,,,,,,,,,,,,,,,-58.88888889,21,20,75,20.11111111,0.888888889,0.355555556,-0.217973294,-0.406005452,1,0,0,1.3834,submitButton,2.267944936,-0.217973294,-0.406005452,0,0,0,2,7,127,5,1,21,69637,blockP,180,2022-02-14_23h19.32.289,orientation adjustment blockP,2021.2.3,MacIntel,60.0024001,,,,,,,
,,,,,,,,,,,,,,,,,,,,,,46.66666667,-58,20,75,-54.33333333,3.666666667,1.466666667,-0.246769206,-0.392391629,1,0,0,0.881,submitButton,2.260916179,-0.246769206,-0.392391629,0,0,0,2,8,128,42,1,58,69637,blockP,180,2022-02-14_23h19.32.289,orientation adjustment blockP,2021.2.3,MacIntel,60.0024001,,,,,,,
,,,,,,,,,,,,,,,,,,,,,,-40.55555556,28,20,75,22.44444444,5.555555556,2.222222222,-0.319898546,-0.433985189,1,0,0,0.834,submitButton,2.26057971,-0.326477322,-0.407971395,0,0,0,2,9,129,12,1,28,69637,blockP,180,2022-02-14_23h19.32.289,orientation adjustment blockP,2021.2.3,MacIntel,60.0024001,,,,,,,
,,,,,,,,,,,,,,,,,,,,,,21.66666667,69,20,75,252.6666667,3.666666667,1.466666667,0.206424967,-0.316196425,1,0,0,2.3824,submitButton,2.253735632,-0.212415297,-0.390912137,0,0,0,2,10,130,53,1,69,69637,blockP,180,2022-02-14_23h19.32.289,orientation adjustment blockP,2021.2.3,MacIntel,60.0024001,,,,,,,
,,,,,,,,,,,,,,,,,,,,,,57.22222222,-17,20,75,-14.77777778,2.222222222,0.888888889,-0.225994534,-0.399582045,1,0,0,1.3158,submitButton,2.242070275,-0.225994534,-0.399582045,0,0,0,2,11,131,1,1,17,69637,blockP,180,2022-02-14_23h19.32.289,orientation adjustment blockP,2021.2.3,MacIntel,60.0024001,,,,,,,
,,,,,,,,,,,,,,,,,,,,,,-65,66,20,75,63,3,1.2,0.150302531,-0.319786648,1,0,0,0.5347,submitButton,2.233239171,-0.316909417,-0.390840929,0,0,0,2,12,132,50,1,66,69637,blockP,180,2022-02-14_23h19.32.289,orientation adjustment blockP,2021.2.3,MacIntel,60.0024001,,,,,,,
,,,,,,,,,,,,,,,,,,,,,,-43.88888889,43,20,75,45.11111111,2.111111111,0.844444444,-0.232764214,-0.417208523,1,0,0,1.0816,submitButton,2.221568627,-0.232764214,-0.417208523,0,0,0,2,13,133,27,1,43,69637,blockP,180,2022-02-14_23h19.32.289,orientation adjustment blockP,2021.2.3,MacIntel,60.0024001,,,,,,,
,,,,,,,,,,,,,,,,,,,,,,-48.88888889,38,20,75,36.11111111,1.888888889,0.755555556,-0.317796292,-0.419047038,1,0,0,0.9342,submitButton,2.209351852,0.346444906,-0.389680922,1,0,0,2,14,134,22,1,38,69637,blockP,180,2022-02-14_23h19.32.289,orientation adjustment blockP,2021.2.3,MacIntel,60.0024001,continueButton,,,,,,
,,,,,,,,,,,,,,,,,,,,,,-47.77777778,-16,20,75,-21.77777778,5.777777778,2.311111111,0.198165012,-0.30463874,1,0,0,0.1171,submitButton,2.210192837,0.109628364,-0.353127984,0,0,0,2,15,135,0,1,16,69637,blockP,180,2022-02-14_23h19.32.289,orientation adjustment blockP,2021.2.3,MacIntel,60.0024001,,,,,,,
,,,,,,,,,,,,,,,,,,,,,,-57.77777778,-72,20,75,-243.7777778,8.222222222,3.288888889,-0.357803989,-0.386386854,1,0,0,2.7008,submitButton,2.219034608,-0.357803989,-0.386386854,0,0,0,2,16,136,56,1,72,69637,blockP,180,2022-02-14_23h19.32.289,orientation adjustment blockP,2021.2.3,MacIntel,60.0024001,,,,,,,
,,,,,,,,,,,,,,,,,,,,,,-31.11111111,23,20,75,25.88888889,2.888888889,1.155555556,-0.243677538,-0.389242215,1,0,0,0.6315,submitButton,2.210388437,-0.243677538,-0.389242215,0,0,0,2,17,137,7,1,23,69637,blockP,180,2022-02-14_23h19.32.289,orientation adjustment blockP,2021.2.3,MacIntel,60.0024001,,,,,,,
,,,,,,,,,,,,,,,,,,,,,,62.22222222,60,20,75,234.2222222,5.777777778,2.311111111,0.210832926,-0.305404324,1,0,0,1.4476,submitButton,2.211200717,-0.233423055,-0.381437174,0,0,0,2,18,138,44,1,60,69637,blockP,180,2022-02-14_23h19.32.289,orientation adjustment blockP,2021.2.3,MacIntel,60.0024001,,,,,,,
,,,,,,,,,,,,,,,,,,,,,,28.88888889,-33,20,75,-32.11111111,0.888888889,0.355555556,0.439138455,-0.281729804,1,0,0,0.1337,submitButton,2.196355556,0.139680718,-0.309513075,0,0,0,2,19,139,17,1,33,69637,blockP,180,2022-02-14_23h19.32.289,orientation adjustment blockP,2021.2.3,MacIntel,60.0024001,,,,,,,
,,,,,,,,,,,,,,,,,,,,,,29.44444444,47,20,75,229.4444444,2.444444444,0.977777778,0.198236016,-0.299232246,1,0,0,1.9208,submitButton,2.186684303,-0.184066298,-0.376070014,0,0,0,2,20,140,31,1,47,69637,blockP,180,2022-02-14_23h19.32.289,orientation adjustment blockP,2021.2.3,MacIntel,60.0024001,,,,,,,
,,,,,,,,,,,,,,,,,,,,,,65,62,20,75,231,11,4.4,0.41859592,-0.29716885,1,0,0,2.2816,submitButton,2.204111986,-0.158616333,-0.387783474,0,0,0,2,21,141,46,1,62,69637,blockP,180,2022-02-14_23h19.32.289,orientation adjustment blockP,2021.2.3,MacIntel,60.0024001,,,,,,,
,,,,,,,,,,,,,,,,,,,,,,43.33333333,64,20,75,254.3333333,10.33333333,4.133333333,0.168092244,-0.312754042,1,0,0,2.036,submitButton,2.219184028,-0.217801921,-0.391666802,0,0,0,2,22,142,48,1,64,69637,blockP,180,2022-02-14_23h19.32.289,orientation adjustment blockP,2021.2.3,MacIntel,60.0024001,,,,,,,
,,,,,,,,,,,,,,,,,,,,,,-58.88888889,26,20,75,23.11111111,2.888888889,1.155555556,-0.278363647,-0.402234836,1,0,0,1.5642,submitButton,2.210938846,-0.278363647,-0.402234836,0,0,0,2,23,143,10,1,26,69637,blockP,180,2022-02-14_23h19.32.289,orientation adjustment blockP,2021.2.3,MacIntel,60.0024001,,,,,,,
,,,,,,,,,,,,,,,,,,,,,,-65,-53,20,75,-221,12,4.8,-0.195881755,-0.391608955,1,0,0,2.1825,submitButton,2.230854701,-0.195881755,-0.391608955,0,0,0,2,24,144,37,1,53,69637,blockP,180,2022-02-14_23h19.32.289,orientation adjustment blockP,2021.2.3,MacIntel,60.0024001,,,,,,,
,,,,,,,,,,,,,,,,,,,,,,-73.33333333,-30,20,75,-25.33333333,4.666666667,1.866666667,0.180718452,-0.297364502,1,0,0,0.0998,submitButton,2.22807464,-0.188539497,-0.39085144,0,0,0,2,25,145,14,1,30,69637,blockP,180,2022-02-14_23h19.32.289,orientation adjustment blockP,2021.2.3,MacIntel,60.0024001,,,,,,,
,,,,,,,,,,,,,,,,,,,,,,40,31,20,75,206,5,2,0.185513238,-0.304149848,1,0,0,2.3339,submitButton,2.226346801,-0.158262939,-0.401671278,0,0,0,2,26,146,15,1,31,69637,blockP,180,2022-02-14_23h19.32.289,orientation adjustment blockP,2021.2.3,MacIntel,60.0024001,,,,,,,
,,,,,,,,,,,,,,,,,,,,,,70.55555556,42,20,75,225.5555556,3.555555556,1.422222222,0.219056736,-0.308869086,1,0,0,1.2657,submitButton,2.220300752,-0.150599297,-0.379751723,0,0,0,2,27,147,26,1,42,69637,blockP,180,2022-02-14_23h19.32.289,orientation adjustment blockP,2021.2.3,MacIntel,60.0024001,,,,,,,
,,,,,,,,,,,,,,,,,,,,,,32.77777778,67,20,75,239.7777778,7.222222222,2.888888889,0.195705566,-0.304759793,1,0,0,2.0999,submitButton,2.225290216,-0.147998318,-0.374905938,0,0,0,2,28,148,51,1,67,69637,blockP,180,2022-02-14_23h19.32.289,orientation adjustment blockP,2021.2.3,MacIntel,60.0024001,,,,,,,
,,,,,,,,,,,,,,,,,,,,,,-43.88888889,-54,20,75,-235.8888889,1.888888889,0.755555556,0.41775689,-0.288734402,1,0,0,1.9173,submitButton,2.214403292,0.354842394,-0.400941298,1,0,0,2,29,149,38,1,54,69637,blockP,180,2022-02-14_23h19.32.289,orientation adjustment blockP,2021.2.3,MacIntel,60.0024001,continueButton,,,,,,
,,,,,,,,,,,,,,,,,,,,,,51.11111111,19,20,75,197.1111111,1.888888889,0.755555556,0.214007568,-0.306249729,1,0,0,1.8359,submitButton,2.203676471,-0.163154229,-0.39463501,0,0,0,2,30,150,3,1,19,69637,blockP,180,2022-02-14_23h19.32.289,orientation adjustment blockP,2021.2.3,MacIntel,60.0024001,,,,,,,
,,,,,,,,,,,,,,,,,,,,,,-61.11111111,-40,20,75,-222.1111111,2.111111111,0.844444444,0.348721653,-0.303096246,1,0,0,1.8173,submitButton,2.193755069,-0.301441074,-0.39259257,0,0,0,2,31,151,24,1,40,69637,blockP,180,2022-02-14_23h19.32.289,orientation adjustment blockP,2021.2.3,MacIntel,60.0024001,,,,,,,
,,,,,,,,,,,,,,,,,,,,,,33.33333333,18,20,75,15.33333333,2.666666667,1.066666667,0.424273682,-0.30535475,1,0,0,0.4667,submitButton,2.185587762,-0.332707587,-0.396515978,0,0,0,2,32,152,2,1,18,69637,blockP,180,2022-02-14_23h19.32.289,orientation adjustment blockP,2021.2.3,MacIntel,60.0024001,,,,,,,
,,,,,,,,,,,,,,,,,,,,,,29.44444444,32,20,75,27.44444444,4.555555556,1.822222222,0.362367893,-0.306751845,1,0,0,0.1497,submitButton,2.182973621,-0.371939324,-0.392725084,0,0,0,2,33,153,16,1,32,69637,blockP,180,2022-02-14_23h19.32.289,orientation adjustment blockP,2021.2.3,MacIntel,60.0024001,,,,,,,
,,,,,,,,,,,,,,,,,,,,,,-68.33333333,-35,20,75,-209.3333333,5.666666667,2.266666667,0.419351535,-0.295517307,1,0,0,1.5996,submitButton,2.183571429,-0.171158244,-0.403287964,0,0,0,2,34,154,19,1,35,69637,blockP,180,2022-02-14_23h19.32.289,orientation adjustment blockP,2021.2.3,MacIntel,60.0024001,,,,,,,
,,,,,,,,,,,,,,,,,,,,,,-64.44444444,22,20,75,24.55555556,2.555555556,1.022222222,-0.240075514,-0.386507433,1,0,0,1.9005,submitButton,2.175334909,-0.240075514,-0.386507433,0,0,0,2,35,155,6,1,22,69637,blockP,180,2022-02-14_23h19.32.289,orientation adjustment blockP,2021.2.3,MacIntel,60.0024001,,,,,,,
,,,,,,,,,,,,,,,,,,,,,,-62.22222222,27,20,75,26.77777778,0.222222222,0.088888889,0.158980984,-0.312666219,1,0,0,0.6664,submitButton,2.160641628,-0.234503174,-0.386988254,0,0,0,2,36,156,11,1,27,69637,blockP,180,2022-02-14_23h19.32.289,orientation adjustment blockP,2021.2.3,MacIntel,60.0024001,,,,,,,
,,,,,,,,,,,,,,,,,,,,,,52.77777778,51,20,75,229.7777778,1.222222222,0.488888889,0.175559082,-0.299802382,1,0,0,2.3168,submitButton,2.148951049,-0.279195353,-0.390875176,0,0,0,2,37,157,35,1,51,69637,blockP,180,2022-02-14_23h19.32.289,orientation adjustment blockP,2021.2.3,MacIntel,60.0024001,,,,,,,
,,,,,,,,,,,,,,,,,,,,,,-71.66666667,-46,20,75,-229.6666667,3.666666667,1.466666667,0.405332574,-0.267395426,1,0,0,1.4144,submitButton,2.144212963,-0.227246094,-0.400143026,0,0,0,2,38,158,30,1,46,69637,blockP,180,2022-02-14_23h19.32.289,orientation adjustment blockP,2021.2.3,MacIntel,60.0024001,,,,,,,
,,,,,,,,,,,,,,,,,,,,,,-67.22222222,75,20,75,76.77777778,1.777777778,0.711111111,0.182427979,-0.312043457,1,0,0,0.6006,submitButton,2.134329502,0.168969252,-0.208735284,0,0,0,2,39,159,59,1,75,69637,blockP,180,2022-02-14_23h19.32.289,orientation adjustment blockP,2021.2.3,MacIntel,60.0024001,,,,,,,
,,,,,,,,,,,,,,,,,,,,,,47.77777778,36,20,75,43.77777778,7.777777778,3.111111111,0.415427517,-0.262016669,1,0,0,0.7992,submitButton,2.141019787,-0.239917874,-0.385511475,0,0,0,2,40,160,20,1,36,69637,blockP,180,2022-02-14_23h19.32.289,orientation adjustment blockP,2021.2.3,MacIntel,60.0024001,,,,,,,
,,,,,,,,,,,,,,,,,,,,,,67.77777778,20,20,75,196.7777778,3.222222222,1.288888889,0.171420627,-0.306455214,1,0,0,1.4683,submitButton,2.135222978,-0.241609938,-0.412537367,0,0,0,2,41,161,4,1,20,69637,blockP,180,2022-02-14_23h19.32.289,orientation adjustment blockP,2021.2.3,MacIntel,60.0024001,,,,,,,
,,,,,,,,,,,,,,,,,,,,,,-43.88888889,48,20,75,50.11111111,2.111111111,0.844444444,0.193150499,-0.303328518,1,0,0,0.5168,submitButton,2.126501502,-0.323234626,-0.413945855,0,0,0,2,42,162,32,1,48,69637,blockP,180,2022-02-14_23h19.32.289,orientation adjustment blockP,2021.2.3,MacIntel,60.0024001,,,,,,,
,,,,,,,,,,,,,,,,,,,,,,-66.66666667,63,20,75,53.33333333,9.666666667,3.866666667,0.182402072,-0.302041287,1,0,0,0.4831,submitButton,2.138180462,-0.220939874,-0.400243462,0,0,0,2,43,163,47,1,63,69637,blockP,180,2022-02-14_23h19.32.289,orientation adjustment blockP,2021.2.3,MacIntel,60.0024001,,,,,,,
,,,,,,,,,,,,,,,,,,,,,,31.11111111,57,20,75,240.1111111,3.111111111,1.244444444,0.173832465,-0.295407172,1,0,0,2.1,submitButton,2.132222222,0.391702474,-0.410185411,1,0,0,2,44,164,41,1,57,69637,blockP,180,2022-02-14_23h19.32.289,orientation adjustment blockP,2021.2.3,MacIntel,60.0024001,continueButton,,,,,,
,,,,,,,,,,,,,,,,,,,,,,36.66666667,55,20,75,230.6666667,4.333333333,1.733333333,0.203649835,-0.311508857,1,0,0,0.349,submitButton,2.129580574,-0.147683173,-0.332156915,0,0,0,2,45,165,39,1,55,69637,blockP,180,2022-02-14_23h19.32.289,orientation adjustment blockP,2021.2.3,MacIntel,60.0024001,,,,,,,
,,,,,,,,,,,,,,,,,,,,,,-68.88888889,74,20,75,65.11111111,8.888888889,3.555555556,0.195081923,-0.280119425,1,0,0,0.3138,submitButton,2.138961988,-0.161014676,-0.375407511,0,0,0,2,46,166,58,1,74,69637,blockP,180,2022-02-14_23h19.32.289,orientation adjustment blockP,2021.2.3,MacIntel,60.0024001,,,,,,,
,,,,,,,,,,,,,,,,,,,,,,67.77777778,49,20,75,232.7777778,3.777777778,1.511111111,0.174152425,-0.304949137,1,0,0,1.3839,submitButton,2.134858388,0.121271362,-0.304451836,0,0,0,2,47,167,33,1,49,69637,blockP,180,2022-02-14_23h19.32.289,orientation adjustment blockP,2021.2.3,MacIntel,60.0024001,,,,,,,
,,,,,,,,,,,,,,,,,,,,,,-47.77777778,-68,20,75,-242.7777778,5.222222222,2.088888889,0.40609809,-0.298468696,1,0,0,1.5507,submitButton,2.134559885,-0.12071167,-0.298362901,0,0,0,2,48,168,52,1,68,69637,blockP,180,2022-02-14_23h19.32.289,orientation adjustment blockP,2021.2.3,MacIntel,60.0024001,,,,,,,
,,,,,,,,,,,,,,,,,,,,,,42.77777778,56,20,75,228.7777778,7.222222222,2.888888889,-0.21699585,-0.379894884,1,0,0,2.0676,submitButton,2.139426523,-0.199323798,-0.376378581,0,0,0,2,49,169,40,1,56,69637,blockP,180,2022-02-14_23h19.32.289,orientation adjustment blockP,2021.2.3,MacIntel,60.0024001,,,,,,,
,,,,,,,,,,,,,,,,,,,,,,-68.88888889,50,20,75,50.11111111,0.111111111,0.044444444,0.178120253,-0.311966553,1,0,0,0.8006,submitButton,2.125997151,0.201361355,-0.269049004,0,0,0,2,50,170,34,1,50,69637,blockP,180,2022-02-14_23h19.32.289,orientation adjustment blockP,2021.2.3,MacIntel,60.0024001,,,,,,,
,,,,,,,,,,,,,,,,,,,,,,62.22222222,45,20,75,232.2222222,7.222222222,2.888888889,0.208439806,-0.280245633,1,0,0,1.7663,submitButton,2.130856334,0.079888238,-0.329028863,0,0,0,2,51,171,29,1,45,69637,blockP,180,2022-02-14_23h19.32.289,orientation adjustment blockP,2021.2.3,MacIntel,60.0024001,,,,,,,
,,,,,,,,,,,,,,,,,,,,,,30,-73,20,75,-62,11,4.4,-0.255427823,-0.379845649,1,0,0,0.452,submitButton,2.145218003,-0.255427823,-0.379845649,0,0,0,2,52,172,57,1,73,69637,blockP,180,2022-02-14_23h19.32.289,orientation adjustment blockP,2021.2.3,MacIntel,60.0024001,,,,,,,
,,,,,,,,,,,,,,,,,,,,,,48.88888889,-37,20,75,-32.11111111,4.888888889,1.955555556,0.423895942,-0.288491889,1,0,0,0.9662,submitButton,2.144025157,-0.361727261,-0.415122342,0,0,0,2,53,173,21,1,37,69637,blockP,180,2022-02-14_23h19.32.289,orientation adjustment blockP,2021.2.3,MacIntel,60.0024001,,,,,,,
,,,,,,,,,,,,,,,,,,,,,,-42.77777778,29,20,75,23.22222222,5.777777778,2.311111111,-0.292805074,-0.377939996,1,0,0,0.6499,submitButton,2.145069444,-0.292805074,-0.377939996,0,0,0,2,54,174,13,1,29,69637,blockP,180,2022-02-14_23h19.32.289,orientation adjustment blockP,2021.2.3,MacIntel,60.0024001,,,,,,,
,,,,,,,,,,,,,,,,,,,,,,67.22222222,-39,20,75,-38.77777778,0.222222222,0.088888889,-0.23793674,-0.428774821,1,0,0,1.3334,submitButton,2.132298137,-0.27631307,-0.405543959,0,0,0,2,55,175,23,1,39,69637,blockP,180,2022-02-14_23h19.32.289,orientation adjustment blockP,2021.2.3,MacIntel,60.0024001,,,,,,,
,,,,,,,,,,,,,,,,,,,,,,-58.33333333,52,20,75,56.66666667,4.666666667,1.866666667,0.162298991,-0.286373427,1,0,0,1.1513,submitButton,2.130658436,0.096801826,-0.302428657,0,0,0,2,56,176,36,1,52,69637,blockP,180,2022-02-14_23h19.32.289,orientation adjustment blockP,2021.2.3,MacIntel,60.0024001,,,,,,,
,,,,,,,,,,,,,,,,,,,,,,57.77777778,-44,20,75,-51.22222222,7.222222222,2.888888889,-0.164170058,-0.399755588,1,0,0,1.501,submitButton,2.135310157,-0.164170058,-0.399755588,0,0,0,2,57,177,28,1,44,69637,blockP,180,2022-02-14_23h19.32.289,orientation adjustment blockP,2021.2.3,MacIntel,60.0024001,,,,,,,
,,,,,,,,,,,,,,,,,,,,,,-49.44444444,-34,20,75,-35.44444444,1.444444444,0.577777778,-0.317620307,-0.38609653,1,0,0,1.1662,submitButton,2.125813008,-0.317620307,-0.38609653,0,0,0,2,58,178,18,1,34,69637,blockP,180,2022-02-14_23h19.32.289,orientation adjustment blockP,2021.2.3,MacIntel,60.0024001,,,,,,,
,,,,,,,,,,,,,,,,,,,,,,73.33333333,-24,20,75,-25.66666667,1.666666667,0.666666667,0.432501763,-0.299143745,1,0,0,0.0656,submitButton,2.116969697,-0.292015856,-0.404736057,0,0,0,2,59,179,8,1,24,69637,blockP,180,2022-02-14_23h19.32.289,orientation adjustment blockP,2021.2.3,MacIntel,60.0024001,,,,,,,
,,,,,,,,,,,,,,,,,,,,,,,,,,,,,,,,,,,,,,,,,,,,,,,,69637,blockP,180,2022-02-14_23h19.32.289,orientation adjustment blockP,2021.2.3,MacIntel,60.0024001,,0.25634101,-0.408624674,1,0,0,EndButtonTxt
