consentMouse1.x,consentMouse1.y,consentMouse1.leftButton,consentMouse1.midButton,consentMouse1.rightButton,consentMouse1.clicked_name,consent_Mouse.x,consent_Mouse.y,consent_Mouse.leftButton,consent_Mouse.midButton,consent_Mouse.rightButton,consent_Mouse.clicked_name,startMouse.x,startMouse.y,startMouse.leftButton,startMouse.midButton,startMouse.rightButton,startMouse_2.x,startMouse_2.y,startMouse_2.leftButton,startMouse_2.midButton,startMouse_2.rightButton,start_distance,fixedOri,minimalDistance,maxOri,this_ori,accuracy,presented_accuracy,submitMouse.x,submitMouse.y,submitMouse.leftButton,submitMouse.midButton,submitMouse.rightButton,submitMouse.time,submitMouse.clicked_name,block_accuracy,continueMouse.x,continueMouse.y,continueMouse.leftButton,continueMouse.midButton,continueMouse.rightButton,trials.thisRepN,trials.thisTrialN,trials.thisN,trials.thisIndex,trials.ran,startOri,participant,condition,nTrials,date,expName,psychopyVersion,OS,frameRate,continueMouse.clicked_name,EndButtonMouse.x,EndButtonMouse.y,EndButtonMouse.leftButton,EndButtonMouse.midButton,EndButtonMouse.rightButton,EndButtonMouse.clicked_name
0.37109375,-0.399739583,1,0,0,consent_button1,0.42578125,-0.3984375,1,0,0,consent_button,0.174479167,-0.255208333,1,0,0,0.1796875,-0.315104167,1,0,0,50,55,20,75,83,28,18.2,0.39453125,-0.294270833,1,0,0,2.5798,submitButton,18.2,-0.319010417,-0.38671875,0,0,0,0,0,0,39,1,55,69670,blockP,180,2022-02-18_16h02.40.226,orientation adjustment blockP,2021.2.3,Win32,59.99160118,,,,,,,
,,,,,,,,,,,,,,,,,,,,,,-68.33333333,-37,20,75,-74.33333333,37.33333333,29.86666667,0.204427083,-0.303385417,1,0,0,0.0848,submitButton,24.03333333,-0.240885417,-0.419270833,0,0,0,0,1,1,21,1,37,69670,blockP,180,2022-02-18_16h02.40.226,orientation adjustment blockP,2021.2.3,Win32,59.99160118,,,,,,,
,,,,,,,,,,,,,,,,,,,,,,47.77777778,-31,20,75,153.7777778,4.777777778,1.911111111,0.19140625,-0.3046875,1,0,0,0.165,submitButton,16.65925926,-0.169270833,-0.39453125,0,0,0,0,2,2,15,1,31,69670,blockP,180,2022-02-18_16h02.40.226,orientation adjustment blockP,2021.2.3,Win32,59.99160118,,,,,,,
,,,,,,,,,,,,,,,,,,,,,,32.22222222,19,20,75,28.22222222,9.222222222,3.688888889,0.372395833,-0.291666667,1,0,0,0.3332,submitButton,3.688888889,0.03125,-0.247395833,0,0,0,0,3,3,3,1,19,69670,blockP,180,2022-02-18_16h02.40.226,orientation adjustment blockP,2021.2.3,Win32,59.99160118,,,,,,,
,,,,,,,,,,,,,,,,,,,,,,68.88888889,17,20,75,28.88888889,11.88888889,4.755555556,0.401041667,-0.286458333,1,0,0,0.0151,submitButton,4.222222222,-0.307291667,-0.401041667,0,0,0,0,4,4,1,1,17,69670,blockP,180,2022-02-18_16h02.40.226,orientation adjustment blockP,2021.2.3,Win32,59.99160118,,,,,,,
,,,,,,,,,,,,,,,,,,,,,,23.88888889,35,20,75,31.88888889,3.111111111,1.244444444,0.397135417,-0.287760417,1,0,0,0.1646,submitButton,3.22962963,-0.354166667,-0.41015625,0,0,0,0,5,5,19,1,35,69670,blockP,180,2022-02-18_16h02.40.226,orientation adjustment blockP,2021.2.3,Win32,59.99160118,,,,,,,
,,,,,,,,,,,,,,,,,,,,,,-38.88888889,63,20,75,69.11111111,6.111111111,2.444444444,0.182291667,-0.295572917,1,0,0,0.2163,submitButton,2.444444444,0.22265625,-0.270833333,0,0,0,0,6,6,47,1,63,69670,blockP,180,2022-02-18_16h02.40.226,orientation adjustment blockP,2021.2.3,Win32,59.99160118,,,,,,,
,,,,,,,,,,,,,,,,,,,,,,71.11111111,-71,20,75,112.1111111,3.111111111,1.244444444,0.209635417,-0.315104167,1,0,0,2.7164,submitButton,1.844444444,-0.268229167,-0.41796875,0,0,0,0,7,7,55,1,71,69670,blockP,180,2022-02-18_16h02.40.226,orientation adjustment blockP,2021.2.3,Win32,59.99160118,,,,,,,
,,,,,,,,,,,,,,,,,,,,,,-39.44444444,-47,20,75,-34.44444444,12.55555556,5.022222222,0.213541667,-0.30859375,1,0,0,0.3507,submitButton,2.903703704,-0.287760417,-0.40625,0,0,0,0,8,8,31,1,47,69670,blockP,180,2022-02-18_16h02.40.226,orientation adjustment blockP,2021.2.3,Win32,59.99160118,,,,,,,
,,,,,,,,,,,,,,,,,,,,,,31.66666667,51,20,75,53.66666667,2.666666667,1.066666667,0.354166667,-0.27734375,1,0,0,0.0507,submitButton,1.066666667,-0.235677083,-0.424479167,0,0,0,0,9,9,35,1,51,69670,blockP,180,2022-02-18_16h02.40.226,orientation adjustment blockP,2021.2.3,Win32,59.99160118,,,,,,,
,,,,,,,,,,,,,,,,,,,,,,70.55555556,-54,20,75,134.5555556,8.555555556,3.422222222,0.157552083,-0.326822917,1,0,0,1.2838,submitButton,2.244444444,-0.1171875,-0.375,0,0,0,0,10,10,38,1,54,69670,blockP,180,2022-02-18_16h02.40.226,orientation adjustment blockP,2021.2.3,Win32,59.99160118,,,,,,,
,,,,,,,,,,,,,,,,,,,,,,-26.66666667,60,20,75,31.33333333,28.66666667,18.63333333,-0.32421875,-0.395833333,1,0,0,3.1837,submitButton,7.707407407,-0.3359375,-0.421875,0,0,0,0,11,11,44,1,60,69670,blockP,180,2022-02-18_16h02.40.226,orientation adjustment blockP,2021.2.3,Win32,59.99160118,,,,,,,
,,,,,,,,,,,,,,,,,,,,,,-34.44444444,-49,20,75,-52.44444444,3.444444444,1.377777778,-0.32421875,-0.451822917,1,0,0,0.5669,submitButton,1.377777778,0.365885417,-0.217447917,0,0,0,0,12,12,33,1,49,69670,blockP,180,2022-02-18_16h02.40.226,orientation adjustment blockP,2021.2.3,Win32,59.99160118,,,,,,,
,,,,,,,,,,,,,,,,,,,,,,-61.66666667,-61,20,75,-55.66666667,5.333333333,2.133333333,0.166666667,-0.307291667,1,0,0,0.8334,submitButton,1.755555556,-0.274739583,-0.40625,0,0,0,0,13,13,45,1,61,69670,blockP,180,2022-02-18_16h02.40.226,orientation adjustment blockP,2021.2.3,Win32,59.99160118,,,,,,,
,,,,,,,,,,,,,,,,,,,,,,-55.55555556,-59,20,75,-50.55555556,8.444444444,3.377777778,0.194010417,-0.296875,1,0,0,0.6337,submitButton,2.296296296,0.44140625,-0.40234375,1,0,0,0,14,14,43,1,59,69670,blockP,180,2022-02-18_16h02.40.226,orientation adjustment blockP,2021.2.3,Win32,59.99160118,continueButton,,,,,,
,,,,,,,,,,,,,,,,,,,,,,72.22222222,-25,20,75,138.2222222,16.77777778,10.90555556,0.236979167,-0.3125,1,0,0,1.5373,submitButton,10.90555556,0.140625,-0.303385417,0,0,0,0,15,15,9,1,25,69670,blockP,180,2022-02-18_16h02.40.226,orientation adjustment blockP,2021.2.3,Win32,59.99160118,,,,,,,
,,,,,,,,,,,,,,,,,,,,,,-60.55555556,66,20,75,-111.5555556,2.444444444,0.977777778,0.381510417,-0.272135417,1,0,0,1.8826,submitButton,5.941666667,0.0234375,-0.311197917,0,0,0,0,16,16,50,1,66,69670,blockP,180,2022-02-18_16h02.40.226,orientation adjustment blockP,2021.2.3,Win32,59.99160118,,,,,,,
,,,,,,,,,,,,,,,,,,,,,,-56.66666667,70,20,75,76.33333333,6.333333333,2.533333333,0.1796875,-0.307291667,1,0,0,0.3997,submitButton,4.805555556,-0.221354167,-0.397135417,0,0,0,0,17,17,54,1,70,69670,blockP,180,2022-02-18_16h02.40.226,orientation adjustment blockP,2021.2.3,Win32,59.99160118,,,,,,,
,,,,,,,,,,,,,,,,,,,,,,52.77777778,53,20,75,46.77777778,6.222222222,2.488888889,0.419270833,-0.283854167,1,0,0,0.3336,submitButton,4.226388889,-0.313802083,-0.420572917,0,0,0,0,18,18,37,1,53,69670,blockP,180,2022-02-18_16h02.40.226,orientation adjustment blockP,2021.2.3,Win32,59.99160118,,,,,,,
,,,,,,,,,,,,,,,,,,,,,,-37.77777778,-36,20,75,-28.77777778,7.222222222,2.888888889,0.196614583,-0.31640625,1,0,0,0.6001,submitButton,3.958888889,0.220052083,-0.30859375,0,0,0,0,19,19,20,1,36,69670,blockP,180,2022-02-18_16h02.40.226,orientation adjustment blockP,2021.2.3,Win32,59.99160118,,,,,,,
,,,,,,,,,,,,,,,,,,,,,,71.11111111,46,20,75,50.11111111,4.111111111,1.644444444,0.399739583,-0.298177083,1,0,0,0.7503,submitButton,3.573148148,-0.3203125,-0.404947917,0,0,0,0,20,20,30,1,46,69670,blockP,180,2022-02-18_16h02.40.226,orientation adjustment blockP,2021.2.3,Win32,59.99160118,,,,,,,
,,,,,,,,,,,,,,,,,,,,,,-47.22222222,-18,20,75,-10.22222222,7.777777778,3.111111111,-0.395833333,-0.420572917,1,0,0,1.2996,submitButton,3.507142857,-0.395833333,-0.420572917,0,0,0,0,21,21,2,1,18,69670,blockP,180,2022-02-18_16h02.40.226,orientation adjustment blockP,2021.2.3,Win32,59.99160118,,,,,,,
,,,,,,,,,,,,,,,,,,,,,,46.11111111,33,20,75,36.11111111,3.111111111,1.244444444,0.44140625,-0.305989583,1,0,0,0.3997,submitButton,3.224305556,-0.302083333,-0.41796875,0,0,0,0,22,22,17,1,33,69670,blockP,180,2022-02-18_16h02.40.226,orientation adjustment blockP,2021.2.3,Win32,59.99160118,,,,,,,
,,,,,,,,,,,,,,,,,,,,,,-52.77777778,-24,20,75,-17.77777778,6.222222222,2.488888889,0.21484375,-0.313802083,1,0,0,0.3173,submitButton,3.142592593,-0.059895833,-0.365885417,0,0,0,0,23,23,8,1,24,69670,blockP,180,2022-02-18_16h02.40.226,orientation adjustment blockP,2021.2.3,Win32,59.99160118,,,,,,,
,,,,,,,,,,,,,,,,,,,,,,20.55555556,27,20,75,28.55555556,1.555555556,0.622222222,-0.321614583,-0.41796875,1,0,0,0.232,submitButton,2.890555556,-0.321614583,-0.41796875,0,0,0,0,24,24,11,1,27,69670,blockP,180,2022-02-18_16h02.40.226,orientation adjustment blockP,2021.2.3,Win32,59.99160118,,,,,,,
,,,,,,,,,,,,,,,,,,,,,,60,-16,20,75,157,7,2.8,0.184895833,-0.313802083,1,0,0,1.85,submitButton,2.882323232,-0.236979167,-0.416666667,0,0,0,0,25,25,0,1,16,69670,blockP,180,2022-02-18_16h02.40.226,orientation adjustment blockP,2021.2.3,Win32,59.99160118,,,,,,,
,,,,,,,,,,,,,,,,,,,,,,66.66666667,50,20,75,40.66666667,9.333333333,3.733333333,0.389322917,-0.286458333,1,0,0,0.8831,submitButton,2.953240741,-0.28125,-0.399739583,0,0,0,0,26,26,34,1,50,69670,blockP,180,2022-02-18_16h02.40.226,orientation adjustment blockP,2021.2.3,Win32,59.99160118,,,,,,,
,,,,,,,,,,,,,,,,,,,,,,-46.66666667,-56,20,75,-40.66666667,15.33333333,9.966666667,0.2421875,-0.315104167,1,0,0,0.4168,submitButton,3.492735043,-0.21875,-0.411458333,0,0,0,0,27,27,40,1,56,69670,blockP,180,2022-02-18_16h02.40.226,orientation adjustment blockP,2021.2.3,Win32,59.99160118,,,,,,,
,,,,,,,,,,,,,,,,,,,,,,-23.33333333,38,20,75,-133.3333333,8.666666667,3.466666667,0.419270833,-0.290364583,1,0,0,2.0664,submitButton,3.490873016,-0.114583333,-0.391927083,0,0,0,0,28,28,22,1,38,69670,blockP,180,2022-02-18_16h02.40.226,orientation adjustment blockP,2021.2.3,Win32,59.99160118,,,,,,,
,,,,,,,,,,,,,,,,,,,,,,23.33333333,-26,20,75,144.3333333,9.666666667,3.866666667,0.209635417,-0.307291667,1,0,0,1.6334,submitButton,3.515925926,0.397135417,-0.389322917,1,0,0,0,29,29,10,1,26,69670,blockP,180,2022-02-18_16h02.40.226,orientation adjustment blockP,2021.2.3,Win32,59.99160118,continueButton,,,,,,
,,,,,,,,,,,,,,,,,,,,,,-46.66666667,69,20,75,58.33333333,10.66666667,4.266666667,0.192708333,-0.328125,1,0,0,0.1826,submitButton,3.562847222,0.424479167,-0.1796875,0,0,0,0,30,30,53,1,69,69670,blockP,180,2022-02-18_16h02.40.226,orientation adjustment blockP,2021.2.3,Win32,59.99160118,,,,,,,
,,,,,,,,,,,,,,,,,,,,,,29.44444444,-68,20,75,-52.55555556,15.44444444,10.03888889,0.37109375,-0.299479167,1,0,0,0.2994,submitButton,3.94379085,-0.255208333,-0.3984375,0,0,0,0,31,31,52,1,68,69670,blockP,180,2022-02-18_16h02.40.226,orientation adjustment blockP,2021.2.3,Win32,59.99160118,,,,,,,
,,,,,,,,,,,,,,,,,,,,,,-45,45,20,75,39,6,2.4,0.1875,-0.294270833,1,0,0,0.1668,submitButton,3.858024691,-0.265625,-0.40234375,0,0,0,0,32,32,29,1,45,69670,blockP,180,2022-02-18_16h02.40.226,orientation adjustment blockP,2021.2.3,Win32,59.99160118,,,,,,,
,,,,,,,,,,,,,,,,,,,,,,-28.88888889,48,20,75,43.11111111,4.888888889,1.955555556,0.205729167,-0.303385417,1,0,0,0.0326,submitButton,3.757894737,0.173177083,-0.29296875,0,0,0,0,33,33,32,1,48,69670,blockP,180,2022-02-18_16h02.40.226,orientation adjustment blockP,2021.2.3,Win32,59.99160118,,,,,,,
,,,,,,,,,,,,,,,,,,,,,,62.77777778,22,20,75,203.7777778,1.777777778,0.711111111,0.186197917,-0.295572917,1,0,0,2.5998,submitButton,3.605555556,-0.23046875,-0.40625,0,0,0,0,34,34,6,1,22,69670,blockP,180,2022-02-18_16h02.40.226,orientation adjustment blockP,2021.2.3,Win32,59.99160118,,,,,,,
,,,,,,,,,,,,,,,,,,,,,,-64.44444444,-20,20,75,-215.4444444,15.44444444,10.03888889,0.393229167,-0.278645833,1,0,0,1.8667,submitButton,3.911904762,-0.268229167,-0.391927083,0,0,0,0,35,35,4,1,20,69670,blockP,180,2022-02-18_16h02.40.226,orientation adjustment blockP,2021.2.3,Win32,59.99160118,,,,,,,
,,,,,,,,,,,,,,,,,,,,,,-61.11111111,29,20,75,25.88888889,3.111111111,1.244444444,0.161458333,-0.317708333,1,0,0,0.3538,submitButton,3.790656566,-0.161458333,-0.381510417,0,0,0,0,36,36,13,1,29,69670,blockP,180,2022-02-18_16h02.40.226,orientation adjustment blockP,2021.2.3,Win32,59.99160118,,,,,,,
,,,,,,,,,,,,,,,,,,,,,,42.22222222,32,20,75,39.22222222,7.222222222,2.888888889,0.451822917,-0.286458333,1,0,0,0.267,submitButton,3.751449275,-0.225260417,-0.390625,0,0,0,0,37,37,16,1,32,69670,blockP,180,2022-02-18_16h02.40.226,orientation adjustment blockP,2021.2.3,Win32,59.99160118,,,,,,,
,,,,,,,,,,,,,,,,,,,,,,66.66666667,23,20,75,28.66666667,5.666666667,2.266666667,0.38671875,-0.299479167,1,0,0,0.7336,submitButton,3.689583333,-0.286458333,-0.404947917,0,0,0,0,38,38,7,1,23,69670,blockP,180,2022-02-18_16h02.40.226,orientation adjustment blockP,2021.2.3,Win32,59.99160118,,,,,,,
,,,,,,,,,,,,,,,,,,,,,,45.55555556,-39,20,75,-28.44444444,10.55555556,4.222222222,-0.231770833,-0.432291667,1,0,0,0.6497,submitButton,3.710888889,-0.244791667,-0.401041667,0,0,0,0,39,39,23,1,39,69670,blockP,180,2022-02-18_16h02.40.226,orientation adjustment blockP,2021.2.3,Win32,59.99160118,,,,,,,
,,,,,,,,,,,,,,,,,,,,,,-34.44444444,-28,20,75,-212.4444444,4.444444444,1.777777778,-0.334635417,-0.41015625,1,0,0,2.3992,submitButton,3.636538462,-0.350260417,-0.412760417,0,0,0,0,40,40,12,1,28,69670,blockP,180,2022-02-18_16h02.40.226,orientation adjustment blockP,2021.2.3,Win32,59.99160118,,,,,,,
,,,,,,,,,,,,,,,,,,,,,,-41.66666667,73,20,75,52.33333333,20.66666667,13.43333333,-0.28515625,-0.393229167,1,0,0,0.5011,submitButton,3.999382716,-0.188802083,-0.381510417,0,0,0,0,41,41,57,1,73,69670,blockP,180,2022-02-18_16h02.40.226,orientation adjustment blockP,2021.2.3,Win32,59.99160118,,,,,,,
,,,,,,,,,,,,,,,,,,,,,,23.33333333,21,20,75,22.33333333,1.333333333,0.533333333,0.41015625,-0.28515625,1,0,0,0.034,submitButton,3.875595238,-0.360677083,-0.415364583,0,0,0,0,42,42,5,1,21,69670,blockP,180,2022-02-18_16h02.40.226,orientation adjustment blockP,2021.2.3,Win32,59.99160118,,,,,,,
,,,,,,,,,,,,,,,,,,,,,,69.44444444,-44,20,75,-34.55555556,9.444444444,3.777777778,-0.391927083,-0.423177083,1,0,0,1.1166,submitButton,3.872222222,-0.669270833,-0.42578125,0,0,0,0,43,43,28,1,44,69670,blockP,180,2022-02-18_16h02.40.226,orientation adjustment blockP,2021.2.3,Win32,59.99160118,,,,,,,
,,,,,,,,,,,,,,,,,,,,,,64.44444444,34,20,75,216.4444444,2.444444444,0.977777778,-0.240885417,-0.377604167,1,0,0,2.0823,submitButton,3.775740741,0.39453125,-0.397135417,1,0,0,0,44,44,18,1,34,69670,blockP,180,2022-02-18_16h02.40.226,orientation adjustment blockP,2021.2.3,Win32,59.99160118,continueButton,,,,,,
,,,,,,,,,,,,,,,,,,,,,,-60,-72,20,75,-62,10,4,0.44921875,-0.307291667,1,0,0,1.9834,submitButton,3.78297491,-0.200520833,-0.39453125,0,0,0,0,45,45,56,1,72,69670,blockP,180,2022-02-18_16h02.40.226,orientation adjustment blockP,2021.2.3,Win32,59.99160118,,,,,,,
,,,,,,,,,,,,,,,,,,,,,,-55,-65,20,75,-62,3,1.2,-0.18359375,-0.388020833,1,0,0,1.084,submitButton,3.702256944,-0.1953125,-0.395833333,0,0,0,0,46,46,49,1,65,69670,blockP,180,2022-02-18_16h02.40.226,orientation adjustment blockP,2021.2.3,Win32,59.99160118,,,,,,,
,,,,,,,,,,,,,,,,,,,,,,-33.88888889,40,20,75,46.11111111,6.111111111,2.444444444,0.216145833,-0.3125,1,0,0,0.1659,submitButton,3.664141414,-0.279947917,-0.404947917,0,0,0,0,47,47,24,1,40,69670,blockP,180,2022-02-18_16h02.40.226,orientation adjustment blockP,2021.2.3,Win32,59.99160118,,,,,,,
,,,,,,,,,,,,,,,,,,,,,,-53.88888889,43,20,75,33.11111111,9.888888889,3.955555556,0.424479167,-0.270833333,1,0,0,0.1829,submitButton,3.672712418,-0.190104167,-0.42578125,0,0,0,0,48,48,27,1,43,69670,blockP,180,2022-02-18_16h02.40.226,orientation adjustment blockP,2021.2.3,Win32,59.99160118,,,,,,,
,,,,,,,,,,,,,,,,,,,,,,-29.44444444,42,20,75,32.55555556,9.444444444,3.777777778,0.104166667,-0.328125,1,0,0,0.0171,submitButton,3.675714286,-0.329427083,-0.38671875,0,0,0,0,49,49,26,1,42,69670,blockP,180,2022-02-18_16h02.40.226,orientation adjustment blockP,2021.2.3,Win32,59.99160118,,,,,,,
,,,,,,,,,,,,,,,,,,,,,,28.88888889,64,20,75,216.8888889,27.11111111,17.62222222,-0.30859375,-0.4375,1,0,0,2.7166,submitButton,4.063117284,-0.322916667,-0.427083333,0,0,0,0,50,50,48,1,64,69670,blockP,180,2022-02-18_16h02.40.226,orientation adjustment blockP,2021.2.3,Win32,59.99160118,,,,,,,
,,,,,,,,,,,,,,,,,,,,,,-27.22222222,74,20,75,56.77777778,17.22222222,11.19444444,0.244791667,-0.31640625,1,0,0,0.5671,submitButton,4.255855856,-0.260416667,-0.39453125,0,0,0,0,51,51,58,1,74,69670,blockP,180,2022-02-18_16h02.40.226,orientation adjustment blockP,2021.2.3,Win32,59.99160118,,,,,,,
,,,,,,,,,,,,,,,,,,,,,,52.77777778,52,20,75,56.77777778,4.777777778,1.911111111,0.4453125,-0.2734375,1,0,0,0.117,submitButton,4.194152047,-0.268229167,-0.380208333,0,0,0,0,52,52,36,1,52,69670,blockP,180,2022-02-18_16h02.40.226,orientation adjustment blockP,2021.2.3,Win32,59.99160118,,,,,,,
,,,,,,,,,,,,,,,,,,,,,,25,75,20,75,72,3,1.2,0.377604167,-0.302083333,1,0,0,0.0337,submitButton,4.117378917,-0.263020833,-0.421875,0,0,0,0,53,53,59,1,75,69670,blockP,180,2022-02-18_16h02.40.226,orientation adjustment blockP,2021.2.3,Win32,59.99160118,,,,,,,
,,,,,,,,,,,,,,,,,,,,,,-70,62,20,75,53,9,3.6,-0.19140625,-0.401041667,1,0,0,1.2504,submitButton,4.104444444,-0.192708333,-0.401041667,0,0,0,0,54,54,46,1,62,69670,blockP,180,2022-02-18_16h02.40.226,orientation adjustment blockP,2021.2.3,Win32,59.99160118,,,,,,,
,,,,,,,,,,,,,,,,,,,,,,49.44444444,-67,20,75,-48.55555556,18.44444444,11.98888889,0.428385417,-0.2890625,1,0,0,0.0337,submitButton,4.296747967,-0.39453125,-0.42578125,0,0,0,0,55,55,51,1,67,69670,blockP,180,2022-02-18_16h02.40.226,orientation adjustment blockP,2021.2.3,Win32,59.99160118,,,,,,,
,,,,,,,,,,,,,,,,,,,,,,-71.66666667,41,20,75,37.33333333,3.666666667,1.466666667,-0.227864583,-0.436197917,1,0,0,1.3169,submitButton,4.229365079,-0.23046875,-0.423177083,0,0,0,0,56,56,25,1,41,69670,blockP,180,2022-02-18_16h02.40.226,orientation adjustment blockP,2021.2.3,Win32,59.99160118,,,,,,,
,,,,,,,,,,,,,,,,,,,,,,-25.55555556,58,20,75,51.44444444,6.555555556,2.622222222,-0.256510417,-0.34375,1,0,0,0.4168,submitButton,4.191989664,-0.2734375,-0.416666667,0,0,0,0,57,57,42,1,58,69670,blockP,180,2022-02-18_16h02.40.226,orientation adjustment blockP,2021.2.3,Win32,59.99160118,,,,,,,
,,,,,,,,,,,,,,,,,,,,,,-50.55555556,30,20,75,27.44444444,2.555555556,1.022222222,0.412760417,-0.309895833,1,0,0,1.4003,submitButton,4.119949495,-0.28125,-0.373697917,0,0,0,0,58,58,14,1,30,69670,blockP,180,2022-02-18_16h02.40.226,orientation adjustment blockP,2021.2.3,Win32,59.99160118,,,,,,,
,,,,,,,,,,,,,,,,,,,,,,58.88888889,57,20,75,201.8888889,35.11111111,28.08888889,0.2109375,-0.295572917,1,0,0,0.0335,submitButton,4.652592593,0.34375,-0.380208333,1,0,0,0,59,59,41,1,57,69670,blockP,180,2022-02-18_16h02.40.226,orientation adjustment blockP,2021.2.3,Win32,59.99160118,continueButton,,,,,,
,,,,,,,,,,,,,,,,,,,,,,44.44444444,18,20,75,35.44444444,17.44444444,11.33888889,0.209635417,-0.294270833,1,0,0,0.1669,submitButton,4.79794686,-0.377604167,-0.421875,0,0,0,1,0,60,2,1,18,69670,blockP,180,2022-02-18_16h02.40.226,orientation adjustment blockP,2021.2.3,Win32,59.99160118,,,,,,,
,,,,,,,,,,,,,,,,,,,,,,-41.11111111,71,20,75,7.888888889,63.11111111,53.64444444,-0.223958333,-0.397135417,1,0,0,0.4994,submitButton,5.837234043,-0.2265625,-0.408854167,0,0,0,1,1,61,55,1,71,69670,blockP,180,2022-02-18_16h02.40.226,orientation adjustment blockP,2021.2.3,Win32,59.99160118,,,,,,,
,,,,,,,,,,,,,,,,,,,,,,-48.88888889,69,20,75,42.11111111,26.88888889,17.47777778,0.170572917,-0.295572917,1,0,0,0.183,submitButton,6.07974537,-0.291666667,-0.42578125,0,0,0,1,2,62,53,1,69,69670,blockP,180,2022-02-18_16h02.40.226,orientation adjustment blockP,2021.2.3,Win32,59.99160118,,,,,,,
,,,,,,,,,,,,,,,,,,,,,,-50,35,20,75,21,14,5.6,0.188802083,-0.3203125,1,0,0,0.0167,submitButton,6.069954649,-0.19921875,-0.41796875,0,0,0,1,3,63,19,1,35,69670,blockP,180,2022-02-18_16h02.40.226,orientation adjustment blockP,2021.2.3,Win32,59.99160118,,,,,,,
,,,,,,,,,,,,,,,,,,,,,,36.11111111,-67,20,75,118.1111111,5.111111111,2.044444444,-0.26171875,-0.424479167,1,0,0,2.9832,submitButton,5.989444444,-0.270833333,-0.451822917,0,0,0,1,4,64,51,1,67,69670,blockP,180,2022-02-18_16h02.40.226,orientation adjustment blockP,2021.2.3,Win32,59.99160118,,,,,,,
,,,,,,,,,,,,,,,,,,,,,,-73.88888889,36,20,75,24.11111111,11.88888889,4.755555556,-0.311197917,-0.407552083,1,0,0,1.1168,submitButton,5.965250545,-0.203125,-0.401041667,0,0,0,1,5,65,20,1,36,69670,blockP,180,2022-02-18_16h02.40.226,orientation adjustment blockP,2021.2.3,Win32,59.99160118,,,,,,,
,,,,,,,,,,,,,,,,,,,,,,57.77777778,32,20,75,211.7777778,0.222222222,0.088888889,-0.317708333,-0.408854167,1,0,0,2.1167,submitButton,5.85224359,-0.045572917,-0.321614583,0,0,0,1,6,66,16,1,32,69670,blockP,180,2022-02-18_16h02.40.226,orientation adjustment blockP,2021.2.3,Win32,59.99160118,,,,,,,
,,,,,,,,,,,,,,,,,,,,,,-58.33333333,-43,20,75,-209.3333333,13.66666667,5.466666667,0.356770833,-0.282552083,1,0,0,0.5667,submitButton,5.844968553,-0.209635417,-0.420572917,0,0,0,1,7,67,27,1,43,69670,blockP,180,2022-02-18_16h02.40.226,orientation adjustment blockP,2021.2.3,Win32,59.99160118,,,,,,,
,,,,,,,,,,,,,,,,,,,,,,71.66666667,53,20,75,208.6666667,24.33333333,15.81666667,-0.252604167,-0.428385417,1,0,0,1.8999,submitButton,6.02962963,-0.28125,-0.424479167,0,0,0,1,8,68,37,1,53,69670,blockP,180,2022-02-18_16h02.40.226,orientation adjustment blockP,2021.2.3,Win32,59.99160118,,,,,,,
,,,,,,,,,,,,,,,,,,,,,,-61.66666667,48,20,75,26.33333333,21.66666667,14.08333333,0.36328125,-0.325520833,1,0,0,1.4335,submitButton,6.176060606,-0.3046875,-0.41015625,0,0,0,1,9,69,32,1,48,69670,blockP,180,2022-02-18_16h02.40.226,orientation adjustment blockP,2021.2.3,Win32,59.99160118,,,,,,,
,,,,,,,,,,,,,,,,,,,,,,-29.44444444,29,20,75,30.55555556,1.555555556,0.622222222,0.1640625,-0.30859375,1,0,0,0.1003,submitButton,6.076884921,-0.329427083,-0.46484375,0,0,0,1,10,70,13,1,29,69670,blockP,180,2022-02-18_16h02.40.226,orientation adjustment blockP,2021.2.3,Win32,59.99160118,,,,,,,
,,,,,,,,,,,,,,,,,,,,,,28.33333333,57,20,75,38.33333333,18.66666667,12.13333333,0.384114583,-0.291666667,1,0,0,0.1004,submitButton,6.183138402,-0.231770833,-0.419270833,0,0,0,1,11,71,41,1,57,69670,blockP,180,2022-02-18_16h02.40.226,orientation adjustment blockP,2021.2.3,Win32,59.99160118,,,,,,,
,,,,,,,,,,,,,,,,,,,,,,71.11111111,-63,20,75,-40.88888889,22.11111111,14.37222222,0.388020833,-0.290364583,1,0,0,0.3326,submitButton,6.324329502,-0.223958333,-0.420572917,0,0,0,1,12,72,47,1,63,69670,blockP,180,2022-02-18_16h02.40.226,orientation adjustment blockP,2021.2.3,Win32,59.99160118,,,,,,,
,,,,,,,,,,,,,,,,,,,,,,37.22222222,-27,20,75,-40.77777778,13.77777778,5.511111111,0.404947917,-0.294270833,1,0,0,0.7821,submitButton,6.310546139,-0.252604167,-0.43359375,0,0,0,1,13,73,11,1,27,69670,blockP,180,2022-02-18_16h02.40.226,orientation adjustment blockP,2021.2.3,Win32,59.99160118,,,,,,,
,,,,,,,,,,,,,,,,,,,,,,-28.33333333,-49,20,75,-40.33333333,8.666666667,3.466666667,0.220052083,-0.296875,1,0,0,0.0511,submitButton,6.263148148,0.369791667,-0.416666667,1,0,0,1,14,74,33,1,49,69670,blockP,180,2022-02-18_16h02.40.226,orientation adjustment blockP,2021.2.3,Win32,59.99160118,continueButton,,,,,,
,,,,,,,,,,,,,,,,,,,,,,67.77777778,-22,20,75,-18.22222222,3.777777778,1.511111111,0.454427083,-0.317708333,1,0,0,0.3998,submitButton,6.185245902,-0.376302083,-0.40625,0,0,0,1,15,75,6,1,22,69670,blockP,180,2022-02-18_16h02.40.226,orientation adjustment blockP,2021.2.3,Win32,59.99160118,,,,,,,
,,,,,,,,,,,,,,,,,,,,,,56.11111111,-51,20,75,-30.88888889,20.11111111,13.07222222,0.200520833,-0.309895833,1,0,0,1.0169,submitButton,6.296326165,-0.203125,-0.40234375,0,0,0,1,16,76,35,1,51,69670,blockP,180,2022-02-18_16h02.40.226,orientation adjustment blockP,2021.2.3,Win32,59.99160118,,,,,,,
,,,,,,,,,,,,,,,,,,,,,,62.77777778,-40,20,75,-25.22222222,14.77777778,5.911111111,0.194010417,-0.307291667,1,0,0,1.1998,submitButton,6.29021164,-0.231770833,-0.423177083,0,0,0,1,17,77,24,1,40,69670,blockP,180,2022-02-18_16h02.40.226,orientation adjustment blockP,2021.2.3,Win32,59.99160118,,,,,,,
,,,,,,,,,,,,,,,,,,,,,,34.44444444,52,20,75,218.4444444,13.55555556,5.422222222,0.201822917,-0.309895833,1,0,0,2.4168,submitButton,6.276649306,-0.23046875,-0.393229167,0,0,0,1,18,78,36,1,52,69670,blockP,180,2022-02-18_16h02.40.226,orientation adjustment blockP,2021.2.3,Win32,59.99160118,,,,,,,
,,,,,,,,,,,,,,,,,,,,,,71.66666667,-34,20,75,-26.33333333,7.666666667,3.066666667,-0.2578125,-0.4140625,1,0,0,1.1166,submitButton,6.227264957,-0.259114583,-0.4140625,0,0,0,1,19,79,18,1,34,69670,blockP,180,2022-02-18_16h02.40.226,orientation adjustment blockP,2021.2.3,Win32,59.99160118,,,,,,,
,,,,,,,,,,,,,,,,,,,,,,59.44444444,-46,20,75,-42.55555556,3.444444444,1.377777778,-0.182291667,-0.3828125,1,0,0,0.8501,submitButton,6.153787879,0.307291667,-0.307291667,0,0,0,1,20,80,30,1,46,69670,blockP,180,2022-02-18_16h02.40.226,orientation adjustment blockP,2021.2.3,Win32,59.99160118,,,,,,,
,,,,,,,,,,,,,,,,,,,,,,-30,-61,20,75,-66,5,2,0.154947917,-0.30859375,1,0,0,0.2333,submitButton,6.091791045,-0.381510417,-0.37109375,0,0,0,1,21,81,45,1,61,69670,blockP,180,2022-02-18_16h02.40.226,orientation adjustment blockP,2021.2.3,Win32,59.99160118,,,,,,,
,,,,,,,,,,,,,,,,,,,,,,38.88888889,-64,20,75,-57.11111111,6.888888889,2.755555556,0.401041667,-0.299479167,1,0,0,0.0171,submitButton,6.042728758,0.303385417,-0.350260417,0,0,0,1,22,82,48,1,64,69670,blockP,180,2022-02-18_16h02.40.226,orientation adjustment blockP,2021.2.3,Win32,59.99160118,,,,,,,
,,,,,,,,,,,,,,,,,,,,,,-25.55555556,66,20,75,66.44444444,0.444444444,0.177777778,0.201822917,-0.302083333,1,0,0,0.4004,submitButton,5.957729469,-0.259114583,-0.373697917,0,0,0,1,23,83,50,1,66,69670,blockP,180,2022-02-18_16h02.40.226,orientation adjustment blockP,2021.2.3,Win32,59.99160118,,,,,,,
,,,,,,,,,,,,,,,,,,,,,,33.33333333,-47,20,75,-42.66666667,4.333333333,1.733333333,-0.299479167,-0.43359375,1,0,0,0.8167,submitButton,5.897380952,-0.022135417,-0.34765625,0,0,0,1,24,84,31,1,47,69670,blockP,180,2022-02-18_16h02.40.226,orientation adjustment blockP,2021.2.3,Win32,59.99160118,,,,,,,
,,,,,,,,,,,,,,,,,,,,,,-55.55555556,38,20,75,45.44444444,7.444444444,2.977777778,0.165364583,-0.313802083,1,0,0,0.2002,submitButton,5.856259781,-0.25,-0.376302083,0,0,0,1,25,85,22,1,38,69670,blockP,180,2022-02-18_16h02.40.226,orientation adjustment blockP,2021.2.3,Win32,59.99160118,,,,,,,
,,,,,,,,,,,,,,,,,,,,,,22.22222222,-45,20,75,-48.77777778,3.777777778,1.511111111,-0.2109375,-0.381510417,1,0,0,0.4834,submitButton,5.795910494,-0.341145833,-0.447916667,0,0,0,1,26,86,29,1,45,69670,blockP,180,2022-02-18_16h02.40.226,orientation adjustment blockP,2021.2.3,Win32,59.99160118,,,,,,,
,,,,,,,,,,,,,,,,,,,,,,-41.11111111,-23,20,75,-41.11111111,18.11111111,11.77222222,0.204427083,-0.302083333,1,0,0,0.3836,submitButton,5.877777778,-0.09375,-0.368489583,0,0,0,1,27,87,7,1,23,69670,blockP,180,2022-02-18_16h02.40.226,orientation adjustment blockP,2021.2.3,Win32,59.99160118,,,,,,,
,,,,,,,,,,,,,,,,,,,,,,-61.11111111,-60,20,75,-226.1111111,13.88888889,5.555555556,-0.399739583,-0.4140625,1,0,0,2.4495,submitButton,5.873423423,-0.39453125,-0.415364583,0,0,0,1,28,88,44,1,60,69670,blockP,180,2022-02-18_16h02.40.226,orientation adjustment blockP,2021.2.3,Win32,59.99160118,,,,,,,
,,,,,,,,,,,,,,,,,,,,,,66.11111111,-31,20,75,-27.88888889,3.111111111,1.244444444,0.408854167,-0.30078125,1,0,0,0.3667,submitButton,5.811703704,0.526041667,-0.411458333,1,0,0,1,29,89,15,1,31,69670,blockP,180,2022-02-18_16h02.40.226,orientation adjustment blockP,2021.2.3,Win32,59.99160118,continueButton,,,,,,
,,,,,,,,,,,,,,,,,,,,,,25,-16,20,75,-25,9,3.6,0.372395833,-0.286458333,1,0,0,0.3004,submitButton,5.782602339,-0.1953125,-0.37890625,0,0,0,1,30,90,0,1,16,69670,blockP,180,2022-02-18_16h02.40.226,orientation adjustment blockP,2021.2.3,Win32,59.99160118,,,,,,,
,,,,,,,,,,,,,,,,,,,,,,-61.11111111,-20,20,75,-20.11111111,0.111111111,0.044444444,0.197916667,-0.303385417,1,0,0,1.1167,submitButton,5.708080808,-0.389322917,-0.423177083,0,0,0,1,31,91,4,1,20,69670,blockP,180,2022-02-18_16h02.40.226,orientation adjustment blockP,2021.2.3,Win32,59.99160118,,,,,,,
,,,,,,,,,,,,,,,,,,,,,,65,-42,20,75,-36,6,2.4,0.21875,-0.2890625,1,0,0,1.25,submitButton,5.665669516,-0.302083333,-0.421875,0,0,0,1,32,92,26,1,42,69670,blockP,180,2022-02-18_16h02.40.226,orientation adjustment blockP,2021.2.3,Win32,59.99160118,,,,,,,
,,,,,,,,,,,,,,,,,,,,,,-20,-39,20,75,-38,1,0.4,0.21875,-0.294270833,1,0,0,0.1332,submitButton,5.599015471,-0.235677083,-0.407552083,0,0,0,1,33,93,23,1,39,69670,blockP,180,2022-02-18_16h02.40.226,orientation adjustment blockP,2021.2.3,Win32,59.99160118,,,,,,,
,,,,,,,,,,,,,,,,,,,,,,-25,75,20,75,76,1,0.4,-0.276041667,-0.407552083,1,0,0,1.6492,submitButton,5.534027778,-0.286458333,-0.442708333,0,0,0,1,34,94,59,1,75,69670,blockP,180,2022-02-18_16h02.40.226,orientation adjustment blockP,2021.2.3,Win32,59.99160118,,,,,,,
,,,,,,,,,,,,,,,,,,,,,,38.88888889,-25,20,75,-24.11111111,0.888888889,0.355555556,-0.3828125,-0.454427083,1,0,0,0.7335,submitButton,5.470096022,-0.30859375,-0.485677083,0,0,0,1,35,95,9,1,25,69670,blockP,180,2022-02-18_16h02.40.226,orientation adjustment blockP,2021.2.3,Win32,59.99160118,,,,,,,
,,,,,,,,,,,,,,,,,,,,,,38.33333333,56,20,75,64.33333333,8.333333333,3.333333333,0.372395833,-0.305989583,1,0,0,0.3681,submitButton,5.44403794,-0.3125,-0.415364583,0,0,0,1,36,96,40,1,56,69670,blockP,180,2022-02-18_16h02.40.226,orientation adjustment blockP,2021.2.3,Win32,59.99160118,,,,,,,
,,,,,,,,,,,,,,,,,,,,,,47.22222222,-72,20,75,-66.77777778,5.222222222,2.088888889,0.368489583,-0.290364583,1,0,0,0.6504,submitButton,5.403614458,-0.329427083,-0.40234375,0,0,0,1,37,97,56,1,72,69670,blockP,180,2022-02-18_16h02.40.226,orientation adjustment blockP,2021.2.3,Win32,59.99160118,,,,,,,
,,,,,,,,,,,,,,,,,,,,,,-67.22222222,19,20,75,22.77777778,3.777777778,1.511111111,0.145833333,-0.30859375,1,0,0,0.7499,submitButton,5.357275132,-0.3125,-0.415364583,0,0,0,1,38,98,3,1,19,69670,blockP,180,2022-02-18_16h02.40.226,orientation adjustment blockP,2021.2.3,Win32,59.99160118,,,,,,,
,,,,,,,,,,,,,,,,,,,,,,38.88888889,-70,20,75,-65.11111111,4.888888889,1.955555556,-0.334635417,-0.444010417,1,0,0,0.6001,submitButton,5.317254902,-0.334635417,-0.4140625,0,0,0,1,39,99,54,1,70,69670,blockP,180,2022-02-18_16h02.40.226,orientation adjustment blockP,2021.2.3,Win32,59.99160118,,,,,,,
,,,,,,,,,,,,,,,,,,,,,,72.77777778,37,20,75,206.7777778,10.22222222,4.088888889,0.18359375,-0.29296875,1,0,0,0.0493,submitButton,5.302971576,-0.305989583,-0.39453125,0,0,0,1,40,100,21,1,37,69670,blockP,180,2022-02-18_16h02.40.226,orientation adjustment blockP,2021.2.3,Win32,59.99160118,,,,,,,
,,,,,,,,,,,,,,,,,,,,,,64.44444444,-26,20,75,-17.55555556,8.444444444,3.377777778,0.38671875,-0.290364583,1,0,0,0.5324,submitButton,5.280842912,-0.005208333,-0.385416667,0,0,0,1,41,101,10,1,26,69670,blockP,180,2022-02-18_16h02.40.226,orientation adjustment blockP,2021.2.3,Win32,59.99160118,,,,,,,
,,,,,,,,,,,,,,,,,,,,,,61.11111111,-65,20,75,-45.88888889,19.11111111,12.42222222,-0.217447917,-0.427083333,1,0,0,0.8504,submitButton,5.361994949,-0.221354167,-0.423177083,0,0,0,1,42,102,49,1,65,69670,blockP,180,2022-02-18_16h02.40.226,orientation adjustment blockP,2021.2.3,Win32,59.99160118,,,,,,,
,,,,,,,,,,,,,,,,,,,,,,63.33333333,-41,20,75,-35.66666667,5.333333333,2.133333333,-0.127604167,-0.4296875,1,0,0,0.6502,submitButton,5.325717853,-0.111979167,-0.3671875,0,0,0,1,43,103,25,1,41,69670,blockP,180,2022-02-18_16h02.40.226,orientation adjustment blockP,2021.2.3,Win32,59.99160118,,,,,,,
,,,,,,,,,,,,,,,,,,,,,,60,-68,20,75,-45,23,14.95,-0.233072917,-0.3984375,1,0,0,0.9663,submitButton,5.432654321,0.333333333,-0.380208333,1,0,0,1,44,104,52,1,68,69670,blockP,180,2022-02-18_16h02.40.226,orientation adjustment blockP,2021.2.3,Win32,59.99160118,continueButton,,,,,,
,,,,,,,,,,,,,,,,,,,,,,37.22222222,54,20,75,73.22222222,19.22222222,12.49444444,0.485677083,-0.315104167,1,0,0,0.2004,submitButton,5.51025641,-0.272135417,-0.411458333,0,0,0,1,45,105,38,1,54,69670,blockP,180,2022-02-18_16h02.40.226,orientation adjustment blockP,2021.2.3,Win32,59.99160118,,,,,,,
,,,,,,,,,,,,,,,,,,,,,,-51.66666667,50,20,75,121.3333333,71.33333333,64.2,0.174479167,-0.287760417,1,0,0,0.2002,submitButton,6.148188406,-0.412760417,-0.40625,0,0,0,1,46,106,34,1,50,69670,blockP,180,2022-02-18_16h02.40.226,orientation adjustment blockP,2021.2.3,Win32,59.99160118,,,,,,,
,,,,,,,,,,,,,,,,,,,,,,36.11111111,62,20,75,63.11111111,1.111111111,0.444444444,0.38671875,-0.279947917,1,0,0,0.35,submitButton,6.086857826,0.208333333,-0.325520833,0,0,0,1,47,107,46,1,62,69670,blockP,180,2022-02-18_16h02.40.226,orientation adjustment blockP,2021.2.3,Win32,59.99160118,,,,,,,
,,,,,,,,,,,,,,,,,,,,,,-57.77777778,-24,20,75,-39.77777778,15.77777778,10.25555556,0.217447917,-0.303385417,1,0,0,0.4833,submitButton,6.131205674,-0.205729167,-0.388020833,0,0,0,1,48,108,8,1,24,69670,blockP,180,2022-02-18_16h02.40.226,orientation adjustment blockP,2021.2.3,Win32,59.99160118,,,,,,,
,,,,,,,,,,,,,,,,,,,,,,42.77777778,-73,20,75,-45.22222222,27.77777778,18.05555556,0.37109375,-0.2734375,1,0,0,0.1169,submitButton,6.256725146,-0.2890625,-0.403645833,0,0,0,1,49,109,57,1,73,69670,blockP,180,2022-02-18_16h02.40.226,orientation adjustment blockP,2021.2.3,Win32,59.99160118,,,,,,,
,,,,,,,,,,,,,,,,,,,,,,49.44444444,-17,20,75,-21.55555556,4.555555556,1.822222222,-0.15234375,-0.40234375,1,0,0,1.7339,submitButton,6.210532407,-0.154947917,-0.401041667,0,0,0,1,50,110,1,1,17,69670,blockP,180,2022-02-18_16h02.40.226,orientation adjustment blockP,2021.2.3,Win32,59.99160118,,,,,,,
,,,,,,,,,,,,,,,,,,,,,,-30.55555556,58,20,75,52.44444444,5.555555556,2.222222222,-0.255208333,-0.39453125,1,0,0,0.7511,submitButton,6.169415808,-0.255208333,-0.39453125,0,0,0,1,51,111,42,1,58,69670,blockP,180,2022-02-18_16h02.40.226,orientation adjustment blockP,2021.2.3,Win32,59.99160118,,,,,,,
,,,,,,,,,,,,,,,,,,,,,,-30.55555556,74,20,75,68.44444444,5.555555556,2.222222222,-0.169270833,-0.356770833,1,0,0,0.5668,submitButton,6.129138322,-0.259114583,-0.4140625,0,0,0,1,52,112,58,1,74,69670,blockP,180,2022-02-18_16h02.40.226,orientation adjustment blockP,2021.2.3,Win32,59.99160118,,,,,,,
,,,,,,,,,,,,,,,,,,,,,,-62.77777778,55,20,75,66.22222222,11.22222222,4.488888889,0.220052083,-0.309895833,1,0,0,0.2493,submitButton,6.112570146,-0.33984375,-0.390625,0,0,0,1,53,113,39,1,55,69670,blockP,180,2022-02-18_16h02.40.226,orientation adjustment blockP,2021.2.3,Win32,59.99160118,,,,,,,
,,,,,,,,,,,,,,,,,,,,,,-48.88888889,21,20,75,24.11111111,3.111111111,1.244444444,0.1953125,-0.303385417,1,0,0,0.0335,submitButton,6.063888889,-0.266927083,-0.399739583,0,0,0,1,54,114,5,1,21,69670,blockP,180,2022-02-18_16h02.40.226,orientation adjustment blockP,2021.2.3,Win32,59.99160118,,,,,,,
,,,,,,,,,,,,,,,,,,,,,,-32.22222222,-28,20,75,-27.22222222,0.777777778,0.311111111,0.196614583,-0.30859375,1,0,0,0.6669,submitButton,6.006930693,-0.083333333,-0.373697917,0,0,0,1,55,115,12,1,28,69670,blockP,180,2022-02-18_16h02.40.226,orientation adjustment blockP,2021.2.3,Win32,59.99160118,,,,,,,
,,,,,,,,,,,,,,,,,,,,,,67.22222222,33,20,75,211.2222222,1.777777778,0.711111111,-0.268229167,-0.38671875,1,0,0,2.1664,submitButton,5.955010893,-0.268229167,-0.388020833,0,0,0,1,56,116,17,1,33,69670,blockP,180,2022-02-18_16h02.40.226,orientation adjustment blockP,2021.2.3,Win32,59.99160118,,,,,,,
,,,,,,,,,,,,,,,,,,,,,,-56.11111111,59,20,75,31.88888889,27.11111111,17.62222222,-0.251302083,-0.388020833,1,0,0,0.5499,submitButton,6.06828479,-0.25390625,-0.390625,0,0,0,1,57,117,43,1,59,69670,blockP,180,2022-02-18_16h02.40.226,orientation adjustment blockP,2021.2.3,Win32,59.99160118,,,,,,,
,,,,,,,,,,,,,,,,,,,,,,-27.22222222,-30,20,75,-30.22222222,0.222222222,0.088888889,-0.197916667,-0.391927083,1,0,0,0.9998,submitButton,6.010790598,-0.1484375,-0.39453125,0,0,0,1,58,118,14,1,30,69670,blockP,180,2022-02-18_16h02.40.226,orientation adjustment blockP,2021.2.3,Win32,59.99160118,,,,,,,
,,,,,,,,,,,,,,,,,,,,,,26.66666667,-44,20,75,-36.33333333,7.666666667,3.066666667,0.200520833,-0.307291667,1,0,0,0.5671,submitButton,5.982751323,0.34765625,-0.403645833,1,0,0,1,59,119,28,1,44,69670,blockP,180,2022-02-18_16h02.40.226,orientation adjustment blockP,2021.2.3,Win32,59.99160118,continueButton,,,,,,
,,,,,,,,,,,,,,,,,,,,,,-50.55555556,-39,20,75,-34.55555556,4.444444444,1.777777778,-0.33203125,-0.43359375,1,0,0,2.0497,submitButton,5.943081761,-0.227864583,-0.404947917,0,0,0,2,0,120,23,1,39,69670,blockP,180,2022-02-18_16h02.40.226,orientation adjustment blockP,2021.2.3,Win32,59.99160118,,,,,,,
,,,,,,,,,,,,,,,,,,,,,,-42.77777778,-42,20,75,-31.77777778,10.22222222,4.088888889,0.182291667,-0.3046875,1,0,0,0.0825,submitButton,5.925752856,-0.173177083,-0.37109375,0,0,0,2,1,121,26,1,42,69670,blockP,180,2022-02-18_16h02.40.226,orientation adjustment blockP,2021.2.3,Win32,59.99160118,,,,,,,
,,,,,,,,,,,,,,,,,,,,,,-37.77777778,60,20,75,51.22222222,8.777777778,3.511111111,-0.356770833,-0.39453125,1,0,0,0.7507,submitButton,5.903395062,-0.5078125,-0.4765625,0,0,0,2,2,122,44,1,60,69670,blockP,180,2022-02-18_16h02.40.226,orientation adjustment blockP,2021.2.3,Win32,59.99160118,,,,,,,
,,,,,,,,,,,,,,,,,,,,,,-32.77777778,-17,20,75,-13.77777778,3.222222222,1.288888889,-0.182291667,-0.395833333,1,0,0,0.8336,submitButton,5.861060143,0.263020833,-0.302083333,0,0,0,2,3,123,1,1,17,69670,blockP,180,2022-02-18_16h02.40.226,orientation adjustment blockP,2021.2.3,Win32,59.99160118,,,,,,,
,,,,,,,,,,,,,,,,,,,,,,67.22222222,64,20,75,208.2222222,35.77777778,28.62222222,0.2109375,-0.302083333,1,0,0,0.0665,submitButton,6.067979798,-0.138020833,-0.375,0,0,0,2,4,124,48,1,64,69670,blockP,180,2022-02-18_16h02.40.226,orientation adjustment blockP,2021.2.3,Win32,59.99160118,,,,,,,
,,,,,,,,,,,,,,,,,,,,,,58.88888889,24,20,75,32.88888889,8.888888889,3.555555556,-0.256510417,-0.4296875,1,0,0,1.1336,submitButton,6.045345345,-0.197916667,-0.390625,0,0,0,2,5,125,8,1,24,69670,blockP,180,2022-02-18_16h02.40.226,orientation adjustment blockP,2021.2.3,Win32,59.99160118,,,,,,,
,,,,,,,,,,,,,,,,,,,,,,-31.66666667,-63,20,75,-148.6666667,85.66666667,77.1,-0.21484375,-0.41015625,1,0,0,1.3,submitButton,6.679761905,-0.19921875,-0.399739583,0,0,0,2,6,126,47,1,63,69670,blockP,180,2022-02-18_16h02.40.226,orientation adjustment blockP,2021.2.3,Win32,59.99160118,,,,,,,
,,,,,,,,,,,,,,,,,,,,,,-46.11111111,-70,20,75,-217.1111111,32.88888889,26.31111111,0.403645833,-0.309895833,1,0,0,1.733,submitButton,6.853490659,-0.1875,-0.376302083,0,0,0,2,7,127,54,1,70,69670,blockP,180,2022-02-18_16h02.40.226,orientation adjustment blockP,2021.2.3,Win32,59.99160118,,,,,,,
,,,,,,,,,,,,,,,,,,,,,,-43.88888889,67,20,75,50.11111111,16.88888889,10.97777778,-0.227864583,-0.37890625,1,0,0,0.5005,submitButton,6.889668616,0.123697917,-0.303385417,0,0,0,2,8,128,51,1,67,69670,blockP,180,2022-02-18_16h02.40.226,orientation adjustment blockP,2021.2.3,Win32,59.99160118,,,,,,,
,,,,,,,,,,,,,,,,,,,,,,57.22222222,-51,20,75,-36.77777778,14.22222222,5.688888889,-0.252604167,-0.3828125,1,0,0,0.8001,submitButton,6.879227053,0.341145833,-0.29296875,0,0,0,2,9,129,35,1,51,69670,blockP,180,2022-02-18_16h02.40.226,orientation adjustment blockP,2021.2.3,Win32,59.99160118,,,,,,,
,,,,,,,,,,,,,,,,,,,,,,-28.88888889,-57,20,75,-208.8888889,28.11111111,18.27222222,-0.309895833,-0.41015625,1,0,0,1.9499,submitButton,6.977442529,0.229166667,-0.321614583,0,0,0,2,10,130,41,1,57,69670,blockP,180,2022-02-18_16h02.40.226,orientation adjustment blockP,2021.2.3,Win32,59.99160118,,,,,,,
,,,,,,,,,,,,,,,,,,,,,,-42.22222222,-50,20,75,-58.22222222,8.222222222,3.288888889,0.18359375,-0.30859375,1,0,0,0.3334,submitButton,6.945916429,0.138020833,-0.28125,0,0,0,2,11,131,34,1,50,69670,blockP,180,2022-02-18_16h02.40.226,orientation adjustment blockP,2021.2.3,Win32,59.99160118,,,,,,,
,,,,,,,,,,,,,,,,,,,,,,-23.88888889,68,20,75,-28.88888889,83.11111111,74.8,-0.305989583,-0.390625,1,0,0,1.4672,submitButton,7.520951036,-0.358072917,-0.4296875,0,0,0,2,12,132,52,1,68,69670,blockP,180,2022-02-18_16h02.40.226,orientation adjustment blockP,2021.2.3,Win32,59.99160118,,,,,,,
,,,,,,,,,,,,,,,,,,,,,,-30,44,20,75,-31,75,67.5,-0.265625,-0.41796875,1,0,0,0.9677,submitButton,8.024976657,-0.34375,-0.44140625,0,0,0,2,13,133,28,1,44,69670,blockP,180,2022-02-18_16h02.40.226,orientation adjustment blockP,2021.2.3,Win32,59.99160118,,,,,,,
,,,,,,,,,,,,,,,,,,,,,,46.11111111,-47,20,75,-0.888888889,46.11111111,36.88888889,-0.325520833,-0.40234375,1,0,0,0.6168,submitButton,8.265509259,0.341145833,-0.393229167,1,0,0,2,14,134,31,1,47,69670,blockP,180,2022-02-18_16h02.40.226,orientation adjustment blockP,2021.2.3,Win32,59.99160118,continueButton,,,,,,
,,,,,,,,,,,,,,,,,,,,,,-51.66666667,-33,20,75,-39.66666667,6.666666667,2.666666667,-0.256510417,-0.459635417,1,0,0,1.0471,submitButton,8.219237833,-0.287760417,-0.403645833,0,0,0,2,15,135,17,1,33,69670,blockP,180,2022-02-18_16h02.40.226,orientation adjustment blockP,2021.2.3,Win32,59.99160118,,,,,,,
,,,,,,,,,,,,,,,,,,,,,,-22.22222222,35,20,75,26.77777778,8.222222222,3.288888889,0.108072917,-0.346354167,1,0,0,0.3195,submitButton,8.178825137,-0.204427083,-0.389322917,0,0,0,2,16,136,19,1,35,69670,blockP,180,2022-02-18_16h02.40.226,orientation adjustment blockP,2021.2.3,Win32,59.99160118,,,,,,,
,,,,,,,,,,,,,,,,,,,,,,33.88888889,-16,20,75,-14.11111111,1.888888889,0.755555556,0.227864583,-0.298177083,1,0,0,1.3863,submitButton,8.118473351,-0.290364583,-0.436197917,0,0,0,2,17,137,0,1,16,69670,blockP,180,2022-02-18_16h02.40.226,orientation adjustment blockP,2021.2.3,Win32,59.99160118,,,,,,,
,,,,,,,,,,,,,,,,,,,,,,52.77777778,45,20,75,43.77777778,1.222222222,0.488888889,0.356770833,-0.295572917,1,0,0,0.7498,submitButton,8.056944444,-0.287760417,-0.403645833,0,0,0,2,18,138,29,1,45,69670,blockP,180,2022-02-18_16h02.40.226,orientation adjustment blockP,2021.2.3,Win32,59.99160118,,,,,,,
,,,,,,,,,,,,,,,,,,,,,,31.66666667,56,20,75,53.66666667,2.333333333,0.933333333,0.368489583,-0.30078125,1,0,0,0.5803,submitButton,7.999955556,-0.39453125,-0.421875,0,0,0,2,19,139,40,1,56,69670,blockP,180,2022-02-18_16h02.40.226,orientation adjustment blockP,2021.2.3,Win32,59.99160118,,,,,,,
,,,,,,,,,,,,,,,,,,,,,,-23.33333333,62,20,75,53.66666667,8.333333333,3.333333333,0.209635417,-0.313802083,1,0,0,0.1186,submitButton,7.962918871,-0.194010417,-0.381510417,0,0,0,2,20,140,46,1,62,69670,blockP,180,2022-02-18_16h02.40.226,orientation adjustment blockP,2021.2.3,Win32,59.99160118,,,,,,,
,,,,,,,,,,,,,,,,,,,,,,-32.22222222,59,20,75,51.77777778,7.222222222,2.888888889,-0.153645833,-0.395833333,1,0,0,1.0333,submitButton,7.922965879,-0.171875,-0.3984375,0,0,0,2,21,141,43,1,59,69670,blockP,180,2022-02-18_16h02.40.226,orientation adjustment blockP,2021.2.3,Win32,59.99160118,,,,,,,
,,,,,,,,,,,,,,,,,,,,,,55,-73,20,75,-58,15,9.75,0.404947917,-0.31640625,1,0,0,0.0479,submitButton,7.937239583,-0.290364583,-0.408854167,0,0,0,2,22,142,57,1,73,69670,blockP,180,2022-02-18_16h02.40.226,orientation adjustment blockP,2021.2.3,Win32,59.99160118,,,,,,,
,,,,,,,,,,,,,,,,,,,,,,-72.22222222,32,20,75,32.77777778,0.777777778,0.311111111,0.205729167,-0.328125,1,0,0,0.0828,submitButton,7.878122308,-0.290364583,-0.390625,0,0,0,2,23,143,16,1,32,69670,blockP,180,2022-02-18_16h02.40.226,orientation adjustment blockP,2021.2.3,Win32,59.99160118,,,,,,,
,,,,,,,,,,,,,,,,,,,,,,33.88888889,-71,20,75,-65.11111111,5.888888889,2.355555556,-0.197916667,-0.40625,1,0,0,0.6334,submitButton,7.835641026,-0.201822917,-0.41015625,0,0,0,2,24,144,55,1,71,69670,blockP,180,2022-02-18_16h02.40.226,orientation adjustment blockP,2021.2.3,Win32,59.99160118,,,,,,,
,,,,,,,,,,,,,,,,,,,,,,38.88888889,-31,20,75,-31.11111111,0.111111111,0.044444444,0.358072917,-0.315104167,1,0,0,0.6009,submitButton,7.776166243,-0.276041667,-0.44921875,0,0,0,2,25,145,15,1,31,69670,blockP,180,2022-02-18_16h02.40.226,orientation adjustment blockP,2021.2.3,Win32,59.99160118,,,,,,,
,,,,,,,,,,,,,,,,,,,,,,-26.66666667,-28,20,75,-25.66666667,2.333333333,0.933333333,0.229166667,-0.3203125,1,0,0,0.2499,submitButton,7.724326599,-0.268229167,-0.411458333,0,0,0,2,26,146,12,1,28,69670,blockP,180,2022-02-18_16h02.40.226,orientation adjustment blockP,2021.2.3,Win32,59.99160118,,,,,,,
,,,,,,,,,,,,,,,,,,,,,,66.11111111,23,20,75,26.11111111,3.111111111,1.244444444,0.358072917,-0.3203125,1,0,0,0.3695,submitButton,7.675605681,-0.260416667,-0.39453125,0,0,0,2,27,147,7,1,23,69670,blockP,180,2022-02-18_16h02.40.226,orientation adjustment blockP,2021.2.3,Win32,59.99160118,,,,,,,
,,,,,,,,,,,,,,,,,,,,,,22.22222222,41,20,75,31.22222222,9.777777778,3.911111111,-0.325520833,-0.40625,1,0,0,0.7335,submitButton,7.647512438,-0.330729167,-0.408854167,0,0,0,2,28,148,25,1,41,69670,blockP,180,2022-02-18_16h02.40.226,orientation adjustment blockP,2021.2.3,Win32,59.99160118,,,,,,,
,,,,,,,,,,,,,,,,,,,,,,-73.33333333,58,20,75,29.66666667,28.33333333,18.41666667,0.171875,-0.299479167,1,0,0,0.0154,submitButton,7.727283951,0.427083333,-0.412760417,1,0,0,2,29,149,42,1,58,69670,blockP,180,2022-02-18_16h02.40.226,orientation adjustment blockP,2021.2.3,Win32,59.99160118,continueButton,,,,,,
,,,,,,,,,,,,,,,,,,,,,,52.22222222,54,20,75,60.22222222,6.222222222,2.488888889,-0.274739583,-0.43359375,1,0,0,1.052,submitButton,7.68876634,-0.1796875,-0.3984375,0,0,0,2,30,150,38,1,54,69670,blockP,180,2022-02-18_16h02.40.226,orientation adjustment blockP,2021.2.3,Win32,59.99160118,,,,,,,
,,,,,,,,,,,,,,,,,,,,,,-60,22,20,75,25,3,1.2,0.203125,-0.3125,1,0,0,3.3667,submitButton,7.641403082,-0.19921875,-0.408854167,0,0,0,2,31,151,6,1,22,69670,blockP,180,2022-02-18_16h02.40.226,orientation adjustment blockP,2021.2.3,Win32,59.99160118,,,,,,,
,,,,,,,,,,,,,,,,,,,,,,-26.11111111,48,20,75,-32.11111111,80.11111111,72.1,0.36328125,-0.3046875,1,0,0,0.1154,submitButton,8.108494364,-0.333333333,-0.421875,0,0,0,2,32,152,32,1,48,69670,blockP,180,2022-02-18_16h02.40.226,orientation adjustment blockP,2021.2.3,Win32,59.99160118,,,,,,,
,,,,,,,,,,,,,,,,,,,,,,-37.77777778,30,20,75,37.22222222,7.222222222,2.888888889,0.178385417,-0.296875,1,0,0,0.2185,submitButton,8.070943245,-0.311197917,-0.407552083,0,0,0,2,33,153,14,1,30,69670,blockP,180,2022-02-18_16h02.40.226,orientation adjustment blockP,2021.2.3,Win32,59.99160118,,,,,,,
,,,,,,,,,,,,,,,,,,,,,,-73.88888889,-49,20,75,-208.8888889,20.11111111,13.07222222,-0.319010417,-0.403645833,1,0,0,1.8,submitButton,8.106666667,-0.15625,-0.348958333,0,0,0,2,34,154,33,1,49,69670,blockP,180,2022-02-18_16h02.40.226,orientation adjustment blockP,2021.2.3,Win32,59.99160118,,,,,,,
,,,,,,,,,,,,,,,,,,,,,,-70,-43,20,75,-212,11,4.4,-0.2265625,-0.416666667,1,0,0,2.0672,submitButton,8.080378251,-0.1953125,-0.408854167,0,0,0,2,35,155,27,1,43,69670,blockP,180,2022-02-18_16h02.40.226,orientation adjustment blockP,2021.2.3,Win32,59.99160118,,,,,,,
,,,,,,,,,,,,,,,,,,,,,,-47.22222222,38,20,75,29.77777778,8.222222222,3.288888889,-0.305989583,-0.42578125,1,0,0,0.8333,submitButton,8.046635368,-0.307291667,-0.42578125,0,0,0,2,36,156,22,1,38,69670,blockP,180,2022-02-18_16h02.40.226,orientation adjustment blockP,2021.2.3,Win32,59.99160118,,,,,,,
,,,,,,,,,,,,,,,,,,,,,,-66.66666667,53,20,75,36.33333333,16.66666667,10.83333333,-0.201822917,-0.3984375,1,0,0,0.65,submitButton,8.066122766,0.154947917,-0.3203125,0,0,0,2,37,157,37,1,53,69670,blockP,180,2022-02-18_16h02.40.226,orientation adjustment blockP,2021.2.3,Win32,59.99160118,,,,,,,
,,,,,,,,,,,,,,,,,,,,,,62.22222222,-19,20,75,-20.77777778,1.777777778,0.711111111,0.15234375,-0.305989583,1,0,0,1.3145,submitButton,8.015046296,-0.248697917,-0.352864583,0,0,0,2,38,158,3,1,19,69670,blockP,180,2022-02-18_16h02.40.226,orientation adjustment blockP,2021.2.3,Win32,59.99160118,,,,,,,
,,,,,,,,,,,,,,,,,,,,,,-41.66666667,40,20,75,25.33333333,14.66666667,5.866666667,-0.2109375,-0.38671875,1,0,0,0.6172,submitButton,8.000229885,-0.213541667,-0.391927083,0,0,0,2,39,159,24,1,40,69670,blockP,180,2022-02-18_16h02.40.226,orientation adjustment blockP,2021.2.3,Win32,59.99160118,,,,,,,
,,,,,,,,,,,,,,,,,,,,,,24.44444444,-74,20,75,-69.55555556,4.444444444,1.777777778,-0.229166667,-0.412760417,1,0,0,0.4664,submitButton,7.95761035,-0.229166667,-0.4140625,0,0,0,2,40,160,58,1,74,69670,blockP,180,2022-02-18_16h02.40.226,orientation adjustment blockP,2021.2.3,Win32,59.99160118,,,,,,,
,,,,,,,,,,,,,,,,,,,,,,-60.55555556,-25,20,75,-44.55555556,19.55555556,12.71111111,-0.266927083,-0.42578125,1,0,0,0.5675,submitButton,7.98994709,-0.34765625,-0.428385417,0,0,0,2,41,161,9,1,25,69670,blockP,180,2022-02-18_16h02.40.226,orientation adjustment blockP,2021.2.3,Win32,59.99160118,,,,,,,
,,,,,,,,,,,,,,,,,,,,,,22.77777778,37,20,75,238.7777778,21.77777778,14.15555556,0.1953125,-0.303385417,1,0,0,0.6155,submitButton,8.031606607,-0.313802083,-0.428385417,0,0,0,2,42,162,21,1,37,69670,blockP,180,2022-02-18_16h02.40.226,orientation adjustment blockP,2021.2.3,Win32,59.99160118,,,,,,,
,,,,,,,,,,,,,,,,,,,,,,66.66666667,-61,20,75,-40.33333333,20.66666667,13.43333333,-0.244791667,-0.427083333,1,0,0,0.7335,submitButton,8.067859806,-0.470052083,-0.432291667,0,0,0,2,43,163,45,1,61,69670,blockP,180,2022-02-18_16h02.40.226,orientation adjustment blockP,2021.2.3,Win32,59.99160118,,,,,,,
,,,,,,,,,,,,,,,,,,,,,,75,20,20,75,191,9,3.6,0.216145833,-0.328125,1,0,0,1.2002,submitButton,8.038074074,0.46875,-0.412760417,1,0,0,2,44,164,4,1,20,69670,blockP,180,2022-02-18_16h02.40.226,orientation adjustment blockP,2021.2.3,Win32,59.99160118,continueButton,,,,,,
,,,,,,,,,,,,,,,,,,,,,,-29.44444444,-55,20,75,-125.4444444,70.44444444,63.4,0.391927083,-0.311197917,1,0,0,0.6337,submitButton,8.404709345,0.184895833,-0.313802083,0,0,0,2,45,165,39,1,55,69670,blockP,180,2022-02-18_16h02.40.226,orientation adjustment blockP,2021.2.3,Win32,59.99160118,,,,,,,
,,,,,,,,,,,,,,,,,,,,,,40.55555556,-69,20,75,-49.44444444,19.55555556,12.71111111,-0.235677083,-0.438802083,1,0,0,0.8331,submitButton,8.433040936,-0.04296875,-0.389322917,0,0,0,2,46,166,53,1,69,69670,blockP,180,2022-02-18_16h02.40.226,orientation adjustment blockP,2021.2.3,Win32,59.99160118,,,,,,,
,,,,,,,,,,,,,,,,,,,,,,47.77777778,36,20,75,41.77777778,5.777777778,2.311111111,0.407552083,-0.303385417,1,0,0,0.4024,submitButton,8.393028322,-0.282552083,-0.4140625,0,0,0,2,47,167,20,1,36,69670,blockP,180,2022-02-18_16h02.40.226,orientation adjustment blockP,2021.2.3,Win32,59.99160118,,,,,,,
,,,,,,,,,,,,,,,,,,,,,,37.77777778,-21,20,75,-25.22222222,4.222222222,1.688888889,0.384114583,-0.305989583,1,0,0,0.3192,submitButton,8.349494949,-0.266927083,-0.408854167,0,0,0,2,48,168,5,1,21,69670,blockP,180,2022-02-18_16h02.40.226,orientation adjustment blockP,2021.2.3,Win32,59.99160118,,,,,,,
,,,,,,,,,,,,,,,,,,,,,,28.88888889,-29,20,75,-27.11111111,1.888888889,0.755555556,-0.1640625,-0.427083333,1,0,0,1.0499,submitButton,8.300501792,-0.166666667,-0.42578125,0,0,0,2,49,169,13,1,29,69670,blockP,180,2022-02-18_16h02.40.226,orientation adjustment blockP,2021.2.3,Win32,59.99160118,,,,,,,
,,,,,,,,,,,,,,,,,,,,,,66.11111111,72,20,75,214.1111111,37.88888889,30.31111111,0.229166667,-0.30859375,1,0,0,1.1166,submitButton,8.441595442,-0.286458333,-0.412760417,0,0,0,2,50,170,56,1,72,69670,blockP,180,2022-02-18_16h02.40.226,orientation adjustment blockP,2021.2.3,Win32,59.99160118,,,,,,,
,,,,,,,,,,,,,,,,,,,,,,37.77777778,-65,20,75,-54.22222222,10.77777778,4.311111111,0.377604167,-0.309895833,1,0,0,0.5511,submitButton,8.415286624,-0.3203125,-0.41015625,0,0,0,2,51,171,49,1,65,69670,blockP,180,2022-02-18_16h02.40.226,orientation adjustment blockP,2021.2.3,Win32,59.99160118,,,,,,,
,,,,,,,,,,,,,,,,,,,,,,60,26,20,75,35,9,3.6,-0.2734375,-0.395833333,1,0,0,1.3663,submitButton,8.384810127,-0.27734375,-0.3984375,0,0,0,2,52,172,10,1,26,69670,blockP,180,2022-02-18_16h02.40.226,orientation adjustment blockP,2021.2.3,Win32,59.99160118,,,,,,,
,,,,,,,,,,,,,,,,,,,,,,59.44444444,18,20,75,30.44444444,12.44444444,4.977777778,0.3984375,-0.30859375,1,0,0,0.9165,submitButton,8.36338225,-0.295572917,-0.427083333,0,0,0,2,53,173,2,1,18,69670,blockP,180,2022-02-18_16h02.40.226,orientation adjustment blockP,2021.2.3,Win32,59.99160118,,,,,,,
,,,,,,,,,,,,,,,,,,,,,,-24.44444444,27,20,75,22.55555556,4.444444444,1.777777778,-0.256510417,-0.403645833,1,0,0,0.9502,submitButton,8.322222222,-0.2578125,-0.40625,0,0,0,2,54,174,11,1,27,69670,blockP,180,2022-02-18_16h02.40.226,orientation adjustment blockP,2021.2.3,Win32,59.99160118,,,,,,,
,,,,,,,,,,,,,,,,,,,,,,-46.66666667,-46,20,75,-41.66666667,4.333333333,1.733333333,0.23046875,-0.330729167,1,0,0,0.9668,submitButton,8.281297447,-0.208333333,-0.3984375,0,0,0,2,55,175,30,1,46,69670,blockP,180,2022-02-18_16h02.40.226,orientation adjustment blockP,2021.2.3,Win32,59.99160118,,,,,,,
,,,,,,,,,,,,,,,,,,,,,,46.11111111,-75,20,75,-57.88888889,17.11111111,11.12222222,-0.18359375,-0.40234375,1,0,0,0.7669,submitButton,8.298834019,-0.184895833,-0.40234375,0,0,0,2,56,176,59,1,75,69670,blockP,180,2022-02-18_16h02.40.226,orientation adjustment blockP,2021.2.3,Win32,59.99160118,,,,,,,
,,,,,,,,,,,,,,,,,,,,,,40,-52,20,75,-39,13,5.2,-0.20703125,-0.404947917,1,0,0,0.9506,submitButton,8.279822768,-0.213541667,-0.40625,0,0,0,2,57,177,36,1,52,69670,blockP,180,2022-02-18_16h02.40.226,orientation adjustment blockP,2021.2.3,Win32,59.99160118,,,,,,,
,,,,,,,,,,,,,,,,,,,,,,43.33333333,34,20,75,30.33333333,3.666666667,1.466666667,0.350260417,-0.291666667,1,0,0,0.0833,submitButton,8.238279133,-0.30078125,-0.44140625,0,0,0,2,58,178,18,1,34,69670,blockP,180,2022-02-18_16h02.40.226,orientation adjustment blockP,2021.2.3,Win32,59.99160118,,,,,,,
,,,,,,,,,,,,,,,,,,,,,,-75,-66,20,75,-216,30,24,-0.151041667,-0.40234375,1,0,0,1.5832,submitButton,8.333804714,-0.1953125,-0.3828125,0,0,0,2,59,179,50,1,66,69670,blockP,180,2022-02-18_16h02.40.226,orientation adjustment blockP,2021.2.3,Win32,59.99160118,,,,,,,
,,,,,,,,,,,,,,,,,,,,,,,,,,,,,,,,,,,,,,,,,,,,,,,,69670,blockP,180,2022-02-18_16h02.40.226,orientation adjustment blockP,2021.2.3,Win32,59.99160118,,0.5078125,-0.408854167,1,0,0,EndButtonTxt
