consentMouse1.x,consentMouse1.y,consentMouse1.leftButton,consentMouse1.midButton,consentMouse1.rightButton,consentMouse1.clicked_name,consent_Mouse.x,consent_Mouse.y,consent_Mouse.leftButton,consent_Mouse.midButton,consent_Mouse.rightButton,consent_Mouse.clicked_name,startMouse.x,startMouse.y,startMouse.leftButton,startMouse.midButton,startMouse.rightButton,startMouse_2.x,startMouse_2.y,startMouse_2.leftButton,startMouse_2.midButton,startMouse_2.rightButton,start_distance,fixedOri,minimalDistance,maxOri,this_ori,accuracy,presented_accuracy,submitMouse.x,submitMouse.y,submitMouse.leftButton,submitMouse.midButton,submitMouse.rightButton,submitMouse.time,submitMouse.clicked_name,block_accuracy,continueMouse.x,continueMouse.y,continueMouse.leftButton,continueMouse.midButton,continueMouse.rightButton,trials.thisRepN,trials.thisTrialN,trials.thisN,trials.thisIndex,trials.ran,startOri,participant,condition,nTrials,date,expName,psychopyVersion,OS,frameRate,continueMouse.clicked_name,EndButtonMouse.x,EndButtonMouse.y,EndButtonMouse.leftButton,EndButtonMouse.midButton,EndButtonMouse.rightButton,EndButtonMouse.clicked_name
0.427796804,-0.405500856,1,0,0,consent_button1,0.398312643,-0.403699344,1,0,0,consent_button,0.057091003,-0.22794039,1,0,0,0.061790989,-0.224288313,1,0,0,73.88888889,25,20,75,230.8888889,25.88888889,16.82777778,0.189475421,-0.306734268,1,0,0,2.2812,submitButton,16.82777778,-0.136839148,-0.400247931,0,0,0,0,0,0,9,1,25,69745,blockP,180,2022-02-11_18h29.39.998,orientation adjustment blockP,2021.2.3,MacIntel,60.0024001,,,,,,,
,,,,,,,,,,,,,,,,,,,,,,-22.77777778,-45,20,75,-47.77777778,2.777777778,1.111111111,0.426655251,-0.288259846,1,0,0,0.5335,submitButton,8.969444444,-0.174550514,-0.395793201,0,0,0,0,1,1,29,1,45,69745,blockP,180,2022-02-11_18h29.39.998,orientation adjustment blockP,2021.2.3,MacIntel,60.0024001,,,,,,,
,,,,,,,,,,,,,,,,,,,,,,31.66666667,39,20,75,49.66666667,10.66666667,4.266666667,0.218852561,-0.319509846,1,0,0,1.9675,submitButton,7.401851852,-0.198099493,-0.382705479,0,0,0,0,2,2,23,1,39,69745,blockP,180,2022-02-11_18h29.39.998,orientation adjustment blockP,2021.2.3,MacIntel,60.0024001,,,,,,,
,,,,,,,,,,,,,,,,,,,,,,-29.44444444,67,20,75,63.55555556,3.444444444,1.377777778,0.172985338,-0.288821704,1,0,0,2.1649,submitButton,1.377777778,-0.157877604,-0.417246361,0,0,0,0,3,3,51,1,67,69745,blockP,180,2022-02-11_18h29.39.998,orientation adjustment blockP,2021.2.3,MacIntel,60.0024001,,,,,,,
,,,,,,,,,,,,,,,,,,,,,,-65.55555556,-62,20,75,-219.5555556,22.44444444,14.58888889,0.429937215,-0.299323095,1,0,0,0.7003,submitButton,7.983333333,0.015179081,-0.29280376,0,0,0,0,4,4,46,1,62,69745,blockP,180,2022-02-11_18h29.39.998,orientation adjustment blockP,2021.2.3,MacIntel,60.0024001,,,,,,,
,,,,,,,,,,,,,,,,,,,,,,-36.66666667,-68,20,75,-236.6666667,11.33333333,4.533333333,0.427676406,-0.300736658,1,0,0,0.7159,submitButton,6.833333333,-0.153449629,-0.383677583,0,0,0,0,5,5,52,1,68,69745,blockP,180,2022-02-11_18h29.39.998,orientation adjustment blockP,2021.2.3,MacIntel,60.0024001,,,,,,,
,,,,,,,,,,,,,,,,,,,,,,37.22222222,43,20,75,44.22222222,1.222222222,0.488888889,0.199392658,-0.298484767,1,0,0,0.483,submitButton,0.488888889,-0.185212436,-0.387146832,0,0,0,0,6,6,27,1,43,69745,blockP,180,2022-02-11_18h29.39.998,orientation adjustment blockP,2021.2.3,MacIntel,60.0024001,,,,,,,
,,,,,,,,,,,,,,,,,,,,,,47.22222222,51,20,75,207.2222222,23.77777778,15.45555556,0.19382759,-0.310711865,1,0,0,0.9167,submitButton,7.972222222,-0.214799158,-0.400702768,0,0,0,0,7,7,35,1,51,69745,blockP,180,2022-02-11_18h29.39.998,orientation adjustment blockP,2021.2.3,MacIntel,60.0024001,,,,,,,
,,,,,,,,,,,,,,,,,,,,,,-41.11111111,-37,20,75,-50.11111111,13.11111111,5.244444444,0.440371718,-0.298297481,1,0,0,0.8668,submitButton,7.062962963,-0.118449451,-0.40085884,0,0,0,0,8,8,21,1,37,69745,blockP,180,2022-02-11_18h29.39.998,orientation adjustment blockP,2021.2.3,MacIntel,60.0024001,,,,,,,
,,,,,,,,,,,,,,,,,,,,,,25.55555556,-49,20,75,22.55555556,71.55555556,64.4,0.381002069,-0.28306489,1,0,0,1.1835,submitButton,64.4,-0.119082656,-0.396546804,0,0,0,0,9,9,33,1,49,69745,blockP,180,2022-02-11_18h29.39.998,orientation adjustment blockP,2021.2.3,MacIntel,60.0024001,,,,,,,
,,,,,,,,,,,,,,,,,,,,,,-49.44444444,-36,20,75,-194.4444444,21.55555556,14.01111111,0.414200735,-0.283533105,1,0,0,0.5837,submitButton,39.20555556,-0.278855415,-0.391414277,0,0,0,0,10,10,20,1,36,69745,blockP,180,2022-02-11_18h29.39.998,orientation adjustment blockP,2021.2.3,MacIntel,60.0024001,,,,,,,
,,,,,,,,,,,,,,,,,,,,,,61.11111111,35,20,75,211.1111111,3.888888889,1.555555556,0.440344963,-0.293766945,1,0,0,1.3831,submitButton,26.65555556,-0.165302155,-0.410838506,0,0,0,0,11,11,19,1,35,69745,blockP,180,2022-02-11_18h29.39.998,orientation adjustment blockP,2021.2.3,MacIntel,60.0024001,,,,,,,
,,,,,,,,,,,,,,,,,,,,,,71.11111111,56,20,75,226.1111111,9.888888889,3.955555556,0.399311501,-0.301757813,1,0,0,0.9998,submitButton,3.955555556,-0.002425799,-0.276585688,0,0,0,0,12,12,40,1,56,69745,blockP,180,2022-02-11_18h29.39.998,orientation adjustment blockP,2021.2.3,MacIntel,60.0024001,,,,,,,
,,,,,,,,,,,,,,,,,,,,,,-23.33333333,-50,20,75,50.66666667,79.33333333,71.4,0.203325664,-0.301757813,1,0,0,2.017,submitButton,37.67777778,-0.123256457,-0.384894941,0,0,0,0,13,13,34,1,50,69745,blockP,180,2022-02-11_18h29.39.998,orientation adjustment blockP,2021.2.3,MacIntel,60.0024001,,,,,,,
,,,,,,,,,,,,,,,,,,,,,,-53.88888889,-40,20,75,-210.8888889,9.111111111,3.644444444,0.414396939,-0.299831443,1,0,0,0.4326,submitButton,26.33333333,0.339000963,-0.397429723,1,0,0,0,14,14,24,1,40,69745,blockP,180,2022-02-11_18h29.39.998,orientation adjustment blockP,2021.2.3,MacIntel,60.0024001,continueButton,,,,,,
,,,,,,,,,,,,,,,,,,,,,,75,63,20,75,206,37,29.6,0.368632277,-0.284630066,1,0,0,0.3505,submitButton,29.6,-0.15812286,-0.360677083,0,0,0,0,15,15,47,1,63,69745,blockP,180,2022-02-11_18h29.39.998,orientation adjustment blockP,2021.2.3,MacIntel,60.0024001,,,,,,,
,,,,,,,,,,,,,,,,,,,,,,-64.44444444,65,20,75,48.55555556,16.44444444,10.68888889,0.198099493,-0.307242616,1,0,0,0.1324,submitButton,20.14444444,-0.174122432,-0.401420698,0,0,0,0,16,16,49,1,65,69745,blockP,180,2022-02-11_18h29.39.998,orientation adjustment blockP,2021.2.3,MacIntel,60.0024001,,,,,,,
,,,,,,,,,,,,,,,,,,,,,,-42.77777778,-38,20,75,-21.77777778,16.22222222,10.54444444,0.381831478,-0.30738085,1,0,0,0.5999,submitButton,16.94444444,-0.234178796,-0.406009204,0,0,0,0,17,17,22,1,38,69745,blockP,180,2022-02-11_18h29.39.998,orientation adjustment blockP,2021.2.3,MacIntel,60.0024001,,,,,,,
,,,,,,,,,,,,,,,,,,,,,,26.66666667,-41,20,75,-18.33333333,22.66666667,14.73333333,0.224154538,-0.313240225,1,0,0,1.45,submitButton,16.39166667,-0.172570634,-0.420416845,0,0,0,0,18,18,25,1,41,69745,blockP,180,2022-02-11_18h29.39.998,orientation adjustment blockP,2021.2.3,MacIntel,60.0024001,,,,,,,
,,,,,,,,,,,,,,,,,,,,,,55,31,20,75,45,14,5.6,0.245848495,-0.311929224,1,0,0,0.3499,submitButton,14.23333333,-0.323496361,-0.400007135,0,0,0,0,19,19,15,1,31,69745,blockP,180,2022-02-11_18h29.39.998,orientation adjustment blockP,2021.2.3,MacIntel,60.0024001,,,,,,,
,,,,,,,,,,,,,,,,,,,,,,-36.11111111,69,20,75,77.88888889,8.888888889,3.555555556,0.187504459,-0.302671946,1,0,0,0.1997,submitButton,12.4537037,-0.117602205,-0.39755904,0,0,0,0,20,20,53,1,69,69745,blockP,180,2022-02-11_18h29.39.998,orientation adjustment blockP,2021.2.3,MacIntel,60.0024001,,,,,,,
,,,,,,,,,,,,,,,,,,,,,,29.44444444,-74,20,75,58.44444444,47.55555556,38.04444444,0.170100243,-0.309204659,1,0,0,1.1495,submitButton,16.10952381,-0.204262093,-0.206861801,0,0,0,0,21,21,58,1,74,69745,blockP,180,2022-02-11_18h29.39.998,orientation adjustment blockP,2021.2.3,MacIntel,60.0024001,,,,,,,
,,,,,,,,,,,,,,,,,,,,,,-38.33333333,-54,20,75,-63.33333333,9.333333333,3.733333333,0.234250143,-0.302257242,1,0,0,0.1484,submitButton,14.5625,-0.264724244,-0.312513378,0,0,0,0,22,22,38,1,54,69745,blockP,180,2022-02-11_18h29.39.998,orientation adjustment blockP,2021.2.3,MacIntel,60.0024001,,,,,,,
,,,,,,,,,,,,,,,,,,,,,,-72.77777778,-61,20,75,-53.77777778,7.222222222,2.888888889,0.222246005,-0.29951484,1,0,0,0.0159,submitButton,13.2654321,-0.183785495,-0.403534354,0,0,0,0,23,23,45,1,61,69745,blockP,180,2022-02-11_18h29.39.998,orientation adjustment blockP,2021.2.3,MacIntel,60.0024001,,,,,,,
,,,,,,,,,,,,,,,,,,,,,,31.66666667,30,20,75,34.66666667,4.666666667,1.866666667,0.433905893,-0.30765732,1,0,0,0.3834,submitButton,12.12555556,-0.184093179,-0.240136273,0,0,0,0,24,24,14,1,30,69745,blockP,180,2022-02-11_18h29.39.998,orientation adjustment blockP,2021.2.3,MacIntel,60.0024001,,,,,,,
,,,,,,,,,,,,,,,,,,,,,,27.77777778,70,20,75,225.7777778,24.22222222,15.74444444,0.215044414,-0.289512878,1,0,0,1.8999,submitButton,12.45454545,-0.095747717,-0.311411958,0,0,0,0,25,25,54,1,70,69745,blockP,180,2022-02-11_18h29.39.998,orientation adjustment blockP,2021.2.3,MacIntel,60.0024001,,,,,,,
,,,,,,,,,,,,,,,,,,,,,,-20.55555556,-17,20,75,-11.55555556,5.444444444,2.177777778,0.411886416,-0.295011059,1,0,0,0.1001,submitButton,11.59814815,0.187308255,-0.241335795,0,0,0,0,26,26,1,1,17,69745,blockP,180,2022-02-11_18h29.39.998,orientation adjustment blockP,2021.2.3,MacIntel,60.0024001,,,,,,,
,,,,,,,,,,,,,,,,,,,,,,-42.22222222,52,20,75,42.77777778,9.222222222,3.688888889,0.21231539,-0.290953196,1,0,0,0.1167,submitButton,10.98974359,-0.049693208,-0.207330016,0,0,0,0,27,27,36,1,52,69745,blockP,180,2022-02-11_18h29.39.998,orientation adjustment blockP,2021.2.3,MacIntel,60.0024001,,,,,,,
,,,,,,,,,,,,,,,,,,,,,,-27.77777778,71,20,75,57.22222222,13.77777778,5.511111111,0.172548338,-0.301405537,1,0,0,1.6997,submitButton,10.5984127,-0.178826876,-0.408591074,0,0,0,0,28,28,55,1,71,69745,blockP,180,2022-02-11_18h29.39.998,orientation adjustment blockP,2021.2.3,MacIntel,60.0024001,,,,,,,
,,,,,,,,,,,,,,,,,,,,,,-57.22222222,-46,20,75,-105.2222222,59.22222222,50.33888889,0.192842109,-0.291238584,1,0,0,0.5321,submitButton,13.24777778,0.416457085,-0.408020298,1,0,0,0,29,29,30,1,46,69745,blockP,180,2022-02-11_18h29.39.998,orientation adjustment blockP,2021.2.3,MacIntel,60.0024001,continueButton,,,,,,
,,,,,,,,,,,,,,,,,,,,,,30,-72,20,75,-32,40,32,0.395775364,-0.295122539,1,0,0,0.7663,submitButton,14.41979167,-0.14838399,-0.162100457,0,0,0,0,30,30,56,1,72,69745,blockP,180,2022-02-11_18h29.39.998,orientation adjustment blockP,2021.2.3,MacIntel,60.0024001,,,,,,,
,,,,,,,,,,,,,,,,,,,,,,-55.55555556,21,20,75,29.44444444,8.444444444,3.377777778,0.196436216,-0.275439676,1,0,0,1.3005,submitButton,13.77026144,0.16268461,-0.300326413,0,0,0,0,31,31,5,1,21,69745,blockP,180,2022-02-11_18h29.39.998,orientation adjustment blockP,2021.2.3,MacIntel,60.0024001,,,,,,,
,,,,,,,,,,,,,,,,,,,,,,-30.55555556,48,20,75,34.44444444,13.55555556,5.422222222,0.361493115,-0.292282035,1,0,0,0.1335,submitButton,13.30648148,-0.124665561,-0.344566032,0,0,0,0,32,32,32,1,48,69745,blockP,180,2022-02-11_18h29.39.998,orientation adjustment blockP,2021.2.3,MacIntel,60.0024001,,,,,,,
,,,,,,,,,,,,,,,,,,,,,,-71.66666667,-75,20,75,-239.6666667,15.33333333,9.966666667,0.449227668,-0.286632242,1,0,0,0.6997,submitButton,13.13070175,-0.167518372,-0.36130137,0,0,0,0,33,33,59,1,75,69745,blockP,180,2022-02-11_18h29.39.998,orientation adjustment blockP,2021.2.3,MacIntel,60.0024001,,,,,,,
,,,,,,,,,,,,,,,,,,,,,,-58.33333333,-18,20,75,-39.33333333,21.33333333,13.86666667,0.447586687,-0.303617295,1,0,0,0.1666,submitButton,13.1675,0.059663955,-0.309053047,0,0,0,0,34,34,2,1,18,69745,blockP,180,2022-02-11_18h29.39.998,orientation adjustment blockP,2021.2.3,MacIntel,60.0024001,,,,,,,
,,,,,,,,,,,,,,,,,,,,,,-55,-20,20,75,-23,3,1.2,0.237304688,-0.294997681,1,0,0,0.7832,submitButton,12.59761905,-0.102614869,-0.415119328,0,0,0,0,35,35,4,1,20,69745,blockP,180,2022-02-11_18h29.39.998,orientation adjustment blockP,2021.2.3,MacIntel,60.0024001,,,,,,,
,,,,,,,,,,,,,,,,,,,,,,-56.11111111,-73,20,75,-244.1111111,8.888888889,3.555555556,0.354197881,-0.29781143,1,0,0,2.7,submitButton,12.18661616,-0.02899365,-0.317400649,0,0,0,0,36,36,57,1,73,69745,blockP,180,2022-02-11_18h29.39.998,orientation adjustment blockP,2021.2.3,MacIntel,60.0024001,,,,,,,
,,,,,,,,,,,,,,,,,,,,,,63.88888889,-32,20,75,-47.11111111,15.11111111,9.822222222,0.228564676,-0.325605558,1,0,0,0.0505,submitButton,12.08381643,-0.204119399,-0.164428154,0,0,0,0,37,37,16,1,32,69745,blockP,180,2022-02-11_18h29.39.998,orientation adjustment blockP,2021.2.3,MacIntel,60.0024001,,,,,,,
,,,,,,,,,,,,,,,,,,,,,,-52.77777778,-24,20,75,-46.77777778,22.77777778,14.80555556,0.155821918,-0.30710884,1,0,0,0.5664,submitButton,12.19722222,-0.087261879,-0.210081336,0,0,0,0,38,38,8,1,24,69745,blockP,180,2022-02-11_18h29.39.998,orientation adjustment blockP,2021.2.3,MacIntel,60.0024001,,,,,,,
,,,,,,,,,,,,,,,,,,,,,,35,-16,20,75,-16,0,0,0.360975849,-0.31156357,1,0,0,0.2001,submitButton,11.70933333,-0.191098566,-0.292562964,0,0,0,0,39,39,0,1,16,69745,blockP,180,2022-02-11_18h29.39.998,orientation adjustment blockP,2021.2.3,MacIntel,60.0024001,,,,,,,
,,,,,,,,,,,,,,,,,,,,,,-72.77777778,42,20,75,29.22222222,12.77777778,5.111111111,0.171393408,-0.301962935,1,0,0,0.0668,submitButton,11.45555556,-0.237474137,-0.350559182,0,0,0,0,40,40,26,1,42,69745,blockP,180,2022-02-11_18h29.39.998,orientation adjustment blockP,2021.2.3,MacIntel,60.0024001,,,,,,,
,,,,,,,,,,,,,,,,,,,,,,-33.33333333,-34,20,75,-29.33333333,4.666666667,1.866666667,0.362808576,-0.30193618,1,0,0,0.1001,submitButton,11.10041152,-0.061759775,-0.250887379,0,0,0,0,41,41,18,1,34,69745,blockP,180,2022-02-11_18h29.39.998,orientation adjustment blockP,2021.2.3,MacIntel,60.0024001,,,,,,,
,,,,,,,,,,,,,,,,,,,,,,61.66666667,-57,20,75,30.66666667,87.66666667,78.9,0.2251311,-0.27882866,1,0,0,0.2672,submitButton,13.5218254,-0.308825628,-0.291546269,0,0,0,0,42,42,41,1,57,69745,blockP,180,2022-02-11_18h29.39.998,orientation adjustment blockP,2021.2.3,MacIntel,60.0024001,,,,,,,
,,,,,,,,,,,,,,,,,,,,,,45,33,20,75,45,12,4.8,0.219860338,-0.302734375,1,0,0,0.267,submitButton,13.2210728,-0.252644299,-0.339152576,0,0,0,0,43,43,17,1,33,69745,blockP,180,2022-02-11_18h29.39.998,orientation adjustment blockP,2021.2.3,MacIntel,60.0024001,,,,,,,
,,,,,,,,,,,,,,,,,,,,,,-70,59,20,75,23,36,28.8,0.177333048,-0.304299551,1,0,0,0.2163,submitButton,13.74037037,0.294110303,-0.385519228,1,0,0,0,44,44,43,1,59,69745,blockP,180,2022-02-11_18h29.39.998,orientation adjustment blockP,2021.2.3,MacIntel,60.0024001,continueButton,,,,,,
,,,,,,,,,,,,,,,,,,,,,,52.22222222,-64,20,75,-57.77777778,6.222222222,2.488888889,0.224025221,-0.313298195,1,0,0,0.0498,submitButton,13.37741935,-0.037929866,-0.1424934,0,0,0,0,45,45,48,1,64,69745,blockP,180,2022-02-11_18h29.39.998,orientation adjustment blockP,2021.2.3,MacIntel,60.0024001,,,,,,,
,,,,,,,,,,,,,,,,,,,,,,-67.77777778,-53,20,75,-230.7777778,2.222222222,0.888888889,0.446159746,-0.309713007,1,0,0,0.5995,submitButton,12.98715278,-0.024222317,-0.290337828,0,0,0,0,46,46,37,1,53,69745,blockP,180,2022-02-11_18h29.39.998,orientation adjustment blockP,2021.2.3,MacIntel,60.0024001,,,,,,,
,,,,,,,,,,,,,,,,,,,,,,52.22222222,-58,20,75,-57.77777778,0.222222222,0.088888889,0.392399757,-0.295363335,1,0,0,0.5161,submitButton,12.5962963,0.020070812,-0.285972282,0,0,0,0,47,47,42,1,58,69745,blockP,180,2022-02-11_18h29.39.998,orientation adjustment blockP,2021.2.3,MacIntel,60.0024001,,,,,,,
,,,,,,,,,,,,,,,,,,,,,,29.44444444,-55,20,75,-62.55555556,7.555555556,3.022222222,0.381782427,-0.291274258,1,0,0,0.3988,submitButton,12.31470588,-0.018773188,-0.297713328,0,0,0,0,48,48,39,1,55,69745,blockP,180,2022-02-11_18h29.39.998,orientation adjustment blockP,2021.2.3,MacIntel,60.0024001,,,,,,,
,,,,,,,,,,,,,,,,,,,,,,-20.55555556,44,20,75,49.44444444,5.444444444,2.177777778,0.410441638,-0.288991153,1,0,0,0.2334,submitButton,12.02507937,-0.144228025,-0.390143408,0,0,0,0,49,49,28,1,44,69745,blockP,180,2022-02-11_18h29.39.998,orientation adjustment blockP,2021.2.3,MacIntel,60.0024001,,,,,,,
,,,,,,,,,,,,,,,,,,,,,,31.66666667,-27,20,75,-47.33333333,20.33333333,13.21666667,0.354844463,-0.301802404,1,0,0,0.2663,submitButton,12.05817901,-0.162176263,-0.247048017,0,0,0,0,50,50,11,1,27,69745,blockP,180,2022-02-11_18h29.39.998,orientation adjustment blockP,2021.2.3,MacIntel,60.0024001,,,,,,,
,,,,,,,,,,,,,,,,,,,,,,-62.77777778,23,20,75,28.22222222,5.222222222,2.088888889,0.238232199,-0.297334297,1,0,0,1.3334,submitButton,11.78873874,-0.065037279,-0.29374019,0,0,0,0,51,51,7,1,23,69745,blockP,180,2022-02-11_18h29.39.998,orientation adjustment blockP,2021.2.3,MacIntel,60.0024001,,,,,,,
,,,,,,,,,,,,,,,,,,,,,,53.88888889,22,20,75,37.88888889,15.88888889,10.32777778,0.393857912,-0.313088613,1,0,0,0.3838,submitButton,11.7502924,-0.064515554,-0.304210367,0,0,0,0,52,52,6,1,22,69745,blockP,180,2022-02-11_18h29.39.998,orientation adjustment blockP,2021.2.3,MacIntel,60.0024001,,,,,,,
,,,,,,,,,,,,,,,,,,,,,,-65.55555556,-60,20,75,-242.5555556,2.555555556,1.022222222,0.480776434,-0.305744328,1,0,0,0.2989,submitButton,11.47521368,-0.298400043,-0.255244007,0,0,0,0,53,53,44,1,60,69745,blockP,180,2022-02-11_18h29.39.998,orientation adjustment blockP,2021.2.3,MacIntel,60.0024001,,,,,,,
,,,,,,,,,,,,,,,,,,,,,,74.44444444,-47,20,75,-42.55555556,4.444444444,1.777777778,0.370496219,-0.288803867,1,0,0,1.1155,submitButton,11.23277778,-0.082646618,-0.280661387,0,0,0,0,54,54,31,1,47,69745,blockP,180,2022-02-11_18h29.39.998,orientation adjustment blockP,2021.2.3,MacIntel,60.0024001,,,,,,,
,,,,,,,,,,,,,,,,,,,,,,-51.11111111,-28,20,75,-211.1111111,3.111111111,1.244444444,0.338760167,-0.312201234,1,0,0,2.4161,submitButton,10.98915989,-0.151813106,-0.265437714,0,0,0,0,55,55,12,1,28,69745,blockP,180,2022-02-11_18h29.39.998,orientation adjustment blockP,2021.2.3,MacIntel,60.0024001,,,,,,,
,,,,,,,,,,,,,,,,,,,,,,-36.66666667,66,20,75,67.33333333,1.333333333,0.533333333,0.190888984,-0.291568564,1,0,0,0.5337,submitButton,10.74021164,-0.211914063,-0.398232377,0,0,0,0,56,56,50,1,66,69745,blockP,180,2022-02-11_18h29.39.998,orientation adjustment blockP,2021.2.3,MacIntel,60.0024001,,,,,,,
,,,,,,,,,,,,,,,,,,,,,,24.44444444,29,20,75,33.44444444,4.444444444,1.777777778,0.441852169,-0.293931935,1,0,0,0.1658,submitButton,10.53178295,-0.184003995,-0.211124786,0,0,0,0,57,57,13,1,29,69745,blockP,180,2022-02-11_18h29.39.998,orientation adjustment blockP,2021.2.3,MacIntel,60.0024001,,,,,,,
,,,,,,,,,,,,,,,,,,,,,,-67.22222222,26,20,75,40.77777778,14.77777778,5.911111111,0.184811109,-0.303291774,1,0,0,1.383,submitButton,10.42676768,-0.233429652,-0.363780679,0,0,0,0,58,58,10,1,26,69745,blockP,180,2022-02-11_18h29.39.998,orientation adjustment blockP,2021.2.3,MacIntel,60.0024001,,,,,,,
,,,,,,,,,,,,,,,,,,,,,,-62.22222222,-19,20,75,-44.22222222,25.22222222,16.39444444,0.198045983,-0.305784461,1,0,0,0.6333,submitButton,10.55938272,0.240818529,-0.392118828,1,0,0,0,59,59,3,1,19,69745,blockP,180,2022-02-11_18h29.39.998,orientation adjustment blockP,2021.2.3,MacIntel,60.0024001,continueButton,,,,,,
,,,,,,,,,,,,,,,,,,,,,,31.66666667,-60,20,75,-61.33333333,1.333333333,0.533333333,0.423645298,-0.292701199,1,0,0,0.3494,submitButton,10.34142512,-0.01573648,-0.262503567,0,0,0,1,0,60,44,1,60,69745,blockP,180,2022-02-11_18h29.39.998,orientation adjustment blockP,2021.2.3,MacIntel,60.0024001,,,,,,,
,,,,,,,,,,,,,,,,,,,,,,66.11111111,65,20,75,233.1111111,11.88888889,4.755555556,-0.165351206,-0.372239762,1,0,0,2.283,submitButton,10.22257683,0.040975492,-0.283381493,0,0,0,1,1,61,49,1,65,69745,blockP,180,2022-02-11_18h29.39.998,orientation adjustment blockP,2021.2.3,MacIntel,60.0024001,,,,,,,
,,,,,,,,,,,,,,,,,,,,,,48.88888889,-53,20,75,-54.11111111,1.111111111,0.444444444,0.378875036,-0.311764234,1,0,0,0.7667,submitButton,10.01886574,-0.115840825,-0.333355629,0,0,0,1,2,62,37,1,53,69745,blockP,180,2022-02-11_18h29.39.998,orientation adjustment blockP,2021.2.3,MacIntel,60.0024001,,,,,,,
,,,,,,,,,,,,,,,,,,,,,,-26.66666667,-22,20,75,-28.66666667,6.666666667,2.666666667,0.183468893,-0.330029074,1,0,0,0.9992,submitButton,9.868820862,-0.195798552,-0.303938356,0,0,0,1,3,63,6,1,22,69745,blockP,180,2022-02-11_18h29.39.998,orientation adjustment blockP,2021.2.3,MacIntel,60.0024001,,,,,,,
,,,,,,,,,,,,,,,,,,,,,,57.22222222,-43,20,75,-51.77777778,8.777777778,3.511111111,0.394205729,-0.291283176,1,0,0,0.3,submitButton,9.741666667,-0.085482663,-0.266927083,0,0,0,1,4,64,27,1,43,69745,blockP,180,2022-02-11_18h29.39.998,orientation adjustment blockP,2021.2.3,MacIntel,60.0024001,,,,,,,
,,,,,,,,,,,,,,,,,,,,,,68.33333333,-58,20,75,-47.66666667,10.33333333,4.133333333,0.48795127,-0.309222496,1,0,0,0.2337,submitButton,9.631699346,0.108973673,-0.259337543,0,0,0,1,5,65,42,1,58,69745,blockP,180,2022-02-11_18h29.39.998,orientation adjustment blockP,2021.2.3,MacIntel,60.0024001,,,,,,,
,,,,,,,,,,,,,,,,,,,,,,67.22222222,-49,20,75,-56.77777778,7.777777778,3.111111111,0.38902861,-0.29720498,1,0,0,0.1003,submitButton,9.506303419,-0.081384668,-0.294154894,0,0,0,1,6,66,33,1,49,69745,blockP,180,2022-02-11_18h29.39.998,orientation adjustment blockP,2021.2.3,MacIntel,60.0024001,,,,,,,
,,,,,,,,,,,,,,,,,,,,,,-21.11111111,-67,20,75,-119.1111111,52.11111111,44.29444444,0.21654716,-0.297664277,1,0,0,0.0165,submitButton,10.16268344,-0.076015803,-0.285637842,0,0,0,1,7,67,51,1,67,69745,blockP,180,2022-02-11_18h29.39.998,orientation adjustment blockP,2021.2.3,MacIntel,60.0024001,,,,,,,
,,,,,,,,,,,,,,,,,,,,,,-39.44444444,-28,20,75,-28.44444444,0.444444444,0.177777778,0.186117651,-0.301285138,1,0,0,0.0511,submitButton,9.977777778,0.012887058,-0.305311787,0,0,0,1,8,68,12,1,28,69745,blockP,180,2022-02-11_18h29.39.998,orientation adjustment blockP,2021.2.3,MacIntel,60.0024001,,,,,,,
,,,,,,,,,,,,,,,,,,,,,,-22.22222222,-45,20,75,-222.2222222,2.777777778,1.111111111,0.398754102,-0.300852597,1,0,0,2.7001,submitButton,9.816565657,-0.335415775,-0.407913278,0,0,0,1,9,69,29,1,45,69745,blockP,180,2022-02-11_18h29.39.998,orientation adjustment blockP,2021.2.3,MacIntel,60.0024001,,,,,,,
,,,,,,,,,,,,,,,,,,,,,,-33.33333333,48,20,75,54.66666667,6.666666667,2.666666667,0.247007884,-0.307594892,1,0,0,1.3498,submitButton,9.688888889,0.06761915,-0.302243864,0,0,0,1,10,70,32,1,48,69745,blockP,180,2022-02-11_18h29.39.998,orientation adjustment blockP,2021.2.3,MacIntel,60.0024001,,,,,,,
,,,,,,,,,,,,,,,,,,,,,,46.66666667,-54,20,75,-54.33333333,0.333333333,0.133333333,0.460402397,-0.308459974,1,0,0,0.3667,submitButton,9.521247563,-0.110052797,-0.412590967,0,0,0,1,11,71,38,1,54,69745,blockP,180,2022-02-11_18h29.39.998,orientation adjustment blockP,2021.2.3,MacIntel,60.0024001,,,,,,,
,,,,,,,,,,,,,,,,,,,,,,-30.55555556,-38,20,75,-48.55555556,10.55555556,4.222222222,0.433905893,-0.301267302,1,0,0,0.1656,submitButton,9.429885057,-0.13815015,-0.389394264,0,0,0,1,12,72,22,1,38,69745,blockP,180,2022-02-11_18h29.39.998,orientation adjustment blockP,2021.2.3,MacIntel,60.0024001,,,,,,,
,,,,,,,,,,,,,,,,,,,,,,28.88888889,-19,20,75,-26.11111111,7.111111111,2.844444444,0.443680437,-0.290966574,1,0,0,1.2664,submitButton,9.31826742,-0.025123074,-0.307786637,0,0,0,1,13,73,3,1,19,69745,blockP,180,2022-02-11_18h29.39.998,orientation adjustment blockP,2021.2.3,MacIntel,60.0024001,,,,,,,
,,,,,,,,,,,,,,,,,,,,,,28.33333333,37,20,75,38.33333333,1.333333333,0.533333333,0.395935895,-0.300723281,1,0,0,0.0489,submitButton,9.171851852,0.227061929,-0.400051727,1,0,0,1,14,74,21,1,37,69745,blockP,180,2022-02-11_18h29.39.998,orientation adjustment blockP,2021.2.3,MacIntel,60.0024001,continueButton,,,,,,
,,,,,,,,,,,,,,,,,,,,,,42.77777778,25,20,75,43.77777778,18.77777778,12.20555556,0.38066763,-0.293196169,1,0,0,0.5173,submitButton,9.221584699,0.228288206,-0.230812108,0,0,0,1,15,75,9,1,25,69745,blockP,180,2022-02-11_18h29.39.998,orientation adjustment blockP,2021.2.3,MacIntel,60.0024001,,,,,,,
,,,,,,,,,,,,,,,,,,,,,,-36.11111111,-52,20,75,-237.1111111,5.111111111,2.044444444,0.421464755,-0.301945098,1,0,0,2.3828,submitButton,9.105824373,-0.087926299,-0.231619221,0,0,0,1,16,76,36,1,52,69745,blockP,180,2022-02-11_18h29.39.998,orientation adjustment blockP,2021.2.3,MacIntel,60.0024001,,,,,,,
,,,,,,,,,,,,,,,,,,,,,,-24.44444444,70,20,75,56.55555556,13.44444444,5.377777778,0.196150828,-0.302502497,1,0,0,0.1842,submitButton,9.04664903,-0.345935003,-0.351714112,0,0,0,1,17,77,54,1,70,69745,blockP,180,2022-02-11_18h29.39.998,orientation adjustment blockP,2021.2.3,MacIntel,60.0024001,,,,,,,
,,,,,,,,,,,,,,,,,,,,,,-73.33333333,-74,20,75,-247.3333333,6.666666667,2.666666667,0.185595926,-0.316499893,1,0,0,0.1321,submitButton,8.946961806,-0.156004745,-0.347714219,0,0,0,1,18,78,58,1,74,69745,blockP,180,2022-02-11_18h29.39.998,orientation adjustment blockP,2021.2.3,MacIntel,60.0024001,,,,,,,
,,,,,,,,,,,,,,,,,,,,,,56.66666667,59,20,75,236.6666667,2.333333333,0.933333333,0.219499144,-0.320053867,1,0,0,0.0995,submitButton,8.823675214,-0.141686287,-0.235271297,0,0,0,1,19,79,43,1,59,69745,blockP,180,2022-02-11_18h29.39.998,orientation adjustment blockP,2021.2.3,MacIntel,60.0024001,,,,,,,
,,,,,,,,,,,,,,,,,,,,,,-32.22222222,-35,20,75,-41.22222222,6.222222222,2.488888889,0.223325128,-0.288469428,1,0,0,0.1837,submitButton,8.727693603,-0.101129959,-0.119822881,0,0,0,1,20,80,19,1,35,69745,blockP,180,2022-02-11_18h29.39.998,orientation adjustment blockP,2021.2.3,MacIntel,60.0024001,,,,,,,
,,,,,,,,,,,,,,,,,,,,,,-33.33333333,55,20,75,45.66666667,9.333333333,3.733333333,0.190483198,-0.289909746,1,0,0,0.317,submitButton,8.653150912,-0.213327626,-0.249643265,0,0,0,1,21,81,39,1,55,69745,blockP,180,2022-02-11_18h29.39.998,orientation adjustment blockP,2021.2.3,MacIntel,60.0024001,,,,,,,
,,,,,,,,,,,,,,,,,,,,,,-71.11111111,-20,20,75,-219.1111111,19.11111111,12.42222222,0.38374893,-0.281481878,1,0,0,0.0836,submitButton,8.708578431,-0.048658676,-0.23536494,0,0,0,1,22,82,4,1,20,69745,blockP,180,2022-02-11_18h29.39.998,orientation adjustment blockP,2021.2.3,MacIntel,60.0024001,,,,,,,
,,,,,,,,,,,,,,,,,,,,,,-59.44444444,-34,20,75,-47.44444444,13.44444444,5.377777778,0.201247681,-0.280179795,1,0,0,0.8163,submitButton,8.660305958,-0.166778146,-0.251716788,0,0,0,1,23,83,18,1,34,69745,blockP,180,2022-02-11_18h29.39.998,orientation adjustment blockP,2021.2.3,MacIntel,60.0024001,,,,,,,
,,,,,,,,,,,,,,,,,,,,,,-60,-16,20,75,-39,23,14.95,0.221068779,-0.289066959,1,0,0,0.6671,submitButton,8.75015873,-0.225666203,-0.303666346,0,0,0,1,24,84,0,1,16,69745,blockP,180,2022-02-11_18h29.39.998,orientation adjustment blockP,2021.2.3,MacIntel,60.0024001,,,,,,,
,,,,,,,,,,,,,,,,,,,,,,-65.55555556,17,20,75,39.44444444,22.44444444,14.58888889,0.197359268,-0.314288135,1,0,0,1.5166,submitButton,8.832394366,-0.036547517,-0.229612586,0,0,0,1,25,85,1,1,17,69745,blockP,180,2022-02-11_18h29.39.998,orientation adjustment blockP,2021.2.3,MacIntel,60.0024001,,,,,,,
,,,,,,,,,,,,,,,,,,,,,,-63.88888889,-51,20,75,-219.8888889,11.11111111,4.444444444,0.356802048,-0.298493686,1,0,0,0.5504,submitButton,8.771450617,-0.443038313,-0.201827376,0,0,0,1,26,86,35,1,51,69745,blockP,180,2022-02-11_18h29.39.998,orientation adjustment blockP,2021.2.3,MacIntel,60.0024001,,,,,,,
,,,,,,,,,,,,,,,,,,,,,,57.22222222,29,20,75,58.22222222,29.22222222,18.99444444,0.186942601,-0.277762914,1,0,0,0.2331,submitButton,8.911491629,-0.080666738,-0.200578803,0,0,0,1,27,87,13,1,29,69745,blockP,180,2022-02-11_18h29.39.998,orientation adjustment blockP,2021.2.3,MacIntel,60.0024001,,,,,,,
,,,,,,,,,,,,,,,,,,,,,,-60.55555556,47,20,75,40.44444444,6.555555556,2.622222222,0.223802262,-0.298199379,1,0,0,0.6662,submitButton,8.826501502,-0.15388663,-0.216114619,0,0,0,1,28,88,31,1,47,69745,blockP,180,2022-02-11_18h29.39.998,orientation adjustment blockP,2021.2.3,MacIntel,60.0024001,,,,,,,
,,,,,,,,,,,,,,,,,,,,,,65,40,20,75,215,5,2,0.338354381,-0.288224172,1,0,0,3.383,submitButton,8.735481481,0.351201306,-0.402464148,1,0,0,1,29,89,24,1,40,69745,blockP,180,2022-02-11_18h29.39.998,orientation adjustment blockP,2021.2.3,MacIntel,60.0024001,continueButton,,,,,,
,,,,,,,,,,,,,,,,,,,,,,66.66666667,42,20,75,215.6666667,6.333333333,2.533333333,-0.222433291,-0.448964576,1,0,0,2.283,submitButton,8.653874269,-0.240448416,-0.286119435,0,0,0,1,30,90,26,1,42,69745,blockP,180,2022-02-11_18h29.39.998,orientation adjustment blockP,2021.2.3,MacIntel,60.0024001,,,,,,,
,,,,,,,,,,,,,,,,,,,,,,45.55555556,-69,20,75,-55.44444444,13.55555556,5.422222222,0.354759739,-0.303447845,1,0,0,0.2827,submitButton,8.611904762,-0.055775542,-0.351861266,0,0,0,1,31,91,53,1,69,69745,blockP,180,2022-02-11_18h29.39.998,orientation adjustment blockP,2021.2.3,MacIntel,60.0024001,,,,,,,
,,,,,,,,,,,,,,,,,,,,,,-73.88888889,-18,20,75,-31.88888889,13.88888889,5.555555556,0.222963934,-0.309048587,1,0,0,0.4667,submitButton,8.572720798,-0.476027397,-0.238700414,0,0,0,1,32,92,2,1,18,69745,blockP,180,2022-02-11_18h29.39.998,orientation adjustment blockP,2021.2.3,MacIntel,60.0024001,,,,,,,
,,,,,,,,,,,,,,,,,,,,,,27.22222222,-63,20,75,-57.77777778,5.222222222,2.088888889,0.452268836,-0.2890625,1,0,0,0.449,submitButton,8.490646976,0.084778111,-0.322100635,0,0,0,1,33,93,47,1,63,69745,blockP,180,2022-02-11_18h29.39.998,orientation adjustment blockP,2021.2.3,MacIntel,60.0024001,,,,,,,
,,,,,,,,,,,,,,,,,,,,,,-48.88888889,-57,20,75,-59.88888889,2.888888889,1.155555556,0.378366688,-0.299002033,1,0,0,0.2329,submitButton,8.398958333,-0.12742134,-0.353613727,0,0,0,1,34,94,41,1,57,69745,blockP,180,2022-02-11_18h29.39.998,orientation adjustment blockP,2021.2.3,MacIntel,60.0024001,,,,,,,
,,,,,,,,,,,,,,,,,,,,,,33.33333333,31,20,75,42.33333333,11.33333333,4.533333333,0.462774686,-0.299452412,1,0,0,1.4497,submitButton,8.351234568,-0.240185324,-0.103747503,0,0,0,1,35,95,15,1,31,69745,blockP,180,2022-02-11_18h29.39.998,orientation adjustment blockP,2021.2.3,MacIntel,60.0024001,,,,,,,
,,,,,,,,,,,,,,,,,,,,,,-73.88888889,68,20,75,46.11111111,21.88888889,14.22777778,0.220984054,-0.286106057,1,0,0,0.5329,submitButton,8.422899729,-0.067298088,-0.211798124,0,0,0,1,36,96,52,1,68,69745,blockP,180,2022-02-11_18h29.39.998,orientation adjustment blockP,2021.2.3,MacIntel,60.0024001,,,,,,,
,,,,,,,,,,,,,,,,,,,,,,-52.77777778,-64,20,75,-58.77777778,5.222222222,2.088888889,-0.201541988,-0.394161137,1,0,0,1.3496,submitButton,8.346586345,-0.12967769,-0.204725849,0,0,0,1,37,97,48,1,64,69745,blockP,180,2022-02-11_18h29.39.998,orientation adjustment blockP,2021.2.3,MacIntel,60.0024001,,,,,,,
,,,,,,,,,,,,,,,,,,,,,,73.33333333,-32,20,75,-38.66666667,6.666666667,2.666666667,-0.29082388,-0.422133633,1,0,0,2.3668,submitButton,8.278968254,-0.168878425,-0.242923266,0,0,0,1,38,98,16,1,32,69745,blockP,180,2022-02-11_18h29.39.998,orientation adjustment blockP,2021.2.3,MacIntel,60.0024001,,,,,,,
,,,,,,,,,,,,,,,,,,,,,,61.11111111,-56,20,75,-42.88888889,13.11111111,5.244444444,0.36074843,-0.299777932,1,0,0,0.4673,submitButton,8.243267974,0.064680544,-0.227490011,0,0,0,1,39,99,40,1,56,69745,blockP,180,2022-02-11_18h29.39.998,orientation adjustment blockP,2021.2.3,MacIntel,60.0024001,,,,,,,
,,,,,,,,,,,,,,,,,,,,,,43.33333333,62,20,75,230.3333333,11.66666667,4.666666667,0.183691852,-0.316192209,1,0,0,2.0165,submitButton,8.201679587,-0.041408034,-0.224587079,0,0,0,1,40,100,46,1,62,69745,blockP,180,2022-02-11_18h29.39.998,orientation adjustment blockP,2021.2.3,MacIntel,60.0024001,,,,,,,
,,,,,,,,,,,,,,,,,,,,,,-57.77777778,-44,20,75,-235.7777778,11.77777778,4.711111111,-0.545519406,-0.425023188,1,0,0,3.3985,submitButton,8.16155811,-0.17291845,-0.160160709,0,0,0,1,41,101,28,1,44,69745,blockP,180,2022-02-11_18h29.39.998,orientation adjustment blockP,2021.2.3,MacIntel,60.0024001,,,,,,,
,,,,,,,,,,,,,,,,,,,,,,74.44444444,-23,20,75,-47.55555556,24.55555556,15.96111111,0.389099957,-0.301971854,1,0,0,0.2155,submitButton,8.250189394,-0.17126855,-0.248541845,0,0,0,1,42,102,7,1,23,69745,blockP,180,2022-02-11_18h29.39.998,orientation adjustment blockP,2021.2.3,MacIntel,60.0024001,,,,,,,
,,,,,,,,,,,,,,,,,,,,,,-43.33333333,-50,20,75,-51.33333333,1.333333333,0.533333333,-0.237995862,-0.395993864,1,0,0,1.2166,submitButton,8.163483146,-0.11289776,-0.256073416,0,0,0,1,43,103,34,1,50,69745,blockP,180,2022-02-11_18h29.39.998,orientation adjustment blockP,2021.2.3,MacIntel,60.0024001,,,,,,,
,,,,,,,,,,,,,,,,,,,,,,30.55555556,75,20,75,236.5555556,18.44444444,11.98888889,-0.115778396,-0.400207798,1,0,0,2.6675,submitButton,8.205987654,0.347246005,-0.403083975,1,0,0,1,44,104,59,1,75,69745,blockP,180,2022-02-11_18h29.39.998,orientation adjustment blockP,2021.2.3,MacIntel,60.0024001,continueButton,,,,,,
,,,,,,,,,,,,,,,,,,,,,,40,-30,20,75,-34,4,1.6,0.4720498,-0.333319956,1,0,0,0.1822,submitButton,8.133394383,-0.059053047,-0.302457905,0,0,0,1,45,105,14,1,30,69745,blockP,180,2022-02-11_18h29.39.998,orientation adjustment blockP,2021.2.3,MacIntel,60.0024001,,,,,,,
,,,,,,,,,,,,,,,,,,,,,,50,71,20,75,59,12,4.8,0.374812714,-0.312767551,1,0,0,0.1164,submitButton,8.097161836,-0.10244096,-0.330385809,0,0,0,1,46,106,55,1,71,69745,blockP,180,2022-02-11_18h29.39.998,orientation adjustment blockP,2021.2.3,MacIntel,60.0024001,,,,,,,
,,,,,,,,,,,,,,,,,,,,,,50.55555556,-46,20,75,-31.44444444,14.55555556,5.822222222,0.427074415,-0.312214612,1,0,0,0.4663,submitButton,8.072700119,-0.170358876,-0.355437536,0,0,0,1,47,107,30,1,46,69745,blockP,180,2022-02-11_18h29.39.998,orientation adjustment blockP,2021.2.3,MacIntel,60.0024001,,,,,,,
,,,,,,,,,,,,,,,,,,,,,,-48.33333333,-33,20,75,-52.33333333,19.33333333,12.56666667,0.120291096,-0.29599654,1,0,0,0.5332,submitButton,8.120508274,-0.070513164,-0.266512379,0,0,0,1,48,108,17,1,33,69745,blockP,180,2022-02-11_18h29.39.998,orientation adjustment blockP,2021.2.3,MacIntel,60.0024001,,,,,,,
,,,,,,,,,,,,,,,,,,,,,,-22.77777778,-73,20,75,-71.77777778,1.222222222,0.488888889,0.182184646,-0.316878924,1,0,0,0.7337,submitButton,8.040175439,-0.091078945,-0.326876427,0,0,0,1,49,109,57,1,73,69745,blockP,180,2022-02-11_18h29.39.998,orientation adjustment blockP,2021.2.3,MacIntel,60.0024001,,,,,,,
,,,,,,,,,,,,,,,,,,,,,,40.55555556,41,20,75,68.55555556,27.55555556,17.91111111,0.413478346,-0.311947061,1,0,0,0.1162,submitButton,8.142997685,-0.206304402,-0.40812286,0,0,0,1,50,110,25,1,41,69745,blockP,180,2022-02-11_18h29.39.998,orientation adjustment blockP,2021.2.3,MacIntel,60.0024001,,,,,,,
,,,,,,,,,,,,,,,,,,,,,,45.55555556,66,20,75,53.55555556,12.44444444,4.977777778,0.377064605,-0.326171875,1,0,0,0.416,submitButton,8.110366552,-0.800647474,-0.499977704,0,0,0,1,51,111,50,1,66,69745,blockP,180,2022-02-11_18h29.39.998,orientation adjustment blockP,2021.2.3,MacIntel,60.0024001,,,,,,,
,,,,,,,,,,,,,,,,,,,,,,45.55555556,27,20,75,32.55555556,5.555555556,2.222222222,0.420621968,-0.298716645,1,0,0,0.434,submitButton,8.050283447,-0.100193529,-0.309739762,0,0,0,1,52,112,11,1,27,69745,blockP,180,2022-02-11_18h29.39.998,orientation adjustment blockP,2021.2.3,MacIntel,60.0024001,,,,,,,
,,,,,,,,,,,,,,,,,,,,,,32.22222222,21,20,75,19.22222222,1.777777778,0.711111111,0.392029645,-0.29153735,1,0,0,0.3821,submitButton,7.976150393,-0.203272153,-0.337574023,0,0,0,1,53,113,5,1,21,69745,blockP,180,2022-02-11_18h29.39.998,orientation adjustment blockP,2021.2.3,MacIntel,60.0024001,,,,,,,
,,,,,,,,,,,,,,,,,,,,,,-66.11111111,36,20,75,31.88888889,4.111111111,1.644444444,0.118939961,-0.305686358,1,0,0,0.5167,submitButton,7.912833333,-0.060314997,-0.355143229,0,0,0,1,54,114,20,1,36,69745,blockP,180,2022-02-11_18h29.39.998,orientation adjustment blockP,2021.2.3,MacIntel,60.0024001,,,,,,,
,,,,,,,,,,,,,,,,,,,,,,-26.11111111,72,20,75,60.88888889,11.11111111,4.444444444,0.166671126,-0.303407713,1,0,0,0.2169,submitButton,7.878492849,-0.238365975,-0.454908676,0,0,0,1,55,115,56,1,72,69745,blockP,180,2022-02-11_18h29.39.998,orientation adjustment blockP,2021.2.3,MacIntel,60.0024001,,,,,,,
,,,,,,,,,,,,,,,,,,,,,,21.11111111,-61,20,75,-39.88888889,21.11111111,13.72222222,-0.131220569,-0.398223459,1,0,0,1.1321,submitButton,7.935784314,-0.131220569,-0.398223459,0,0,0,1,56,116,45,1,61,69745,blockP,180,2022-02-11_18h29.39.998,orientation adjustment blockP,2021.2.3,MacIntel,60.0024001,,,,,,,
,,,,,,,,,,,,,,,,,,,,,,-35.55555556,-24,20,75,-33.55555556,9.555555556,3.822222222,0.440585759,-0.287461651,1,0,0,0.0163,submitButton,7.895846818,-0.228439819,-0.41307256,0,0,0,1,57,117,8,1,24,69745,blockP,180,2022-02-11_18h29.39.998,orientation adjustment blockP,2021.2.3,MacIntel,60.0024001,,,,,,,
,,,,,,,,,,,,,,,,,,,,,,-71.11111111,39,20,75,41.88888889,2.888888889,1.155555556,-0.175513699,-0.383499215,1,0,0,1.4501,submitButton,7.831036325,-0.17413135,-0.381532713,0,0,0,1,58,118,23,1,39,69745,blockP,180,2022-02-11_18h29.39.998,orientation adjustment blockP,2021.2.3,MacIntel,60.0024001,,,,,,,
,,,,,,,,,,,,,,,,,,,,,,32.77777778,-26,20,75,-33.22222222,7.222222222,2.888888889,0.416697881,-0.314774187,1,0,0,0.5663,submitButton,7.783968254,0.224466681,-0.393880208,1,0,0,1,59,119,10,1,26,69745,blockP,180,2022-02-11_18h29.39.998,orientation adjustment blockP,2021.2.3,MacIntel,60.0024001,continueButton,,,,,,
,,,,,,,,,,,,,,,,,,,,,,26.66666667,70,20,75,235.6666667,14.33333333,5.733333333,0.244256564,-0.287546376,1,0,0,0.0166,submitButton,7.764622642,-0.038830622,-0.264242651,0,0,0,2,0,120,54,1,70,69745,blockP,180,2022-02-11_18h29.39.998,orientation adjustment blockP,2021.2.3,MacIntel,60.0024001,,,,,,,
,,,,,,,,,,,,,,,,,,,,,,-31.66666667,72,20,75,57.33333333,14.66666667,5.866666667,-0.155103988,-0.361270156,1,0,0,0.6159,submitButton,7.746884735,-0.072671411,-0.33026987,0,0,0,2,1,121,56,1,72,69745,blockP,180,2022-02-11_18h29.39.998,orientation adjustment blockP,2021.2.3,MacIntel,60.0024001,,,,,,,
,,,,,,,,,,,,,,,,,,,,,,-60.55555556,-32,20,75,-230.5555556,18.55555556,12.06111111,0.373443743,-0.302685324,1,0,0,2.0839,submitButton,7.786831276,-0.049394442,-0.269722995,0,0,0,2,2,122,16,1,32,69745,blockP,180,2022-02-11_18h29.39.998,orientation adjustment blockP,2021.2.3,MacIntel,60.0024001,,,,,,,
,,,,,,,,,,,,,,,,,,,,,,-23.88888889,-48,20,75,-48.88888889,0.888888889,0.355555556,0.204422624,-0.308807791,1,0,0,0.2664,submitButton,7.718654434,-0.174117972,-0.219213756,0,0,0,2,3,123,32,1,48,69745,blockP,180,2022-02-11_18h29.39.998,orientation adjustment blockP,2021.2.3,MacIntel,60.0024001,,,,,,,
,,,,,,,,,,,,,,,,,,,,,,55,68,20,75,230,18,11.7,0.206375749,-0.271934753,1,0,0,1.5334,submitButton,7.754848485,-0.150274686,-0.212252961,0,0,0,2,4,124,52,1,68,69745,blockP,180,2022-02-11_18h29.39.998,orientation adjustment blockP,2021.2.3,MacIntel,60.0024001,,,,,,,
,,,,,,,,,,,,,,,,,,,,,,-37.77777778,46,20,75,50.22222222,4.222222222,1.688888889,0.19003282,-0.275809789,1,0,0,0.1996,submitButton,7.7002002,-0.011656321,-0.192266874,0,0,0,2,5,125,30,1,46,69745,blockP,180,2022-02-11_18h29.39.998,orientation adjustment blockP,2021.2.3,MacIntel,60.0024001,,,,,,,
,,,,,,,,,,,,,,,,,,,,,,44.44444444,-31,20,75,-48.55555556,17.55555556,11.41111111,-0.222094392,-0.40999126,1,0,0,0.9996,submitButton,7.733333333,-0.262909354,-0.256398937,0,0,0,2,6,126,15,1,31,69745,blockP,180,2022-02-11_18h29.39.998,orientation adjustment blockP,2021.2.3,MacIntel,60.0024001,,,,,,,
,,,,,,,,,,,,,,,,,,,,,,32.22222222,-44,20,75,-21.77777778,22.22222222,14.44444444,0.397844428,-0.303608376,1,0,0,0.2488,submitButton,7.792723697,-0.435123252,-0.367691388,0,0,0,2,7,127,28,1,44,69745,blockP,180,2022-02-11_18h29.39.998,orientation adjustment blockP,2021.2.3,MacIntel,60.0024001,,,,,,,
,,,,,,,,,,,,,,,,,,,,,,-56.66666667,18,20,75,35.33333333,17.33333333,11.26666667,-0.237340361,-0.373581978,1,0,0,1.3671,submitButton,7.823196881,-0.167808219,-0.252644299,0,0,0,2,8,128,2,1,18,69745,blockP,180,2022-02-11_18h29.39.998,orientation adjustment blockP,2021.2.3,MacIntel,60.0024001,,,,,,,
,,,,,,,,,,,,,,,,,,,,,,-71.66666667,-54,20,75,-223.6666667,10.33333333,4.133333333,0.379468108,-0.292665525,1,0,0,0.3495,submitButton,7.791111111,-0.018461045,-0.165079195,0,0,0,2,9,129,38,1,54,69745,blockP,180,2022-02-11_18h29.39.998,orientation adjustment blockP,2021.2.3,MacIntel,60.0024001,,,,,,,
,,,,,,,,,,,,,,,,,,,,,,-37.22222222,-28,20,75,-42.22222222,14.22222222,5.688888889,0.185983876,-0.298952982,1,0,0,0.4666,submitButton,7.772988506,-0.082312179,0.036489548,0,0,0,2,10,130,12,1,28,69745,blockP,180,2022-02-11_18h29.39.998,orientation adjustment blockP,2021.2.3,MacIntel,60.0024001,,,,,,,
,,,,,,,,,,,,,,,,,,,,,,23.88888889,73,20,75,62.88888889,10.11111111,4.044444444,0.383766767,-0.303247182,1,0,0,0.2161,submitButton,7.741120608,0.195655858,-0.109522153,0,0,0,2,11,131,57,1,73,69745,blockP,180,2022-02-11_18h29.39.998,orientation adjustment blockP,2021.2.3,MacIntel,60.0024001,,,,,,,
,,,,,,,,,,,,,,,,,,,,,,40.55555556,-75,20,75,-50.44444444,24.55555556,15.96111111,0.336882848,-0.296973102,1,0,0,0.383,submitButton,7.810781544,0.109673766,-0.122369078,0,0,0,2,12,132,59,1,75,69745,blockP,180,2022-02-11_18h29.39.998,orientation adjustment blockP,2021.2.3,MacIntel,60.0024001,,,,,,,
,,,,,,,,,,,,,,,,,,,,,,-25,-26,20,75,-39,13,5.2,0.418049015,-0.306520227,1,0,0,0.3325,submitButton,7.788842204,0.050188178,-0.263390946,0,0,0,2,13,133,10,1,26,69745,blockP,180,2022-02-11_18h29.39.998,orientation adjustment blockP,2021.2.3,MacIntel,60.0024001,,,,,,,
,,,,,,,,,,,,,,,,,,,,,,31.11111111,63,20,75,230.1111111,12.88888889,5.155555556,0.224783283,-0.302038741,1,0,0,2.1664,submitButton,7.766898148,0.310854559,-0.403284639,1,0,0,2,14,134,47,1,63,69745,blockP,180,2022-02-11_18h29.39.998,orientation adjustment blockP,2021.2.3,MacIntel,60.0024001,continueButton,,,,,,
,,,,,,,,,,,,,,,,,,,,,,-73.33333333,-16,20,75,-201.3333333,5.333333333,2.133333333,0.245201912,-0.313565746,1,0,0,2.6162,submitButton,7.720339761,0.004316495,-0.225180151,0,0,0,2,15,135,0,1,16,69745,blockP,180,2022-02-11_18h29.39.998,orientation adjustment blockP,2021.2.3,MacIntel,60.0024001,,,,,,,
,,,,,,,,,,,,,,,,,,,,,,22.77777778,-38,20,75,-20.22222222,17.77777778,11.55555556,0.334180579,-0.29736997,1,0,0,0.5001,submitButton,7.751775956,0.117945562,-0.178800121,0,0,0,2,16,136,22,1,38,69745,blockP,180,2022-02-11_18h29.39.998,orientation adjustment blockP,2021.2.3,MacIntel,60.0024001,,,,,,,
,,,,,,,,,,,,,,,,,,,,,,43.88888889,57,20,75,52.88888889,4.111111111,1.644444444,0.223088791,-0.305797838,1,0,0,0.7995,submitButton,7.702122855,-0.076448345,-0.228221318,0,0,0,2,17,137,41,1,57,69745,blockP,180,2022-02-11_18h29.39.998,orientation adjustment blockP,2021.2.3,MacIntel,60.0024001,,,,,,,
,,,,,,,,,,,,,,,,,,,,,,-27.22222222,-50,20,75,-50.22222222,0.222222222,0.088888889,0.373069171,-0.305343001,1,0,0,0.1829,submitButton,7.640725806,0.059900293,-0.174122432,0,0,0,2,18,138,34,1,50,69745,blockP,180,2022-02-11_18h29.39.998,orientation adjustment blockP,2021.2.3,MacIntel,60.0024001,,,,,,,
,,,,,,,,,,,,,,,,,,,,,,40,39,20,75,53,14,5.6,0.429335224,-0.278859874,1,0,0,0.417,submitButton,7.6244,-0.062384061,-0.198919984,0,0,0,2,19,139,23,1,39,69745,blockP,180,2022-02-11_18h29.39.998,orientation adjustment blockP,2021.2.3,MacIntel,60.0024001,,,,,,,
,,,,,,,,,,,,,,,,,,,,,,-37.22222222,74,20,75,54.77777778,19.22222222,12.49444444,0.208181721,-0.310867937,1,0,0,0.5334,submitButton,7.663051146,0.083270905,-0.172022153,0,0,0,2,20,140,58,1,74,69745,blockP,180,2022-02-11_18h29.39.998,orientation adjustment blockP,2021.2.3,MacIntel,60.0024001,,,,,,,
,,,,,,,,,,,,,,,,,,,,,,60,-30,20,75,-47,17,11.05,-0.200351384,-0.399200021,1,0,0,1.8167,submitButton,7.689720035,-0.063222389,-0.116772795,0,0,0,2,21,141,14,1,30,69745,blockP,180,2022-02-11_18h29.39.998,orientation adjustment blockP,2021.2.3,MacIntel,60.0024001,,,,,,,
,,,,,,,,,,,,,,,,,,,,,,66.66666667,36,20,75,43.66666667,7.666666667,3.066666667,0.266084297,-0.296701092,1,0,0,0.0169,submitButton,7.653602431,-0.019459903,-0.094864797,0,0,0,2,22,142,20,1,36,69745,blockP,180,2022-02-11_18h29.39.998,orientation adjustment blockP,2021.2.3,MacIntel,60.0024001,,,,,,,
,,,,,,,,,,,,,,,,,,,,,,-57.77777778,-51,20,75,-59.77777778,8.777777778,3.511111111,0.22667398,-0.284603311,1,0,0,0.7175,submitButton,7.621490095,-0.108790846,-0.30320259,0,0,0,2,23,143,35,1,51,69745,blockP,180,2022-02-11_18h29.39.998,orientation adjustment blockP,2021.2.3,MacIntel,60.0024001,,,,,,,
,,,,,,,,,,,,,,,,,,,,,,-57.22222222,43,20,75,49.77777778,6.777777778,2.711111111,0.21203892,-0.308562536,1,0,0,1.0003,submitButton,7.583717949,0.019228025,-0.186853418,0,0,0,2,24,144,27,1,43,69745,blockP,180,2022-02-11_18h29.39.998,orientation adjustment blockP,2021.2.3,MacIntel,60.0024001,,,,,,,
,,,,,,,,,,,,,,,,,,,,,,-59.44444444,17,20,75,-131.4444444,31.55555556,25.24444444,0.344824665,-0.297445776,1,0,0,0.1002,submitButton,7.718532655,-0.114369292,-0.216707691,0,0,0,2,25,145,1,1,17,69745,blockP,180,2022-02-11_18h29.39.998,orientation adjustment blockP,2021.2.3,MacIntel,60.0024001,,,,,,,
,,,,,,,,,,,,,,,,,,,,,,-48.33333333,33,20,75,41.66666667,8.666666667,3.466666667,0.203428225,-0.289334511,1,0,0,0.6999,submitButton,7.686321549,-0.170858305,-0.157708155,0,0,0,2,26,146,17,1,33,69745,blockP,180,2022-02-11_18h29.39.998,orientation adjustment blockP,2021.2.3,MacIntel,60.0024001,,,,,,,
,,,,,,,,,,,,,,,,,,,,,,-72.77777778,24,20,75,46.22222222,22.22222222,14.44444444,-0.238571097,-0.429861408,1,0,0,1.8158,submitButton,7.737134503,-0.135247217,-0.223213649,0,0,0,2,27,147,8,1,24,69745,blockP,180,2022-02-11_18h29.39.998,orientation adjustment blockP,2021.2.3,MacIntel,60.0024001,,,,,,,
,,,,,,,,,,,,,,,,,,,,,,24.44444444,-58,20,75,-52.55555556,5.444444444,2.177777778,0.36493115,-0.30848227,1,0,0,0.5334,submitButton,7.695646766,-0.275261309,-0.325070455,0,0,0,2,28,148,42,1,58,69745,blockP,180,2022-02-11_18h29.39.998,orientation adjustment blockP,2021.2.3,MacIntel,60.0024001,,,,,,,
,,,,,,,,,,,,,,,,,,,,,,-23.88888889,49,20,75,40.11111111,8.888888889,3.555555556,0.212846033,-0.300317494,1,0,0,0.1668,submitButton,7.664979424,0.229175585,-0.393336187,1,0,0,2,29,149,33,1,49,69745,blockP,180,2022-02-11_18h29.39.998,orientation adjustment blockP,2021.2.3,MacIntel,60.0024001,continueButton,,,,,,
,,,,,,,,,,,,,,,,,,,,,,40.55555556,55,20,75,233.5555556,1.444444444,0.577777778,-0.316192209,-0.405224386,1,0,0,2.616,submitButton,7.612867647,0.293972068,0.080363513,0,0,0,2,30,150,39,1,55,69745,blockP,180,2022-02-11_18h29.39.998,orientation adjustment blockP,2021.2.3,MacIntel,60.0024001,,,,,,,
,,,,,,,,,,,,,,,,,,,,,,23.88888889,47,20,75,50.88888889,3.888888889,1.555555556,0.177029823,-0.30947667,1,0,0,1.3997,submitButton,7.56865369,-0.028097353,0.002104737,0,0,0,2,31,151,31,1,47,69745,blockP,180,2022-02-11_18h29.39.998,orientation adjustment blockP,2021.2.3,MacIntel,60.0024001,,,,,,,
,,,,,,,,,,,,,,,,,,,,,,-28.33333333,23,20,75,32.66666667,9.666666667,3.866666667,0.234111908,-0.299581728,1,0,0,0.3163,submitButton,7.541827697,-0.14095498,-0.033555401,0,0,0,2,32,152,7,1,23,69745,blockP,180,2022-02-11_18h29.39.998,orientation adjustment blockP,2021.2.3,MacIntel,60.0024001,,,,,,,
,,,,,,,,,,,,,,,,,,,,,,20,-53,20,75,-40,13,5.2,-0.199058219,-0.400733983,1,0,0,0.8669,submitButton,7.524980016,0.100652825,-0.296460295,0,0,0,2,33,153,37,1,53,69745,blockP,180,2022-02-11_18h29.39.998,orientation adjustment blockP,2021.2.3,MacIntel,60.0024001,,,,,,,
,,,,,,,,,,,,,,,,,,,,,,-24.44444444,-61,20,75,-57.44444444,3.555555556,1.422222222,-0.281820776,-0.404836437,1,0,0,1.1501,submitButton,7.481388889,-0.111042737,-0.194242295,0,0,0,2,34,154,45,1,61,69745,blockP,180,2022-02-11_18h29.39.998,orientation adjustment blockP,2021.2.3,MacIntel,60.0024001,,,,,,,
,,,,,,,,,,,,,,,,,,,,,,43.88888889,-25,20,75,-36.11111111,11.11111111,4.444444444,0.390014091,-0.283385952,1,0,0,0.7838,submitButton,7.459850276,-0.156352561,-0.365733804,0,0,0,2,35,155,9,1,25,69745,blockP,180,2022-02-11_18h29.39.998,orientation adjustment blockP,2021.2.3,MacIntel,60.0024001,,,,,,,
,,,,,,,,,,,,,,,,,,,,,,62.22222222,-22,20,75,-49.77777778,27.77777778,18.05555556,0.408586615,-0.312722959,1,0,0,0.4995,submitButton,7.534467919,-0.023700592,-0.255814783,0,0,0,2,36,156,6,1,22,69745,blockP,180,2022-02-11_18h29.39.998,orientation adjustment blockP,2021.2.3,MacIntel,60.0024001,,,,,,,
,,,,,,,,,,,,,,,,,,,,,,-51.66666667,-37,20,75,-57.66666667,20.66666667,13.43333333,-0.088118044,-0.391739797,1,0,0,1.3993,submitButton,7.575718726,0.027602383,-0.267252604,0,0,0,2,37,157,21,1,37,69745,blockP,180,2022-02-11_18h29.39.998,orientation adjustment blockP,2021.2.3,MacIntel,60.0024001,,,,,,,
,,,,,,,,,,,,,,,,,,,,,,73.33333333,-40,20,75,-45.66666667,5.666666667,2.266666667,0.449464005,-0.322769513,1,0,0,0.5335,submitButton,7.538850309,0.10084457,-0.279510916,0,0,0,2,38,158,24,1,40,69745,blockP,180,2022-02-11_18h29.39.998,orientation adjustment blockP,2021.2.3,MacIntel,60.0024001,,,,,,,
,,,,,,,,,,,,,,,,,,,,,,-33.88888889,64,20,75,45.11111111,18.88888889,12.27777778,-0.160735945,-0.383080051,1,0,0,0.683,submitButton,7.571532567,0.054130101,-0.271114262,0,0,0,2,39,159,48,1,64,69745,blockP,180,2022-02-11_18h29.39.998,orientation adjustment blockP,2021.2.3,MacIntel,60.0024001,,,,,,,
,,,,,,,,,,,,,,,,,,,,,,-73.88888889,-41,20,75,-55.88888889,14.88888889,5.955555556,0.203325664,-0.319777397,1,0,0,0.2162,submitButton,7.560464231,0.057514626,-0.248309967,0,0,0,2,40,160,25,1,41,69745,blockP,180,2022-02-11_18h29.39.998,orientation adjustment blockP,2021.2.3,MacIntel,60.0024001,,,,,,,
,,,,,,,,,,,,,,,,,,,,,,32.22222222,-29,20,75,-31.77777778,2.777777778,1.111111111,0.361056114,-0.314890126,1,0,0,0.5837,submitButton,7.516591081,-0.009921697,-0.233706122,0,0,0,2,41,161,13,1,29,69745,blockP,180,2022-02-11_18h29.39.998,orientation adjustment blockP,2021.2.3,MacIntel,60.0024001,,,,,,,
,,,,,,,,,,,,,,,,,,,,,,-54.44444444,65,20,75,48.55555556,16.44444444,10.68888889,0.158292309,-0.306515768,1,0,0,0.2663,submitButton,7.538025526,0.176093393,-0.264643978,0,0,0,2,42,162,49,1,65,69745,blockP,180,2022-02-11_18h29.39.998,orientation adjustment blockP,2021.2.3,MacIntel,60.0024001,,,,,,,
,,,,,,,,,,,,,,,,,,,,,,45.55555556,67,20,75,247.5555556,0.555555556,0.222222222,-0.128009953,-0.386446739,1,0,0,2.5332,submitButton,7.488926174,0.037417059,-0.242450592,0,0,0,2,43,163,51,1,67,69745,blockP,180,2022-02-11_18h29.39.998,orientation adjustment blockP,2021.2.3,MacIntel,60.0024001,,,,,,,
,,,,,,,,,,,,,,,,,,,,,,-21.11111111,-56,20,75,-60.11111111,4.111111111,1.644444444,0.167812678,-0.318720569,1,0,0,0.5174,submitButton,7.449962963,0.236858769,-0.404060538,1,0,0,2,44,164,40,1,56,69745,blockP,180,2022-02-11_18h29.39.998,orientation adjustment blockP,2021.2.3,MacIntel,60.0024001,continueButton,,,,,,
,,,,,,,,,,,,,,,,,,,,,,24.44444444,-27,20,75,-21.55555556,5.444444444,2.177777778,0.383066674,-0.314760809,1,0,0,0.5506,submitButton,7.415047829,0.133722175,-0.295403467,0,0,0,2,45,165,11,1,27,69745,blockP,180,2022-02-11_18h29.39.998,orientation adjustment blockP,2021.2.3,MacIntel,60.0024001,,,,,,,
,,,,,,,,,,,,,,,,,,,,,,74.44444444,-52,20,75,-31.55555556,20.44444444,13.28888889,0.172231735,-0.293436965,1,0,0,1.4995,submitButton,7.45369152,0.161743721,-0.246231985,0,0,0,2,46,166,36,1,52,69745,blockP,180,2022-02-11_18h29.39.998,orientation adjustment blockP,2021.2.3,MacIntel,60.0024001,,,,,,,
,,,,,,,,,,,,,,,,,,,,,,65,66,20,75,226,20,13,0.207218536,-0.298168165,1,0,0,1.2506,submitButton,7.489941903,0.065166595,-0.268278218,0,0,0,2,47,167,50,1,66,69745,blockP,180,2022-02-11_18h29.39.998,orientation adjustment blockP,2021.2.3,MacIntel,60.0024001,,,,,,,
,,,,,,,,,,,,,,,,,,,,,,-45,60,20,75,56,4,1.6,0.163491724,-0.285258811,1,0,0,0.1336,submitButton,7.451695527,0.043615332,-0.282199807,0,0,0,2,48,168,44,1,60,69745,blockP,180,2022-02-11_18h29.39.998,orientation adjustment blockP,2021.2.3,MacIntel,60.0024001,,,,,,,
,,,,,,,,,,,,,,,,,,,,,,-46.66666667,-21,20,75,-25.66666667,4.666666667,1.866666667,0.171041132,-0.299483626,1,0,0,0.3663,submitButton,7.415663082,0.012106699,-0.297414562,0,0,0,2,49,169,5,1,21,69745,blockP,180,2022-02-11_18h29.39.998,orientation adjustment blockP,2021.2.3,MacIntel,60.0024001,,,,,,,
,,,,,,,,,,,,,,,,,,,,,,47.22222222,71,20,75,247.2222222,3.777777778,1.511111111,0.144379638,-0.308040811,1,0,0,1.6163,submitButton,7.37781339,0.071913349,-0.317851027,0,0,0,2,50,170,55,1,71,69745,blockP,180,2022-02-11_18h29.39.998,orientation adjustment blockP,2021.2.3,MacIntel,60.0024001,,,,,,,
,,,,,,,,,,,,,,,,,,,,,,-63.88888889,20,20,75,52.11111111,32.11111111,25.68888889,0.175433433,-0.307041952,1,0,0,1.1988,submitButton,7.494444444,0.05396957,-0.291586401,0,0,0,2,51,171,4,1,20,69745,blockP,180,2022-02-11_18h29.39.998,orientation adjustment blockP,2021.2.3,MacIntel,60.0024001,,,,,,,
,,,,,,,,,,,,,,,,,,,,,,-49.44444444,-34,20,75,-71.44444444,37.44444444,29.95555556,0.243596604,-0.300674229,1,0,0,0.2153,submitButton,7.636603376,-0.198273402,-0.268996147,0,0,0,2,52,172,18,1,34,69745,blockP,180,2022-02-11_18h29.39.998,orientation adjustment blockP,2021.2.3,MacIntel,60.0024001,,,,,,,
,,,,,,,,,,,,,,,,,,,,,,61.11111111,69,20,75,229.1111111,19.88888889,12.92777778,0.18221586,-0.293436965,1,0,0,1.0833,submitButton,7.669881202,0.055454481,-0.20598334,0,0,0,2,53,173,53,1,69,69745,blockP,180,2022-02-11_18h29.39.998,orientation adjustment blockP,2021.2.3,MacIntel,60.0024001,,,,,,,
,,,,,,,,,,,,,,,,,,,,,,22.22222222,19,20,75,35.22222222,16.22222222,10.54444444,-0.178577162,-0.37813481,1,0,0,0.6332,submitButton,7.687847222,0.028026006,-0.23376855,0,0,0,2,54,174,3,1,19,69745,blockP,180,2022-02-11_18h29.39.998,orientation adjustment blockP,2021.2.3,MacIntel,60.0024001,,,,,,,
,,,,,,,,,,,,,,,,,,,,,,-30,42,20,75,33,9,3.6,-0.194465254,-0.378812607,1,0,0,0.4154,submitButton,7.662456867,-0.009591717,-0.280188713,0,0,0,2,55,175,26,1,42,69745,blockP,180,2022-02-11_18h29.39.998,orientation adjustment blockP,2021.2.3,MacIntel,60.0024001,,,,,,,
,,,,,,,,,,,,,,,,,,,,,,-48.88888889,-59,20,75,-221.8888889,17.11111111,11.12222222,0.34529288,-0.305142337,1,0,0,0.3669,submitButton,7.683813443,-0.088323166,-0.296982021,0,0,0,2,56,176,43,1,59,69745,blockP,180,2022-02-11_18h29.39.998,orientation adjustment blockP,2021.2.3,MacIntel,60.0024001,,,,,,,
,,,,,,,,,,,,,,,,,,,,,,70,45,20,75,230,5,2,-0.372279894,-0.42616474,1,0,0,2.9496,submitButton,7.648943422,-0.255850457,-0.278636915,0,0,0,2,57,177,29,1,45,69745,blockP,180,2022-02-11_18h29.39.998,orientation adjustment blockP,2021.2.3,MacIntel,60.0024001,,,,,,,
,,,,,,,,,,,,,,,,,,,,,,-66.66666667,62,20,75,48.33333333,13.66666667,5.466666667,-0.318359375,-0.402968037,1,0,0,0.8158,submitButton,7.635636856,-0.376551798,-0.227766481,0,0,0,2,58,178,46,1,62,69745,blockP,180,2022-02-11_18h29.39.998,orientation adjustment blockP,2021.2.3,MacIntel,60.0024001,,,,,,,
,,,,,,,,,,,,,,,,,,,,,,-56.11111111,35,20,75,41.88888889,6.888888889,2.755555556,-0.324080515,-0.407783961,1,0,0,1.0664,submitButton,7.606060606,-0.256648652,-0.31068511,0,0,0,2,59,179,19,1,35,69745,blockP,180,2022-02-11_18h29.39.998,orientation adjustment blockP,2021.2.3,MacIntel,60.0024001,,,,,,,
,,,,,,,,,,,,,,,,,,,,,,,,,,,,,,,,,,,,,,,,,,,,,,,,69745,blockP,180,2022-02-11_18h29.39.998,orientation adjustment blockP,2021.2.3,MacIntel,60.0024001,,0.278873252,-0.394187892,1,0,0,EndButtonTxt
