consentMouse1.x,consentMouse1.y,consentMouse1.leftButton,consentMouse1.midButton,consentMouse1.rightButton,consentMouse1.clicked_name,consent_Mouse.x,consent_Mouse.y,consent_Mouse.leftButton,consent_Mouse.midButton,consent_Mouse.rightButton,consent_Mouse.clicked_name,startMouse.x,startMouse.y,startMouse.leftButton,startMouse.midButton,startMouse.rightButton,startMouse_2.x,startMouse_2.y,startMouse_2.leftButton,startMouse_2.midButton,startMouse_2.rightButton,start_distance,fixedOri,minimalDistance,maxOri,this_ori,accuracy,presented_accuracy,submitMouse.x,submitMouse.y,submitMouse.leftButton,submitMouse.midButton,submitMouse.rightButton,submitMouse.time,submitMouse.clicked_name,block_accuracy,continueMouse.x,continueMouse.y,continueMouse.leftButton,continueMouse.midButton,continueMouse.rightButton,trials.thisRepN,trials.thisTrialN,trials.thisN,trials.thisIndex,trials.ran,startOri,participant,condition,nTrials,date,expName,psychopyVersion,OS,frameRate,continueMouse.clicked_name,EndButtonMouse.x,EndButtonMouse.y,EndButtonMouse.leftButton,EndButtonMouse.midButton,EndButtonMouse.rightButton,EndButtonMouse.clicked_name
0.428888889,-0.39,1,0,0,consent_button1,0.418888889,-0.396666667,1,0,0,consent_button,0.418888889,-0.396666667,1,0,0,0.382222222,-0.372222222,1,0,0,53.88888889,-68,20,75,-1.111111111,66.88888889,56.85555556,0.202222222,-0.3,1,0,0,2.531,submitButton,56.85555556,-0.131111111,-0.395555556,0,0,0,0,0,0,52,1,68,69859,blockP,180,2022-02-15_12h04.24.119,orientation adjustment blockP,2021.2.3,MacIntel,62.5,,,,,,,
,,,,,,,,,,,,,,,,,,,,,,37.22222222,56,20,75,183.2222222,52.77777778,44.86111111,0.174444444,-0.311111111,1,0,0,0.082,submitButton,50.85833333,-0.191111111,-0.398888889,0,0,0,0,1,1,40,1,56,69859,blockP,180,2022-02-15_12h04.24.119,orientation adjustment blockP,2021.2.3,MacIntel,62.5,,,,,,,
,,,,,,,,,,,,,,,,,,,,,,59.44444444,-71,20,75,90.44444444,18.55555556,12.06111111,0.201111111,-0.312222222,1,0,0,0.25,submitButton,37.92592593,-0.153333333,-0.404444444,0,0,0,0,2,2,55,1,71,69859,blockP,180,2022-02-15_12h04.24.119,orientation adjustment blockP,2021.2.3,MacIntel,62.5,,,,,,,
,,,,,,,,,,,,,,,,,,,,,,-23.88888889,-73,20,75,-90.88888889,17.88888889,11.62777778,0.177777778,-0.327777778,1,0,0,0.233,submitButton,11.62777778,-0.21,-0.378888889,0,0,0,0,3,3,57,1,73,69859,blockP,180,2022-02-15_12h04.24.119,orientation adjustment blockP,2021.2.3,MacIntel,62.5,,,,,,,
,,,,,,,,,,,,,,,,,,,,,,-59.44444444,-62,20,75,-95.44444444,33.44444444,26.75555556,0.198888889,-0.307777778,1,0,0,0.117,submitButton,19.19166667,0.033333333,-0.308888889,0,0,0,0,4,4,46,1,62,69859,blockP,180,2022-02-15_12h04.24.119,orientation adjustment blockP,2021.2.3,MacIntel,62.5,,,,,,,
,,,,,,,,,,,,,,,,,,,,,,73.88888889,37,20,75,48.88888889,11.88888889,4.755555556,0.383333333,-0.287777778,1,0,0,1.4,submitButton,14.37962963,-0.243333333,-0.414444444,0,0,0,0,5,5,21,1,37,69859,blockP,180,2022-02-15_12h04.24.119,orientation adjustment blockP,2021.2.3,MacIntel,62.5,,,,,,,
,,,,,,,,,,,,,,,,,,,,,,53.88888889,-50,20,75,46.88888889,83.11111111,74.8,0.23,-0.287777778,1,0,0,0.216,submitButton,74.8,0.126666667,-0.143333333,0,0,0,0,6,6,34,1,50,69859,blockP,180,2022-02-15_12h04.24.119,orientation adjustment blockP,2021.2.3,MacIntel,62.5,,,,,,,
,,,,,,,,,,,,,,,,,,,,,,46.66666667,-75,20,75,32.66666667,72.33333333,65.1,0.193333333,-0.274444444,1,0,0,0.017,submitButton,69.95,-0.166666667,-0.408888889,0,0,0,0,7,7,59,1,75,69859,blockP,180,2022-02-15_12h04.24.119,orientation adjustment blockP,2021.2.3,MacIntel,62.5,,,,,,,
,,,,,,,,,,,,,,,,,,,,,,29.44444444,40,20,75,69.44444444,29.44444444,19.13888889,-0.157777778,-0.374444444,1,0,0,0.783,submitButton,53.01296296,0.115555556,-0.317777778,0,0,0,0,8,8,24,1,40,69859,blockP,180,2022-02-15_12h04.24.119,orientation adjustment blockP,2021.2.3,MacIntel,62.5,,,,,,,
,,,,,,,,,,,,,,,,,,,,,,-55,49,20,75,47,2,0.8,0.21,-0.273333333,1,0,0,0.183,submitButton,0.8,-0.107777778,-0.377777778,0,0,0,0,9,9,33,1,49,69859,blockP,180,2022-02-15_12h04.24.119,orientation adjustment blockP,2021.2.3,MacIntel,62.5,,,,,,,
,,,,,,,,,,,,,,,,,,,,,,-41.11111111,-34,20,75,-144.1111111,69.88888889,59.40555556,0.367777778,-0.301111111,1,0,0,0.101,submitButton,30.10277778,-0.25,-0.401111111,0,0,0,0,10,10,18,1,34,69859,blockP,180,2022-02-15_12h04.24.119,orientation adjustment blockP,2021.2.3,MacIntel,62.5,,,,,,,
,,,,,,,,,,,,,,,,,,,,,,38.88888889,-74,20,75,44.88888889,61.11111111,51.94444444,0.172222222,-0.315555556,1,0,0,0.101,submitButton,37.38333333,-0.31,-0.403333333,0,0,0,0,11,11,58,1,74,69859,blockP,180,2022-02-15_12h04.24.119,orientation adjustment blockP,2021.2.3,MacIntel,62.5,,,,,,,
,,,,,,,,,,,,,,,,,,,,,,-67.77777778,61,20,75,-42.77777778,76.22222222,68.6,0.393333333,-0.295555556,1,0,0,0.118,submitButton,68.6,-0.238888889,-0.414444444,0,0,0,0,12,12,45,1,61,69859,blockP,180,2022-02-15_12h04.24.119,orientation adjustment blockP,2021.2.3,MacIntel,62.5,,,,,,,
,,,,,,,,,,,,,,,,,,,,,,-61.11111111,59,20,75,-38.11111111,82.88888889,74.6,0.39,-0.294444444,1,0,0,0.066,submitButton,71.6,-0.148888889,-0.394444444,0,0,0,0,13,13,43,1,59,69859,blockP,180,2022-02-15_12h04.24.119,orientation adjustment blockP,2021.2.3,MacIntel,62.5,,,,,,,
,,,,,,,,,,,,,,,,,,,,,,33.33333333,26,20,75,34.33333333,8.333333333,3.333333333,0.402222222,-0.282222222,1,0,0,0.183,submitButton,48.84444444,0.324444444,-0.42,1,0,0,0,14,14,10,1,26,69859,blockP,180,2022-02-15_12h04.24.119,orientation adjustment blockP,2021.2.3,MacIntel,62.5,continueButton,,,,,,
,,,,,,,,,,,,,,,,,,,,,,-51.11111111,-17,20,75,-137.1111111,59.88888889,50.90555556,0.383333333,-0.283333333,1,0,0,0.1,submitButton,50.90555556,-0.186666667,-0.221111111,0,0,0,0,15,15,1,1,17,69859,blockP,180,2022-02-15_12h04.24.119,orientation adjustment blockP,2021.2.3,MacIntel,62.5,,,,,,,
,,,,,,,,,,,,,,,,,,,,,,-32.22222222,27,20,75,39.77777778,12.77777778,5.111111111,0.212222222,-0.292222222,1,0,0,0.033,submitButton,28.00833333,0.058888889,-0.115555556,0,0,0,0,16,16,11,1,27,69859,blockP,180,2022-02-15_12h04.24.119,orientation adjustment blockP,2021.2.3,MacIntel,62.5,,,,,,,
,,,,,,,,,,,,,,,,,,,,,,-46.66666667,-70,20,75,-53.66666667,16.33333333,10.61666667,0.215555556,-0.274444444,1,0,0,0.065,submitButton,22.21111111,0.201111111,-0.393333333,0,0,0,0,17,17,54,1,70,69859,blockP,180,2022-02-15_12h04.24.119,orientation adjustment blockP,2021.2.3,MacIntel,62.5,,,,,,,
,,,,,,,,,,,,,,,,,,,,,,22.77777778,-16,20,75,-27.22222222,11.22222222,4.488888889,0.392222222,-0.268888889,1,0,0,0.067,submitButton,17.78055556,0.018888889,-0.24,0,0,0,0,18,18,0,1,16,69859,blockP,180,2022-02-15_12h04.24.119,orientation adjustment blockP,2021.2.3,MacIntel,62.5,,,,,,,
,,,,,,,,,,,,,,,,,,,,,,25.55555556,-67,20,75,42.55555556,70.44444444,63.4,0.206666667,-0.304444444,1,0,0,0.2,submitButton,26.90444444,-0.144444444,-0.4,0,0,0,0,19,19,51,1,67,69859,blockP,180,2022-02-15_12h04.24.119,orientation adjustment blockP,2021.2.3,MacIntel,62.5,,,,,,,
,,,,,,,,,,,,,,,,,,,,,,69.44444444,-66,20,75,45.44444444,68.55555556,58.27222222,0.221111111,-0.307777778,1,0,0,0.017,submitButton,32.13240741,0.312222222,-0.287777778,0,0,0,0,20,20,50,1,66,69859,blockP,180,2022-02-15_12h04.24.119,orientation adjustment blockP,2021.2.3,MacIntel,62.5,,,,,,,
,,,,,,,,,,,,,,,,,,,,,,61.66666667,-29,20,75,32.66666667,61.66666667,52.41666667,-0.227777778,-0.398888889,1,0,0,2.699,submitButton,35.03015873,-0.005555556,-0.315555556,0,0,0,0,21,21,13,1,29,69859,blockP,180,2022-02-15_12h04.24.119,orientation adjustment blockP,2021.2.3,MacIntel,62.5,,,,,,,
,,,,,,,,,,,,,,,,,,,,,,-32.77777778,35,20,75,44.22222222,9.222222222,3.688888889,0.176666667,-0.321111111,1,0,0,0.082,submitButton,31.1125,-0.227777778,-0.423333333,0,0,0,0,22,22,19,1,35,69859,blockP,180,2022-02-15_12h04.24.119,orientation adjustment blockP,2021.2.3,MacIntel,62.5,,,,,,,
,,,,,,,,,,,,,,,,,,,,,,42.22222222,22,20,75,130.2222222,71.77777778,64.6,0.225555556,-0.288888889,1,0,0,0.032,submitButton,34.83333333,-0.144444444,-0.388888889,0,0,0,0,23,23,6,1,22,69859,blockP,180,2022-02-15_12h04.24.119,orientation adjustment blockP,2021.2.3,MacIntel,62.5,,,,,,,
,,,,,,,,,,,,,,,,,,,,,,40,-19,20,75,-36,17,11.05,0.391111111,-0.304444444,1,0,0,0.1,submitButton,32.455,-0.176666667,-0.423333333,0,0,0,0,24,24,3,1,19,69859,blockP,180,2022-02-15_12h04.24.119,orientation adjustment blockP,2021.2.3,MacIntel,62.5,,,,,,,
,,,,,,,,,,,,,,,,,,,,,,26.66666667,-32,20,75,-28.33333333,3.666666667,1.466666667,0.378888889,-0.306666667,1,0,0,0.033,submitButton,29.63787879,0.031111111,-0.424444444,0,0,0,0,25,25,16,1,32,69859,blockP,180,2022-02-15_12h04.24.119,orientation adjustment blockP,2021.2.3,MacIntel,62.5,,,,,,,
,,,,,,,,,,,,,,,,,,,,,,61.11111111,41,20,75,139.1111111,81.88888889,73.7,0.2,-0.304444444,1,0,0,0.05,submitButton,33.30972222,-0.044444444,-0.405555556,0,0,0,0,26,26,25,1,41,69859,blockP,180,2022-02-15_12h04.24.119,orientation adjustment blockP,2021.2.3,MacIntel,62.5,,,,,,,
,,,,,,,,,,,,,,,,,,,,,,-26.11111111,-60,20,75,-50.11111111,9.888888889,3.955555556,0.191111111,-0.296666667,1,0,0,0.068,submitButton,31.0517094,-0.206666667,-0.404444444,0,0,0,0,27,27,44,1,60,69859,blockP,180,2022-02-15_12h04.24.119,orientation adjustment blockP,2021.2.3,MacIntel,62.5,,,,,,,
,,,,,,,,,,,,,,,,,,,,,,-46.66666667,51,20,75,62.33333333,11.33333333,4.533333333,0.228888889,-0.295555556,1,0,0,0.083,submitButton,29.15753968,-0.134444444,-0.397777778,0,0,0,0,28,28,35,1,51,69859,blockP,180,2022-02-15_12h04.24.119,orientation adjustment blockP,2021.2.3,MacIntel,62.5,,,,,,,
,,,,,,,,,,,,,,,,,,,,,,39.44444444,-39,20,75,138.4444444,2.555555556,1.022222222,0.192222222,-0.32,1,0,0,0.151,submitButton,27.28185185,0.332222222,-0.378888889,1,0,0,0,29,29,23,1,39,69859,blockP,180,2022-02-15_12h04.24.119,orientation adjustment blockP,2021.2.3,MacIntel,62.5,continueButton,,,,,,
,,,,,,,,,,,,,,,,,,,,,,-65,44,20,75,54,10,4,0.195555556,-0.285555556,1,0,0,0.217,submitButton,25.82673611,-0.076666667,-0.374444444,0,0,0,0,30,30,28,1,44,69859,blockP,180,2022-02-15_12h04.24.119,orientation adjustment blockP,2021.2.3,MacIntel,62.5,,,,,,,
,,,,,,,,,,,,,,,,,,,,,,45,-45,20,75,-47,2,0.8,0.388888889,-0.283333333,1,0,0,0.116,submitButton,24.35457516,0.073333333,-0.34,0,0,0,0,31,31,29,1,45,69859,blockP,180,2022-02-15_12h04.24.119,orientation adjustment blockP,2021.2.3,MacIntel,62.5,,,,,,,
,,,,,,,,,,,,,,,,,,,,,,-25,72,20,75,141,69,58.65,0.195555556,-0.296666667,1,0,0,0.167,submitButton,26.25987654,-0.177777778,-0.411111111,0,0,0,0,32,32,56,1,72,69859,blockP,180,2022-02-15_12h04.24.119,orientation adjustment blockP,2021.2.3,MacIntel,62.5,,,,,,,
,,,,,,,,,,,,,,,,,,,,,,21.11111111,36,20,75,129.1111111,86.88888889,78.2,0.203333333,-0.288888889,1,0,0,1.232,submitButton,28.99356725,-0.215555556,-0.386666667,0,0,0,0,33,33,20,1,36,69859,blockP,180,2022-02-15_12h04.24.119,orientation adjustment blockP,2021.2.3,MacIntel,62.5,,,,,,,
,,,,,,,,,,,,,,,,,,,,,,56.11111111,43,20,75,129.1111111,86.11111111,77.5,-0.136666667,-0.397777778,1,0,0,1.316,submitButton,31.41888889,0.152222222,-0.475555556,0,0,0,0,34,34,27,1,43,69859,blockP,180,2022-02-15_12h04.24.119,orientation adjustment blockP,2021.2.3,MacIntel,62.5,,,,,,,
,,,,,,,,,,,,,,,,,,,,,,38.88888889,-18,20,75,-29.11111111,11.11111111,4.444444444,-0.2,-0.422222222,1,0,0,1.599,submitButton,30.13439153,-0.042222222,-0.346666667,0,0,0,0,35,35,2,1,18,69859,blockP,180,2022-02-15_12h04.24.119,orientation adjustment blockP,2021.2.3,MacIntel,62.5,,,,,,,
,,,,,,,,,,,,,,,,,,,,,,-51.66666667,31,20,75,43.33333333,12.33333333,4.933333333,0.235555556,-0.323333333,1,0,0,0.649,submitButton,28.98888889,0.083333333,-0.094444444,0,0,0,0,36,36,15,1,31,69859,blockP,180,2022-02-15_12h04.24.119,orientation adjustment blockP,2021.2.3,MacIntel,62.5,,,,,,,
,,,,,,,,,,,,,,,,,,,,,,-23.33333333,-33,20,75,-129.3333333,83.66666667,75.3,0.375555556,-0.278888889,1,0,0,0.782,submitButton,31.00241546,-0.005555556,-0.287777778,0,0,0,0,37,37,17,1,33,69859,blockP,180,2022-02-15_12h04.24.119,orientation adjustment blockP,2021.2.3,MacIntel,62.5,,,,,,,
,,,,,,,,,,,,,,,,,,,,,,-45,38,20,75,39,1,0.4,0.211111111,-0.297777778,1,0,0,0.467,submitButton,29.72731481,0.165555556,-0.318888889,0,0,0,0,38,38,22,1,38,69859,blockP,180,2022-02-15_12h04.24.119,orientation adjustment blockP,2021.2.3,MacIntel,62.5,,,,,,,
,,,,,,,,,,,,,,,,,,,,,,-22.22222222,-30,20,75,-43.22222222,13.22222222,5.288888889,0.228888889,-0.291111111,1,0,0,0.35,submitButton,28.74977778,0.03,-0.291111111,0,0,0,0,39,39,14,1,30,69859,blockP,180,2022-02-15_12h04.24.119,orientation adjustment blockP,2021.2.3,MacIntel,62.5,,,,,,,
,,,,,,,,,,,,,,,,,,,,,,32.77777778,23,20,75,135.7777778,67.22222222,57.13888889,0.202222222,-0.286666667,1,0,0,1.049,submitButton,29.84166667,0.121111111,-0.251111111,0,0,0,0,40,40,7,1,23,69859,blockP,180,2022-02-15_12h04.24.119,orientation adjustment blockP,2021.2.3,MacIntel,62.5,,,,,,,
,,,,,,,,,,,,,,,,,,,,,,65,-46,20,75,138,4,1.6,0.22,-0.287777778,1,0,0,1.584,submitButton,28.79567901,0.143333333,-0.285555556,0,0,0,0,41,41,30,1,46,69859,blockP,180,2022-02-15_12h04.24.119,orientation adjustment blockP,2021.2.3,MacIntel,62.5,,,,,,,
,,,,,,,,,,,,,,,,,,,,,,54.44444444,-47,20,75,50.44444444,82.55555556,74.3,0.213333333,-0.306666667,1,0,0,0.115,submitButton,30.42083333,-0.002222222,-0.232222222,0,0,0,0,42,42,31,1,47,69859,blockP,180,2022-02-15_12h04.24.119,orientation adjustment blockP,2021.2.3,MacIntel,62.5,,,,,,,
,,,,,,,,,,,,,,,,,,,,,,63.88888889,21,20,75,144.8888889,56.11111111,47.69444444,0.205555556,-0.271111111,1,0,0,0.532,submitButton,31.0164751,-0.134444444,-0.394444444,0,0,0,0,43,43,5,1,21,69859,blockP,180,2022-02-15_12h04.24.119,orientation adjustment blockP,2021.2.3,MacIntel,62.5,,,,,,,
,,,,,,,,,,,,,,,,,,,,,,51.66666667,48,20,75,141.6666667,86.33333333,77.7,-0.138888889,-0.387777778,1,0,0,1.065,submitButton,32.57259259,0.435555556,-0.382222222,1,0,0,0,44,44,32,1,48,69859,blockP,180,2022-02-15_12h04.24.119,orientation adjustment blockP,2021.2.3,MacIntel,62.5,continueButton,,,,,,
,,,,,,,,,,,,,,,,,,,,,,-57.77777778,-25,20,75,62.22222222,87.22222222,78.5,0.184444444,-0.288888889,1,0,0,2.017,submitButton,34.05412186,0.146666667,-0.318888889,0,0,0,0,45,45,9,1,25,69859,blockP,180,2022-02-15_12h04.24.119,orientation adjustment blockP,2021.2.3,MacIntel,62.5,,,,,,,
,,,,,,,,,,,,,,,,,,,,,,55,-58,20,75,56,66,56.1,-0.197777778,-0.388888889,1,0,0,0.917,submitButton,34.74305556,0.176666667,-0.27,0,0,0,0,46,46,42,1,58,69859,blockP,180,2022-02-15_12h04.24.119,orientation adjustment blockP,2021.2.3,MacIntel,62.5,,,,,,,
,,,,,,,,,,,,,,,,,,,,,,22.22222222,28,20,75,148.2222222,59.77777778,50.81111111,0.19,-0.29,1,0,0,1.1,submitButton,35.22996633,0.23,-0.27,0,0,0,0,47,47,12,1,28,69859,blockP,180,2022-02-15_12h04.24.119,orientation adjustment blockP,2021.2.3,MacIntel,62.5,,,,,,,
,,,,,,,,,,,,,,,,,,,,,,-41.66666667,55,20,75,-49.66666667,75.33333333,67.8,-0.302222222,-0.393333333,1,0,0,1.417,submitButton,36.1879085,0.114444444,-0.373333333,0,0,0,0,48,48,39,1,55,69859,blockP,180,2022-02-15_12h04.24.119,orientation adjustment blockP,2021.2.3,MacIntel,62.5,,,,,,,
,,,,,,,,,,,,,,,,,,,,,,-72.22222222,-52,20,75,-32.22222222,19.77777778,12.85555556,-0.137777778,-0.407777778,1,0,0,1.784,submitButton,35.52126984,-0.137777778,-0.407777778,0,0,0,0,49,49,36,1,52,69859,blockP,180,2022-02-15_12h04.24.119,orientation adjustment blockP,2021.2.3,MacIntel,62.5,,,,,,,
,,,,,,,,,,,,,,,,,,,,,,-56.11111111,54,20,75,47.88888889,6.111111111,2.444444444,-0.218888889,-0.391111111,1,0,0,1.417,submitButton,34.60246914,0.184444444,-0.17,0,0,0,0,50,50,38,1,54,69859,blockP,180,2022-02-15_12h04.24.119,orientation adjustment blockP,2021.2.3,MacIntel,62.5,,,,,,,
,,,,,,,,,,,,,,,,,,,,,,62.22222222,-53,20,75,56.22222222,70.77777778,63.7,-0.203333333,-0.405555556,1,0,0,0.966,submitButton,35.38888889,0.146666667,-0.146666667,0,0,0,0,51,51,37,1,53,69859,blockP,180,2022-02-15_12h04.24.119,orientation adjustment blockP,2021.2.3,MacIntel,62.5,,,,,,,
,,,,,,,,,,,,,,,,,,,,,,48.88888889,24,20,75,223.8888889,19.88888889,12.92777778,0.185555556,-0.275555556,1,0,0,1.716,submitButton,34.79780702,0.157777778,-0.252222222,0,0,0,0,52,52,8,1,24,69859,blockP,180,2022-02-15_12h04.24.119,orientation adjustment blockP,2021.2.3,MacIntel,62.5,,,,,,,
,,,,,,,,,,,,,,,,,,,,,,74.44444444,57,20,75,38.44444444,18.55555556,12.06111111,0.42,-0.301111111,1,0,0,0.366,submitButton,34.21481481,0.09,-0.32,0,0,0,0,53,53,41,1,57,69859,blockP,180,2022-02-15_12h04.24.119,orientation adjustment blockP,2021.2.3,MacIntel,62.5,,,,,,,
,,,,,,,,,,,,,,,,,,,,,,-62.22222222,63,20,75,-139.2222222,22.22222222,14.44444444,0.372222222,-0.287777778,1,0,0,0.716,submitButton,33.72055556,-0.187777778,-0.397777778,0,0,0,0,54,54,47,1,63,69859,blockP,180,2022-02-15_12h04.24.119,orientation adjustment blockP,2021.2.3,MacIntel,62.5,,,,,,,
,,,,,,,,,,,,,,,,,,,,,,52.22222222,-42,20,75,147.2222222,9.222222222,3.688888889,0.203333333,-0.302222222,1,0,0,1.983,submitButton,32.98807588,-0.033333333,-0.477777778,0,0,0,0,55,55,26,1,42,69859,blockP,180,2022-02-15_12h04.24.119,orientation adjustment blockP,2021.2.3,MacIntel,62.5,,,,,,,
,,,,,,,,,,,,,,,,,,,,,,-68.88888889,-20,20,75,-41.88888889,21.88888889,14.22777778,-0.287777778,-0.414444444,1,0,0,1.151,submitButton,32.54140212,-0.096666667,-0.3,0,0,0,0,56,56,4,1,20,69859,blockP,180,2022-02-15_12h04.24.119,orientation adjustment blockP,2021.2.3,MacIntel,62.5,,,,,,,
,,,,,,,,,,,,,,,,,,,,,,69.44444444,-65,20,75,130.4444444,15.44444444,10.03888889,-0.19,-0.396666667,1,0,0,2.35,submitButton,32.01808786,0.222222222,-0.15,0,0,0,0,57,57,49,1,65,69859,blockP,180,2022-02-15_12h04.24.119,orientation adjustment blockP,2021.2.3,MacIntel,62.5,,,,,,,
,,,,,,,,,,,,,,,,,,,,,,-42.77777778,-64,20,75,-35.77777778,28.22222222,18.34444444,-0.215555556,-0.384444444,1,0,0,1.451,submitButton,31.70732323,0.17,-0.341111111,0,0,0,0,58,58,48,1,64,69859,blockP,180,2022-02-15_12h04.24.119,orientation adjustment blockP,2021.2.3,MacIntel,62.5,,,,,,,
,,,,,,,,,,,,,,,,,,,,,,51.66666667,-69,20,75,142.6666667,31.66666667,25.33333333,0.181111111,-0.286666667,1,0,0,2.399,submitButton,31.56567901,0.324444444,-0.404444444,1,0,0,0,59,59,53,1,69,69859,blockP,180,2022-02-15_12h04.24.119,orientation adjustment blockP,2021.2.3,MacIntel,62.5,continueButton,,,,,,
,,,,,,,,,,,,,,,,,,,,,,-66.66666667,-35,20,75,-48.66666667,13.66666667,5.466666667,-0.184444444,-0.393333333,1,0,0,0.883,submitButton,30.99830918,0.237777778,-0.341111111,0,0,0,1,0,60,19,1,35,69859,blockP,180,2022-02-15_12h04.24.119,orientation adjustment blockP,2021.2.3,MacIntel,62.5,,,,,,,
,,,,,,,,,,,,,,,,,,,,,,27.77777778,47,20,75,34.77777778,12.22222222,4.888888889,-0.17,-0.391111111,1,0,0,1.434,submitButton,30.4427896,-0.155555556,-0.384444444,0,0,0,1,1,61,31,1,47,69859,blockP,180,2022-02-15_12h04.24.119,orientation adjustment blockP,2021.2.3,MacIntel,62.5,,,,,,,
,,,,,,,,,,,,,,,,,,,,,,70.55555556,34,20,75,235.5555556,21.55555556,14.01111111,0.4,-0.283333333,1,0,0,1.35,submitButton,30.10046296,-0.083333333,-0.366666667,0,0,0,1,2,62,18,1,34,69859,blockP,180,2022-02-15_12h04.24.119,orientation adjustment blockP,2021.2.3,MacIntel,62.5,,,,,,,
,,,,,,,,,,,,,,,,,,,,,,-60.55555556,-18,20,75,-32.55555556,14.55555556,5.822222222,0.225555556,-0.28,1,0,0,0.55,submitButton,29.60498866,-0.212222222,-0.423333333,0,0,0,1,3,63,2,1,18,69859,blockP,180,2022-02-15_12h04.24.119,orientation adjustment blockP,2021.2.3,MacIntel,62.5,,,,,,,
,,,,,,,,,,,,,,,,,,,,,,24.44444444,38,20,75,62.44444444,24.44444444,15.88888889,-0.224444444,-0.394444444,1,0,0,0.8,submitButton,29.33066667,0.038888889,-0.372222222,0,0,0,1,4,64,22,1,38,69859,blockP,180,2022-02-15_12h04.24.119,orientation adjustment blockP,2021.2.3,MacIntel,62.5,,,,,,,
,,,,,,,,,,,,,,,,,,,,,,61.11111111,-58,20,75,135.1111111,13.11111111,5.244444444,0.207777778,-0.291111111,1,0,0,2.05,submitButton,28.8583878,-0.345555556,-0.41,0,0,0,1,5,65,42,1,58,69859,blockP,180,2022-02-15_12h04.24.119,orientation adjustment blockP,2021.2.3,MacIntel,62.5,,,,,,,
,,,,,,,,,,,,,,,,,,,,,,-62.77777778,-61,20,75,-37.77777778,23.22222222,15.09444444,0.172222222,-0.325555556,1,0,0,1.233,submitButton,28.59369658,0.153333333,-0.313333333,0,0,0,1,6,66,45,1,61,69859,blockP,180,2022-02-15_12h04.24.119,orientation adjustment blockP,2021.2.3,MacIntel,62.5,,,,,,,
,,,,,,,,,,,,,,,,,,,,,,-71.11111111,53,20,75,-127.1111111,0.111111111,0.044444444,-0.192222222,-0.416666667,1,0,0,2.616,submitButton,28.05503145,0.085555556,-0.214444444,0,0,0,1,7,67,37,1,53,69859,blockP,180,2022-02-15_12h04.24.119,orientation adjustment blockP,2021.2.3,MacIntel,62.5,,,,,,,
,,,,,,,,,,,,,,,,,,,,,,-42.22222222,-40,20,75,-32.22222222,7.777777778,3.111111111,-0.193333333,-0.422222222,1,0,0,0.834,submitButton,27.593107,0.297777778,-0.19,0,0,0,1,8,68,24,1,40,69859,blockP,180,2022-02-15_12h04.24.119,orientation adjustment blockP,2021.2.3,MacIntel,62.5,,,,,,,
,,,,,,,,,,,,,,,,,,,,,,50.55555556,-56,20,75,146.5555556,22.55555556,14.66111111,0.23,-0.302222222,1,0,0,1.5,submitButton,27.3579798,-0.131111111,-0.418888889,0,0,0,1,9,69,40,1,56,69859,blockP,180,2022-02-15_12h04.24.119,orientation adjustment blockP,2021.2.3,MacIntel,62.5,,,,,,,
,,,,,,,,,,,,,,,,,,,,,,70.55555556,-28,20,75,144.5555556,7.444444444,2.977777778,-0.225555556,-0.424444444,1,0,0,1.65,submitButton,26.92261905,-0.225555556,-0.424444444,0,0,0,1,10,70,12,1,28,69859,blockP,180,2022-02-15_12h04.24.119,orientation adjustment blockP,2021.2.3,MacIntel,62.5,,,,,,,
,,,,,,,,,,,,,,,,,,,,,,28.88888889,66,20,75,44.88888889,21.11111111,13.72222222,-0.153333333,-0.421111111,1,0,0,1.183,submitButton,26.69103314,0.105555556,-0.286666667,0,0,0,1,11,71,50,1,66,69859,blockP,180,2022-02-15_12h04.24.119,orientation adjustment blockP,2021.2.3,MacIntel,62.5,,,,,,,
,,,,,,,,,,,,,,,,,,,,,,-39.44444444,-45,20,75,-49.44444444,4.444444444,1.777777778,-0.252222222,-0.421111111,1,0,0,0.749,submitButton,26.26149425,-0.047777778,-0.303333333,0,0,0,1,12,72,29,1,45,69859,blockP,180,2022-02-15_12h04.24.119,orientation adjustment blockP,2021.2.3,MacIntel,62.5,,,,,,,
,,,,,,,,,,,,,,,,,,,,,,-68.33333333,-63,20,75,-40.33333333,22.66666667,14.73333333,-0.186666667,-0.38,1,0,0,1.583,submitButton,26.06610169,0,-0.3,0,0,0,1,13,73,47,1,63,69859,blockP,180,2022-02-15_12h04.24.119,orientation adjustment blockP,2021.2.3,MacIntel,62.5,,,,,,,
,,,,,,,,,,,,,,,,,,,,,,60,24,20,75,38,14,5.6,-0.262222222,-0.406666667,1,0,0,1.068,submitButton,25.725,0.25,-0.393333333,1,0,0,1,14,74,8,1,24,69859,blockP,180,2022-02-15_12h04.24.119,orientation adjustment blockP,2021.2.3,MacIntel,62.5,continueButton,,,,,,
,,,,,,,,,,,,,,,,,,,,,,-47.77777778,-72,20,75,-41.77777778,30.22222222,24.17777778,0.19,-0.28,1,0,0,0.783,submitButton,25.6996357,0.167777778,-0.302222222,0,0,0,1,15,75,56,1,72,69859,blockP,180,2022-02-15_12h04.24.119,orientation adjustment blockP,2021.2.3,MacIntel,62.5,,,,,,,
,,,,,,,,,,,,,,,,,,,,,,-27.77777778,-49,20,75,-29.77777778,19.22222222,12.49444444,-0.17,-0.416666667,1,0,0,0.75,submitButton,25.48664875,0.183333333,-0.338888889,0,0,0,1,16,76,33,1,49,69859,blockP,180,2022-02-15_12h04.24.119,orientation adjustment blockP,2021.2.3,MacIntel,62.5,,,,,,,
,,,,,,,,,,,,,,,,,,,,,,47.77777778,-52,20,75,145.7777778,17.77777778,11.55555556,0.215555556,-0.318888889,1,0,0,1.967,submitButton,25.26552028,0.053333333,-0.365555556,0,0,0,1,17,77,36,1,52,69859,blockP,180,2022-02-15_12h04.24.119,orientation adjustment blockP,2021.2.3,MacIntel,62.5,,,,,,,
,,,,,,,,,,,,,,,,,,,,,,74.44444444,68,20,75,47.44444444,20.55555556,13.36111111,-0.163333333,-0.402222222,1,0,0,2,submitButton,25.07951389,-0.163333333,-0.402222222,0,0,0,1,18,78,52,1,68,69859,blockP,180,2022-02-15_12h04.24.119,orientation adjustment blockP,2021.2.3,MacIntel,62.5,,,,,,,
,,,,,,,,,,,,,,,,,,,,,,71.11111111,27,20,75,33.11111111,6.111111111,2.444444444,-0.131111111,-0.412222222,1,0,0,1.517,submitButton,24.73128205,0.165555556,-0.296666667,0,0,0,1,19,79,11,1,27,69859,blockP,180,2022-02-15_12h04.24.119,orientation adjustment blockP,2021.2.3,MacIntel,62.5,,,,,,,
,,,,,,,,,,,,,,,,,,,,,,-68.33333333,75,20,75,63.66666667,11.33333333,4.533333333,0.207777778,-0.274444444,1,0,0,1.217,submitButton,24.42525253,-0.025555556,-0.406666667,0,0,0,1,20,80,59,1,75,69859,blockP,180,2022-02-15_12h04.24.119,orientation adjustment blockP,2021.2.3,MacIntel,62.5,,,,,,,
,,,,,,,,,,,,,,,,,,,,,,-61.66666667,-74,20,75,-64.66666667,9.333333333,3.733333333,-0.245555556,-0.414444444,1,0,0,1.95,submitButton,24.11641791,-0.201111111,-0.294444444,0,0,0,1,21,81,58,1,74,69859,blockP,180,2022-02-15_12h04.24.119,orientation adjustment blockP,2021.2.3,MacIntel,62.5,,,,,,,
,,,,,,,,,,,,,,,,,,,,,,28.33333333,-36,20,75,144.3333333,0.333333333,0.133333333,-0.071111111,-0.438888889,1,0,0,4.2,submitButton,23.76372549,0.036666667,-0.378888889,0,0,0,1,22,82,20,1,36,69859,blockP,180,2022-02-15_12h04.24.119,orientation adjustment blockP,2021.2.3,MacIntel,62.5,,,,,,,
,,,,,,,,,,,,,,,,,,,,,,57.77777778,22,20,75,33.77777778,11.77777778,4.711111111,0.392222222,-0.28,1,0,0,0.201,submitButton,23.48760064,0.242222222,-0.313333333,0,0,0,1,23,83,6,1,22,69859,blockP,180,2022-02-15_12h04.24.119,orientation adjustment blockP,2021.2.3,MacIntel,62.5,,,,,,,
,,,,,,,,,,,,,,,,,,,,,,47.22222222,37,20,75,21.22222222,15.77777778,10.25555556,0.432222222,-0.307777778,1,0,0,1.35,submitButton,23.29857143,-0.132222222,-0.393333333,0,0,0,1,24,84,21,1,37,69859,blockP,180,2022-02-15_12h04.24.119,orientation adjustment blockP,2021.2.3,MacIntel,62.5,,,,,,,
,,,,,,,,,,,,,,,,,,,,,,-65,69,20,75,62,7,2.8,0.205555556,-0.308888889,1,0,0,0.584,submitButton,23.00985915,-0.122222222,-0.403333333,0,0,0,1,25,85,53,1,69,69859,blockP,180,2022-02-15_12h04.24.119,orientation adjustment blockP,2021.2.3,MacIntel,62.5,,,,,,,
,,,,,,,,,,,,,,,,,,,,,,20.55555556,31,20,75,31.55555556,0.555555556,0.222222222,-0.264444444,-0.416666667,1,0,0,0.634,submitButton,22.6933642,-0.264444444,-0.416666667,0,0,0,1,26,86,15,1,31,69859,blockP,180,2022-02-15_12h04.24.119,orientation adjustment blockP,2021.2.3,MacIntel,62.5,,,,,,,
,,,,,,,,,,,,,,,,,,,,,,-32.22222222,-29,20,75,-30.22222222,1.222222222,0.488888889,-0.21,-0.421111111,1,0,0,1.015,submitButton,22.3891933,0.055555556,-0.386666667,0,0,0,1,27,87,13,1,29,69859,blockP,180,2022-02-15_12h04.24.119,orientation adjustment blockP,2021.2.3,MacIntel,62.5,,,,,,,
,,,,,,,,,,,,,,,,,,,,,,-53.88888889,48,20,75,49.11111111,1.111111111,0.444444444,0.217777778,-0.291111111,1,0,0,0.317,submitButton,22.09264264,-0.138888889,-0.398888889,0,0,0,1,28,88,32,1,48,69859,blockP,180,2022-02-15_12h04.24.119,orientation adjustment blockP,2021.2.3,MacIntel,62.5,,,,,,,
,,,,,,,,,,,,,,,,,,,,,,48.88888889,-67,20,75,133.8888889,20.88888889,13.57777778,0.207777778,-0.288888889,1,0,0,2.184,submitButton,21.97911111,0.268888889,-0.413333333,1,0,0,1,29,89,51,1,67,69859,blockP,180,2022-02-15_12h04.24.119,orientation adjustment blockP,2021.2.3,MacIntel,62.5,continueButton,,,,,,
,,,,,,,,,,,,,,,,,,,,,,73.33333333,30,20,75,31.33333333,1.333333333,0.533333333,0.413333333,-0.285555556,1,0,0,0.7,submitButton,21.69692982,0.32,-0.295555556,0,0,0,1,30,90,14,1,30,69859,blockP,180,2022-02-15_12h04.24.119,orientation adjustment blockP,2021.2.3,MacIntel,62.5,,,,,,,
,,,,,,,,,,,,,,,,,,,,,,-33.88888889,-65,20,75,-44.88888889,20.11111111,13.07222222,0.231111111,-0.291111111,1,0,0,0.484,submitButton,21.58492063,-0.086666667,-0.38,0,0,0,1,31,91,49,1,65,69859,blockP,180,2022-02-15_12h04.24.119,orientation adjustment blockP,2021.2.3,MacIntel,62.5,,,,,,,
,,,,,,,,,,,,,,,,,,,,,,-58.88888889,-54,20,75,-48.88888889,5.111111111,2.044444444,0.212222222,-0.308888889,1,0,0,0.8,submitButton,21.33440171,-0.224444444,-0.412222222,0,0,0,1,32,92,38,1,54,69859,blockP,180,2022-02-15_12h04.24.119,orientation adjustment blockP,2021.2.3,MacIntel,62.5,,,,,,,
,,,,,,,,,,,,,,,,,,,,,,-37.22222222,39,20,75,142.7777778,76.22222222,68.6,0.211111111,-0.315555556,1,0,0,1,submitButton,21.93270042,-0.18,-0.422222222,0,0,0,1,33,93,23,1,39,69859,blockP,180,2022-02-15_12h04.24.119,orientation adjustment blockP,2021.2.3,MacIntel,62.5,,,,,,,
,,,,,,,,,,,,,,,,,,,,,,38.33333333,43,20,75,38.33333333,4.666666667,1.866666667,0.344444444,-0.29,1,0,0,0.483,submitButton,21.681875,-0.09,-0.353333333,0,0,0,1,34,94,27,1,43,69859,blockP,180,2022-02-15_12h04.24.119,orientation adjustment blockP,2021.2.3,MacIntel,62.5,,,,,,,
,,,,,,,,,,,,,,,,,,,,,,-46.11111111,-42,20,75,-42.11111111,0.111111111,0.044444444,0.233333333,-0.297777778,1,0,0,0.699,submitButton,21.41474623,-0.203333333,-0.425555556,0,0,0,1,35,95,26,1,42,69859,blockP,180,2022-02-15_12h04.24.119,orientation adjustment blockP,2021.2.3,MacIntel,62.5,,,,,,,
,,,,,,,,,,,,,,,,,,,,,,53.88888889,60,20,75,40.88888889,19.11111111,12.42222222,-0.16,-0.414444444,1,0,0,1.599,submitButton,21.3050813,-0.16,-0.414444444,0,0,0,1,36,96,44,1,60,69859,blockP,180,2022-02-15_12h04.24.119,orientation adjustment blockP,2021.2.3,MacIntel,62.5,,,,,,,
,,,,,,,,,,,,,,,,,,,,,,70.55555556,19,20,75,30.55555556,11.55555556,4.622222222,-0.252222222,-0.423333333,1,0,0,1.232,submitButton,21.104083,-0.252222222,-0.423333333,0,0,0,1,37,97,3,1,19,69859,blockP,180,2022-02-15_12h04.24.119,orientation adjustment blockP,2021.2.3,MacIntel,62.5,,,,,,,
,,,,,,,,,,,,,,,,,,,,,,-48.33333333,-32,20,75,-44.33333333,12.33333333,4.933333333,-0.162222222,-0.408888889,1,0,0,0.9,submitButton,20.91157407,0.182222222,-0.365555556,0,0,0,1,38,98,16,1,32,69859,blockP,180,2022-02-15_12h04.24.119,orientation adjustment blockP,2021.2.3,MacIntel,62.5,,,,,,,
,,,,,,,,,,,,,,,,,,,,,,-57.22222222,21,20,75,-152.2222222,6.777777778,2.711111111,-0.13,-0.418888889,1,0,0,2.083,submitButton,20.69745098,0.247777778,-0.226666667,0,0,0,1,39,99,5,1,21,69859,blockP,180,2022-02-15_12h04.24.119,orientation adjustment blockP,2021.2.3,MacIntel,62.5,,,,,,,
,,,,,,,,,,,,,,,,,,,,,,22.77777778,64,20,75,54.77777778,9.222222222,3.688888889,-0.096666667,-0.362222222,1,0,0,0.834,submitButton,20.499677,0.018888889,-0.376666667,0,0,0,1,40,100,48,1,64,69859,blockP,180,2022-02-15_12h04.24.119,orientation adjustment blockP,2021.2.3,MacIntel,62.5,,,,,,,
,,,,,,,,,,,,,,,,,,,,,,-28.88888889,33,20,75,-142.8888889,4.111111111,1.644444444,-0.216666667,-0.385555556,1,0,0,2.4,submitButton,20.28295019,-0.032222222,-0.34,0,0,0,1,41,101,17,1,33,69859,blockP,180,2022-02-15_12h04.24.119,orientation adjustment blockP,2021.2.3,MacIntel,62.5,,,,,,,
,,,,,,,,,,,,,,,,,,,,,,30.55555556,41,20,75,37.55555556,3.444444444,1.377777778,0.377777778,-0.285555556,1,0,0,0.099,submitButton,20.06811869,0.387777778,-0.258888889,0,0,0,1,42,102,25,1,41,69859,blockP,180,2022-02-15_12h04.24.119,orientation adjustment blockP,2021.2.3,MacIntel,62.5,,,,,,,
,,,,,,,,,,,,,,,,,,,,,,-48.88888889,-70,20,75,-45.88888889,24.11111111,15.67222222,0.198888889,-0.307777778,1,0,0,0.167,submitButton,20.01872659,-0.032222222,-0.41,0,0,0,1,43,103,54,1,70,69859,blockP,180,2022-02-15_12h04.24.119,orientation adjustment blockP,2021.2.3,MacIntel,62.5,,,,,,,
,,,,,,,,,,,,,,,,,,,,,,-57.77777778,-20,20,75,-21.77777778,1.777777778,0.711111111,0.187777778,-0.283333333,1,0,0,0.449,submitButton,19.80419753,0.322222222,-0.405555556,1,0,0,1,44,104,4,1,20,69859,blockP,180,2022-02-15_12h04.24.119,orientation adjustment blockP,2021.2.3,MacIntel,62.5,continueButton,,,,,,
,,,,,,,,,,,,,,,,,,,,,,-43.33333333,46,20,75,-141.3333333,7.333333333,2.933333333,-0.208888889,-0.424444444,1,0,0,2.333,submitButton,19.61880342,0.053333333,-0.377777778,0,0,0,1,45,105,30,1,46,69859,blockP,180,2022-02-15_12h04.24.119,orientation adjustment blockP,2021.2.3,MacIntel,62.5,,,,,,,
,,,,,,,,,,,,,,,,,,,,,,-28.33333333,50,20,75,-133.3333333,3.333333333,1.333333333,-0.265555556,-0.395555556,1,0,0,2.317,submitButton,19.42004831,-0.034444444,-0.285555556,0,0,0,1,46,106,34,1,50,69859,blockP,180,2022-02-15_12h04.24.119,orientation adjustment blockP,2021.2.3,MacIntel,62.5,,,,,,,
,,,,,,,,,,,,,,,,,,,,,,-72.77777778,-26,20,75,-31.77777778,5.777777778,2.311111111,0.215555556,-0.27,1,0,0,0.766,submitButton,19.23608124,0.147777778,-0.308888889,0,0,0,1,47,107,10,1,26,69859,blockP,180,2022-02-15_12h04.24.119,orientation adjustment blockP,2021.2.3,MacIntel,62.5,,,,,,,
,,,,,,,,,,,,,,,,,,,,,,59.44444444,-44,20,75,145.4444444,9.444444444,3.777777778,0.204444444,-0.278888889,1,0,0,1.617,submitButton,19.07163121,0.215555556,-0.298888889,0,0,0,1,48,108,28,1,44,69859,blockP,180,2022-02-15_12h04.24.119,orientation adjustment blockP,2021.2.3,MacIntel,62.5,,,,,,,
,,,,,,,,,,,,,,,,,,,,,,44.44444444,62,20,75,51.44444444,10.55555556,4.222222222,0.405555556,-0.262222222,1,0,0,0.533,submitButton,18.91532164,-0.031111111,-0.27,0,0,0,1,49,109,46,1,62,69859,blockP,180,2022-02-15_12h04.24.119,orientation adjustment blockP,2021.2.3,MacIntel,62.5,,,,,,,
,,,,,,,,,,,,,,,,,,,,,,-49.44444444,23,20,75,-132.4444444,24.55555556,15.96111111,0.366666667,-0.264444444,1,0,0,1.384,submitButton,18.88454861,-0.032222222,-0.264444444,0,0,0,1,50,110,7,1,23,69859,blockP,180,2022-02-15_12h04.24.119,orientation adjustment blockP,2021.2.3,MacIntel,62.5,,,,,,,
,,,,,,,,,,,,,,,,,,,,,,66.11111111,-55,20,75,137.1111111,12.11111111,4.844444444,0.212222222,-0.281111111,1,0,0,1.517,submitButton,18.73980527,-0.175555556,-0.412222222,0,0,0,1,51,111,39,1,55,69859,blockP,180,2022-02-15_12h04.24.119,orientation adjustment blockP,2021.2.3,MacIntel,62.5,,,,,,,
,,,,,,,,,,,,,,,,,,,,,,-25,25,20,75,41,16,10.4,0.213333333,-0.306666667,1,0,0,0.75,submitButton,18.65470522,-0.221111111,-0.418888889,0,0,0,1,52,112,9,1,25,69859,blockP,180,2022-02-15_12h04.24.119,orientation adjustment blockP,2021.2.3,MacIntel,62.5,,,,,,,
,,,,,,,,,,,,,,,,,,,,,,27.22222222,-16,20,75,153.2222222,10.77777778,4.311111111,0.165555556,-0.302222222,1,0,0,2.335,submitButton,18.50982043,-0.244444444,-0.404444444,0,0,0,1,53,113,0,1,16,69859,blockP,180,2022-02-15_12h04.24.119,orientation adjustment blockP,2021.2.3,MacIntel,62.5,,,,,,,
,,,,,,,,,,,,,,,,,,,,,,35.55555556,-57,20,75,132.5555556,9.555555556,3.822222222,-0.19,-0.423333333,1,0,0,3.083,submitButton,18.36294444,-0.19,-0.423333333,0,0,0,1,54,114,41,1,57,69859,blockP,180,2022-02-15_12h04.24.119,orientation adjustment blockP,2021.2.3,MacIntel,62.5,,,,,,,
,,,,,,,,,,,,,,,,,,,,,,29.44444444,51,20,75,148.4444444,82.55555556,74.3,-0.275555556,-0.4,1,0,0,1.566,submitButton,18.91677668,-0.275555556,-0.4,0,0,0,1,55,115,35,1,51,69859,blockP,180,2022-02-15_12h04.24.119,orientation adjustment blockP,2021.2.3,MacIntel,62.5,,,,,,,
,,,,,,,,,,,,,,,,,,,,,,-36.11111111,17,20,75,37.88888889,20.88888889,13.57777778,-0.293333333,-0.391111111,1,0,0,1.167,submitButton,18.86443355,0.071111111,-0.293333333,0,0,0,1,56,116,1,1,17,69859,blockP,180,2022-02-15_12h04.24.119,orientation adjustment blockP,2021.2.3,MacIntel,62.5,,,,,,,
,,,,,,,,,,,,,,,,,,,,,,-30,-71,20,75,-60,11,4.4,-0.222222222,-0.398888889,1,0,0,0.834,submitButton,18.72400216,-0.028888889,-0.364444444,0,0,0,1,57,117,55,1,71,69859,blockP,180,2022-02-15_12h04.24.119,orientation adjustment blockP,2021.2.3,MacIntel,62.5,,,,,,,
,,,,,,,,,,,,,,,,,,,,,,-36.11111111,-59,20,75,-47.11111111,11.88888889,4.755555556,-0.162222222,-0.418888889,1,0,0,1.099,submitButton,18.58969017,-0.162222222,-0.418888889,0,0,0,1,58,118,43,1,59,69859,blockP,180,2022-02-15_12h04.24.119,orientation adjustment blockP,2021.2.3,MacIntel,62.5,,,,,,,
,,,,,,,,,,,,,,,,,,,,,,-35,-73,20,75,-42,31,24.8,-0.175555556,-0.413333333,1,0,0,0.967,submitButton,18.64883598,0.3,-0.405555556,1,0,0,1,59,119,57,1,73,69859,blockP,180,2022-02-15_12h04.24.119,orientation adjustment blockP,2021.2.3,MacIntel,62.5,continueButton,,,,,,
,,,,,,,,,,,,,,,,,,,,,,-54.44444444,62,20,75,59.55555556,2.444444444,0.977777778,-0.231111111,-0.417777778,1,0,0,0.817,submitButton,18.48212788,0.151111111,-0.301111111,0,0,0,2,0,120,46,1,62,69859,blockP,180,2022-02-15_12h04.24.119,orientation adjustment blockP,2021.2.3,MacIntel,62.5,,,,,,,
,,,,,,,,,,,,,,,,,,,,,,53.88888889,-28,20,75,151.8888889,0.111111111,0.044444444,-0.247777778,-0.44,1,0,0,2.1,submitButton,18.30981308,-0.254444444,-0.402222222,0,0,0,2,1,121,12,1,28,69859,blockP,180,2022-02-15_12h04.24.119,orientation adjustment blockP,2021.2.3,MacIntel,62.5,,,,,,,
,,,,,,,,,,,,,,,,,,,,,,-57.22222222,44,20,75,58.77777778,14.77777778,5.911111111,-0.191111111,-0.437777778,1,0,0,0.951,submitButton,18.19501029,0.117777778,-0.364444444,0,0,0,2,2,122,28,1,44,69859,blockP,180,2022-02-15_12h04.24.119,orientation adjustment blockP,2021.2.3,MacIntel,62.5,,,,,,,
,,,,,,,,,,,,,,,,,,,,,,-61.66666667,72,20,75,71.33333333,0.666666667,0.266666667,-0.103333333,-0.38,1,0,0,0.617,submitButton,18.03053007,0.182222222,-0.31,0,0,0,2,3,123,56,1,72,69859,blockP,180,2022-02-15_12h04.24.119,orientation adjustment blockP,2021.2.3,MacIntel,62.5,,,,,,,
,,,,,,,,,,,,,,,,,,,,,,61.66666667,17,20,75,218.6666667,21.66666667,14.08333333,-0.157777778,-0.41,1,0,0,1.867,submitButton,17.99464646,0.152222222,-0.302222222,0,0,0,2,4,124,1,1,17,69859,blockP,180,2022-02-15_12h04.24.119,orientation adjustment blockP,2021.2.3,MacIntel,62.5,,,,,,,
,,,,,,,,,,,,,,,,,,,,,,26.11111111,32,20,75,220.1111111,8.111111111,3.244444444,-0.126666667,-0.411111111,1,0,0,2.433,submitButton,17.86176176,0,-0.361111111,0,0,0,2,5,125,16,1,32,69859,blockP,180,2022-02-15_12h04.24.119,orientation adjustment blockP,2021.2.3,MacIntel,62.5,,,,,,,
,,,,,,,,,,,,,,,,,,,,,,27.77777778,-34,20,75,-38.22222222,4.222222222,1.688888889,-0.183333333,-0.376666667,1,0,0,1.183,submitButton,17.71736111,-0.183333333,-0.376666667,0,0,0,2,6,126,18,1,34,69859,blockP,180,2022-02-15_12h04.24.119,orientation adjustment blockP,2021.2.3,MacIntel,62.5,,,,,,,
,,,,,,,,,,,,,,,,,,,,,,-62.22222222,40,20,75,49.77777778,9.777777778,3.911111111,0.386666667,-0.297777778,1,0,0,1.799,submitButton,17.59518191,-0.271111111,-0.416666667,0,0,0,2,7,127,24,1,40,69859,blockP,180,2022-02-15_12h04.24.119,orientation adjustment blockP,2021.2.3,MacIntel,62.5,,,,,,,
,,,,,,,,,,,,,,,,,,,,,,-42.77777778,29,20,75,48.22222222,19.22222222,12.49444444,-0.185555556,-0.424444444,1,0,0,1.184,submitButton,17.5504386,-0.185555556,-0.424444444,0,0,0,2,8,128,13,1,29,69859,blockP,180,2022-02-15_12h04.24.119,orientation adjustment blockP,2021.2.3,MacIntel,62.5,,,,,,,
,,,,,,,,,,,,,,,,,,,,,,-71.11111111,-54,20,75,-40.11111111,13.88888889,5.555555556,0.231111111,-0.294444444,1,0,0,1.684,submitButton,17.44613527,-0.171111111,-0.413333333,0,0,0,2,9,129,38,1,54,69859,blockP,180,2022-02-15_12h04.24.119,orientation adjustment blockP,2021.2.3,MacIntel,62.5,,,,,,,
,,,,,,,,,,,,,,,,,,,,,,75,68,20,75,242,6,2.4,-0.304444444,-0.407777778,1,0,0,2.3,submitButton,17.3164272,-0.304444444,-0.407777778,0,0,0,2,10,130,52,1,68,69859,blockP,180,2022-02-15_12h04.24.119,orientation adjustment blockP,2021.2.3,MacIntel,62.5,,,,,,,
,,,,,,,,,,,,,,,,,,,,,,-56.11111111,70,20,75,70.88888889,0.888888889,0.355555556,0.192222222,-0.306666667,1,0,0,0.233,submitButton,17.17146249,-0.252222222,-0.408888889,0,0,0,2,11,131,54,1,70,69859,blockP,180,2022-02-15_12h04.24.119,orientation adjustment blockP,2021.2.3,MacIntel,62.5,,,,,,,
,,,,,,,,,,,,,,,,,,,,,,-27.77777778,-41,20,75,-27.77777778,13.22222222,5.288888889,0.231111111,-0.266666667,1,0,0,0.4,submitButton,17.07076271,-0.204444444,-0.415555556,0,0,0,2,12,132,25,1,41,69859,blockP,180,2022-02-15_12h04.24.119,orientation adjustment blockP,2021.2.3,MacIntel,62.5,,,,,,,
,,,,,,,,,,,,,,,,,,,,,,34.44444444,-22,20,75,-25.55555556,3.555555556,1.422222222,0.373333333,-0.291111111,1,0,0,0.067,submitButton,16.93926237,0.061111111,-0.272222222,0,0,0,2,13,133,6,1,22,69859,blockP,180,2022-02-15_12h04.24.119,orientation adjustment blockP,2021.2.3,MacIntel,62.5,,,,,,,
,,,,,,,,,,,,,,,,,,,,,,-30,-74,20,75,-53,21,13.65,-0.266666667,-0.461111111,1,0,0,1.349,submitButton,16.91185185,0.28,-0.397777778,1,0,0,2,14,134,58,1,74,69859,blockP,180,2022-02-15_12h04.24.119,orientation adjustment blockP,2021.2.3,MacIntel,62.5,continueButton,,,,,,
,,,,,,,,,,,,,,,,,,,,,,45,-18,20,75,163,1,0.4,0.187777778,-0.287777778,1,0,0,1.417,submitButton,16.77539027,0.286666667,-0.351111111,0,0,0,2,15,135,2,1,18,69859,blockP,180,2022-02-15_12h04.24.119,orientation adjustment blockP,2021.2.3,MacIntel,62.5,,,,,,,
,,,,,,,,,,,,,,,,,,,,,,-31.11111111,-63,20,75,-232.1111111,10.88888889,4.355555556,0.375555556,-0.287777778,1,0,0,0.7,submitButton,16.67358834,0.24,-0.192222222,0,0,0,2,16,136,47,1,63,69859,blockP,180,2022-02-15_12h04.24.119,orientation adjustment blockP,2021.2.3,MacIntel,62.5,,,,,,,
,,,,,,,,,,,,,,,,,,,,,,-61.66666667,-64,20,75,-48.66666667,15.33333333,9.966666667,0.212222222,-0.303333333,1,0,0,0.134,submitButton,16.61906052,-0.135555556,-0.405555556,0,0,0,2,17,137,48,1,64,69859,blockP,180,2022-02-15_12h04.24.119,orientation adjustment blockP,2021.2.3,MacIntel,62.5,,,,,,,
,,,,,,,,,,,,,,,,,,,,,,-42.77777778,58,20,75,58.22222222,0.222222222,0.088888889,-0.176666667,-0.362222222,1,0,0,0.9,submitButton,16.48575269,-0.211111111,-0.405555556,0,0,0,2,18,138,42,1,58,69859,blockP,180,2022-02-15_12h04.24.119,orientation adjustment blockP,2021.2.3,MacIntel,62.5,,,,,,,
,,,,,,,,,,,,,,,,,,,,,,-67.77777778,-50,20,75,-233.7777778,3.777777778,1.511111111,0.38,-0.305555556,1,0,0,0.267,submitButton,16.36595556,-0.025555556,-0.465555556,0,0,0,2,19,139,34,1,50,69859,blockP,180,2022-02-15_12h04.24.119,orientation adjustment blockP,2021.2.3,MacIntel,62.5,,,,,,,
,,,,,,,,,,,,,,,,,,,,,,27.77777778,-71,20,75,-61.22222222,9.777777778,3.911111111,0.356666667,-0.287777778,1,0,0,0.265,submitButton,16.26710758,0.03,-0.377777778,0,0,0,2,20,140,55,1,71,69859,blockP,180,2022-02-15_12h04.24.119,orientation adjustment blockP,2021.2.3,MacIntel,62.5,,,,,,,
,,,,,,,,,,,,,,,,,,,,,,-58.33333333,-36,20,75,-48.33333333,12.33333333,4.933333333,-0.168888889,-0.37,1,0,0,0.899,submitButton,16.17786527,-0.202222222,-0.403333333,0,0,0,2,21,141,20,1,36,69859,blockP,180,2022-02-15_12h04.24.119,orientation adjustment blockP,2021.2.3,MacIntel,62.5,,,,,,,
,,,,,,,,,,,,,,,,,,,,,,50.55555556,-35,20,75,142.5555556,2.444444444,0.977777778,0.197777778,-0.301111111,1,0,0,1.799,submitButton,16.05911458,-0.183333333,-0.403333333,0,0,0,2,22,142,19,1,35,69859,blockP,180,2022-02-15_12h04.24.119,orientation adjustment blockP,2021.2.3,MacIntel,62.5,,,,,,,
,,,,,,,,,,,,,,,,,,,,,,-47.77777778,52,20,75,53.22222222,1.222222222,0.488888889,-0.221111111,-0.431111111,1,0,0,0.85,submitButton,15.93841516,-0.233333333,-0.407777778,0,0,0,2,23,143,36,1,52,69859,blockP,180,2022-02-15_12h04.24.119,orientation adjustment blockP,2021.2.3,MacIntel,62.5,,,,,,,
,,,,,,,,,,,,,,,,,,,,,,-41.11111111,-16,20,75,-22.11111111,6.111111111,2.444444444,-0.287777778,-0.441111111,1,0,0,1.083,submitButton,15.83461538,-0.31,-0.394444444,0,0,0,2,24,144,0,1,16,69859,blockP,180,2022-02-15_12h04.24.119,orientation adjustment blockP,2021.2.3,MacIntel,62.5,,,,,,,
,,,,,,,,,,,,,,,,,,,,,,51.66666667,21,20,75,225.6666667,24.66666667,16.03333333,-0.22,-0.422222222,1,0,0,2.817,submitButton,15.83613232,-0.22,-0.422222222,0,0,0,2,25,145,5,1,21,69859,blockP,180,2022-02-15_12h04.24.119,orientation adjustment blockP,2021.2.3,MacIntel,62.5,,,,,,,
,,,,,,,,,,,,,,,,,,,,,,-26.11111111,-26,20,75,-25.11111111,0.888888889,0.355555556,-0.287777778,-0.451111111,1,0,0,0.866,submitButton,15.71885522,-0.307777778,-0.417777778,0,0,0,2,26,146,10,1,26,69859,blockP,180,2022-02-15_12h04.24.119,orientation adjustment blockP,2021.2.3,MacIntel,62.5,,,,,,,
,,,,,,,,,,,,,,,,,,,,,,48.33333333,-53,20,75,-46.66666667,6.333333333,2.533333333,0.37,-0.293333333,1,0,0,0.816,submitButton,15.61971596,-0.376666667,-0.391111111,0,0,0,2,27,147,37,1,53,69859,blockP,180,2022-02-15_12h04.24.119,orientation adjustment blockP,2021.2.3,MacIntel,62.5,,,,,,,
,,,,,,,,,,,,,,,,,,,,,,-49.44444444,65,20,75,55.55555556,9.444444444,3.777777778,-0.247777778,-0.401111111,1,0,0,0.7,submitButton,15.53134328,-0.247777778,-0.401111111,0,0,0,2,28,148,49,1,65,69859,blockP,180,2022-02-15_12h04.24.119,orientation adjustment blockP,2021.2.3,MacIntel,62.5,,,,,,,
,,,,,,,,,,,,,,,,,,,,,,21.11111111,-45,20,75,144.1111111,9.111111111,3.644444444,0.204444444,-0.282222222,1,0,0,2.399,submitButton,15.44329218,0.41,-0.41,1,0,0,2,29,149,29,1,45,69859,blockP,180,2022-02-15_12h04.24.119,orientation adjustment blockP,2021.2.3,MacIntel,62.5,continueButton,,,,,,
,,,,,,,,,,,,,,,,,,,,,,-28.88888889,-25,20,75,-31.88888889,6.888888889,2.755555556,-0.212222222,-0.387777778,1,0,0,1.067,submitButton,15.35,0.218888889,-0.254444444,0,0,0,2,30,150,9,1,25,69859,blockP,180,2022-02-15_12h04.24.119,orientation adjustment blockP,2021.2.3,MacIntel,62.5,,,,,,,
,,,,,,,,,,,,,,,,,,,,,,72.77777778,-57,20,75,-64.22222222,7.222222222,2.888888889,0.372222222,-0.261111111,1,0,0,1.068,submitButton,15.25904298,0.298888889,-0.302222222,0,0,0,2,31,151,41,1,57,69859,blockP,180,2022-02-15_12h04.24.119,orientation adjustment blockP,2021.2.3,MacIntel,62.5,,,,,,,
,,,,,,,,,,,,,,,,,,,,,,71.66666667,-61,20,75,-61.33333333,0.333333333,0.133333333,-0.131111111,-0.416666667,1,0,0,1.283,submitButton,15.14943639,0.111111111,-0.381111111,0,0,0,2,32,152,45,1,61,69859,blockP,180,2022-02-15_12h04.24.119,orientation adjustment blockP,2021.2.3,MacIntel,62.5,,,,,,,
,,,,,,,,,,,,,,,,,,,,,,39.44444444,42,20,75,154.4444444,67.55555556,57.42222222,-0.244444444,-0.433333333,1,0,0,1.2,submitButton,15.45355715,0.016666667,-0.327777778,0,0,0,2,33,153,26,1,42,69859,blockP,180,2022-02-15_12h04.24.119,orientation adjustment blockP,2021.2.3,MacIntel,62.5,,,,,,,
,,,,,,,,,,,,,,,,,,,,,,72.22222222,-59,20,75,141.2222222,20.22222222,13.14444444,0.197777778,-0.314444444,1,0,0,1.783,submitButton,15.43706349,-0.117777778,-0.372222222,0,0,0,2,34,154,43,1,59,69859,blockP,180,2022-02-15_12h04.24.119,orientation adjustment blockP,2021.2.3,MacIntel,62.5,,,,,,,
,,,,,,,,,,,,,,,,,,,,,,-61.11111111,47,20,75,56.88888889,9.888888889,3.955555556,0.2,-0.276666667,1,0,0,0.017,submitButton,15.35563436,0.364444444,-0.328888889,0,0,0,2,35,155,31,1,47,69859,blockP,180,2022-02-15_12h04.24.119,orientation adjustment blockP,2021.2.3,MacIntel,62.5,,,,,,,
,,,,,,,,,,,,,,,,,,,,,,23.33333333,24,20,75,58.33333333,34.33333333,27.46666667,0.228888889,-0.294444444,1,0,0,0.718,submitButton,15.44092332,0.14,-0.356666667,0,0,0,2,36,156,8,1,24,69859,blockP,180,2022-02-15_12h04.24.119,orientation adjustment blockP,2021.2.3,MacIntel,62.5,,,,,,,
,,,,,,,,,,,,,,,,,,,,,,-58.33333333,-33,20,75,-48.33333333,15.33333333,9.966666667,0.203333333,-0.288888889,1,0,0,0.818,submitButton,15.4026418,-0.118888889,-0.397777778,0,0,0,2,37,157,17,1,33,69859,blockP,180,2022-02-15_12h04.24.119,orientation adjustment blockP,2021.2.3,MacIntel,62.5,,,,,,,
,,,,,,,,,,,,,,,,,,,,,,61.66666667,-38,20,75,150.6666667,8.666666667,3.466666667,-0.164444444,-0.393333333,1,0,0,2.368,submitButton,15.31975309,-0.162222222,-0.322222222,0,0,0,2,38,158,22,1,38,69859,blockP,180,2022-02-15_12h04.24.119,orientation adjustment blockP,2021.2.3,MacIntel,62.5,,,,,,,
,,,,,,,,,,,,,,,,,,,,,,56.66666667,-30,20,75,166.6666667,16.66666667,10.83333333,0.23,-0.271111111,1,0,0,1.933,submitButton,15.28881226,-0.004444444,-0.314444444,0,0,0,2,39,159,14,1,30,69859,blockP,180,2022-02-15_12h04.24.119,orientation adjustment blockP,2021.2.3,MacIntel,62.5,,,,,,,
,,,,,,,,,,,,,,,,,,,,,,-48.33333333,-75,20,75,-51.33333333,23.66666667,15.38333333,-0.157777778,-0.405555556,1,0,0,1.701,submitButton,15.28945967,-0.157777778,-0.405555556,0,0,0,2,40,160,59,1,75,69859,blockP,180,2022-02-15_12h04.24.119,orientation adjustment blockP,2021.2.3,MacIntel,62.5,,,,,,,
,,,,,,,,,,,,,,,,,,,,,,41.11111111,46,20,75,38.11111111,7.888888889,3.155555556,0.408888889,-0.3,1,0,0,0.633,submitButton,15.2069161,-0.194444444,-0.422222222,0,0,0,2,41,161,30,1,46,69859,blockP,180,2022-02-15_12h04.24.119,orientation adjustment blockP,2021.2.3,MacIntel,62.5,,,,,,,
,,,,,,,,,,,,,,,,,,,,,,-63.88888889,43,20,75,-143.8888889,6.888888889,2.755555556,0.206666667,-0.283333333,1,0,0,3.282,submitButton,15.12278529,-0.271111111,-0.394444444,0,0,0,2,42,162,27,1,43,69859,blockP,180,2022-02-15_12h04.24.119,orientation adjustment blockP,2021.2.3,MacIntel,62.5,,,,,,,
,,,,,,,,,,,,,,,,,,,,,,57.77777778,37,20,75,36.77777778,0.222222222,0.088888889,-0.216666667,-0.433333333,1,0,0,1.367,submitButton,15.02188665,-0.236666667,-0.407777778,0,0,0,2,43,163,21,1,37,69859,blockP,180,2022-02-15_12h04.24.119,orientation adjustment blockP,2021.2.3,MacIntel,62.5,,,,,,,
,,,,,,,,,,,,,,,,,,,,,,-22.22222222,39,20,75,49.77777778,10.77777778,4.311111111,-0.287777778,-0.462222222,1,0,0,0.883,submitButton,14.95048148,0.241111111,-0.39,1,0,0,2,44,164,23,1,39,69859,blockP,180,2022-02-15_12h04.24.119,orientation adjustment blockP,2021.2.3,MacIntel,62.5,continueButton,,,,,,
,,,,,,,,,,,,,,,,,,,,,,-36.11111111,-55,20,75,-39.11111111,15.88888889,10.32777778,-0.145555556,-0.428888889,1,0,0,1.2,submitButton,14.91986755,0.236666667,-0.303333333,0,0,0,2,45,165,39,1,55,69859,blockP,180,2022-02-15_12h04.24.119,orientation adjustment blockP,2021.2.3,MacIntel,62.5,,,,,,,
,,,,,,,,,,,,,,,,,,,,,,-69.44444444,49,20,75,-157.4444444,26.44444444,17.18888889,0.406666667,-0.271111111,1,0,0,2.018,submitButton,14.93479532,-0.311111111,-0.41,0,0,0,2,46,166,33,1,49,69859,blockP,180,2022-02-15_12h04.24.119,orientation adjustment blockP,2021.2.3,MacIntel,62.5,,,,,,,
,,,,,,,,,,,,,,,,,,,,,,-58.88888889,20,20,75,-156.8888889,3.111111111,1.244444444,0.396666667,-0.298888889,1,0,0,0.05,submitButton,14.8453159,-0.248888889,-0.376666667,0,0,0,2,47,167,4,1,20,69859,blockP,180,2022-02-15_12h04.24.119,orientation adjustment blockP,2021.2.3,MacIntel,62.5,,,,,,,
,,,,,,,,,,,,,,,,,,,,,,-30.55555556,-19,20,75,-14.55555556,4.444444444,1.777777778,0.215555556,-0.32,1,0,0,0.168,submitButton,14.76046176,0.205555556,-0.297777778,0,0,0,2,48,168,3,1,19,69859,blockP,180,2022-02-15_12h04.24.119,orientation adjustment blockP,2021.2.3,MacIntel,62.5,,,,,,,
,,,,,,,,,,,,,,,,,,,,,,-30.55555556,-69,20,75,-38.55555556,30.44444444,24.35555556,-0.13,-0.403333333,1,0,0,1.401,submitButton,14.82236559,-0.13,-0.403333333,0,0,0,2,49,169,53,1,69,69859,blockP,180,2022-02-15_12h04.24.119,orientation adjustment blockP,2021.2.3,MacIntel,62.5,,,,,,,
,,,,,,,,,,,,,,,,,,,,,,-72.77777778,-66,20,75,-37.77777778,28.22222222,18.34444444,-0.224444444,-0.405555556,1,0,0,2.017,submitButton,14.84494302,-0.053333333,-0.316666667,0,0,0,2,50,170,50,1,66,69859,blockP,180,2022-02-15_12h04.24.119,orientation adjustment blockP,2021.2.3,MacIntel,62.5,,,,,,,
,,,,,,,,,,,,,,,,,,,,,,37.22222222,-67,20,75,143.2222222,30.22222222,24.17777778,0.202222222,-0.298888889,1,0,0,2.433,submitButton,14.90438783,-0.202222222,-0.387777778,0,0,0,2,51,171,51,1,67,69859,blockP,180,2022-02-15_12h04.24.119,orientation adjustment blockP,2021.2.3,MacIntel,62.5,,,,,,,
,,,,,,,,,,,,,,,,,,,,,,57.77777778,51,20,75,32.77777778,18.22222222,11.84444444,-0.214444444,-0.4,1,0,0,1.516,submitButton,14.8850211,0.323333333,-0.367777778,0,0,0,2,52,172,35,1,51,69859,blockP,180,2022-02-15_12h04.24.119,orientation adjustment blockP,2021.2.3,MacIntel,62.5,,,,,,,
,,,,,,,,,,,,,,,,,,,,,,40.55555556,-23,20,75,160.5555556,3.555555556,1.422222222,0.223333333,-0.314444444,1,0,0,1.933,submitButton,14.80034941,0.062222222,-0.368888889,0,0,0,2,53,173,7,1,23,69859,blockP,180,2022-02-15_12h04.24.119,orientation adjustment blockP,2021.2.3,MacIntel,62.5,,,,,,,
,,,,,,,,,,,,,,,,,,,,,,32.22222222,60,20,75,29.22222222,30.77777778,24.62222222,0.404444444,-0.274444444,1,0,0,0.633,submitButton,14.86173611,-0.055555556,-0.357777778,0,0,0,2,54,174,44,1,60,69859,blockP,180,2022-02-15_12h04.24.119,orientation adjustment blockP,2021.2.3,MacIntel,62.5,,,,,,,
,,,,,,,,,,,,,,,,,,,,,,60,56,20,75,20,36,28.8,0.394444444,-0.281111111,1,0,0,1.25,submitButton,14.94830918,0.083333333,-0.361111111,0,0,0,2,55,175,40,1,56,69859,blockP,180,2022-02-15_12h04.24.119,orientation adjustment blockP,2021.2.3,MacIntel,62.5,,,,,,,
,,,,,,,,,,,,,,,,,,,,,,62.22222222,48,20,75,23.22222222,24.77777778,16.10555556,-0.235555556,-0.406666667,1,0,0,1.417,submitButton,14.95545267,0.087777778,-0.371111111,0,0,0,2,56,176,32,1,48,69859,blockP,180,2022-02-15_12h04.24.119,orientation adjustment blockP,2021.2.3,MacIntel,62.5,,,,,,,
,,,,,,,,,,,,,,,,,,,,,,-68.88888889,73,20,75,68.11111111,4.888888889,1.955555556,0.217777778,-0.296666667,1,0,0,0.167,submitButton,14.8756987,-0.226666667,-0.413333333,0,0,0,2,57,177,57,1,73,69859,blockP,180,2022-02-15_12h04.24.119,orientation adjustment blockP,2021.2.3,MacIntel,62.5,,,,,,,
,,,,,,,,,,,,,,,,,,,,,,20,-31,20,75,-55,24,15.6,0.411111111,-0.313333333,1,0,0,0.35,submitButton,14.88011518,0.121111111,-0.404444444,0,0,0,2,58,178,15,1,31,69859,blockP,180,2022-02-15_12h04.24.119,orientation adjustment blockP,2021.2.3,MacIntel,62.5,,,,,,,
,,,,,,,,,,,,,,,,,,,,,,-30,-27,20,75,-14,13,5.2,0.212222222,-0.318888889,1,0,0,0.133,submitButton,14.82144781,-0.194444444,-0.374444444,0,0,0,2,59,179,11,1,27,69859,blockP,180,2022-02-15_12h04.24.119,orientation adjustment blockP,2021.2.3,MacIntel,62.5,,,,,,,
,,,,,,,,,,,,,,,,,,,,,,,,,,,,,,,,,,,,,,,,,,,,,,,,69859,blockP,180,2022-02-15_12h04.24.119,orientation adjustment blockP,2021.2.3,MacIntel,62.5,,0.267777778,-0.396666667,1,0,0,EndButtonTxt
