consentMouse1.x,consentMouse1.y,consentMouse1.leftButton,consentMouse1.midButton,consentMouse1.rightButton,consentMouse1.clicked_name,consent_Mouse.x,consent_Mouse.y,consent_Mouse.leftButton,consent_Mouse.midButton,consent_Mouse.rightButton,consent_Mouse.clicked_name,startMouse.x,startMouse.y,startMouse.leftButton,startMouse.midButton,startMouse.rightButton,startMouse_2.x,startMouse_2.y,startMouse_2.leftButton,startMouse_2.midButton,startMouse_2.rightButton,start_distance,fixedOri,minimalDistance,maxOri,this_ori,accuracy,presented_accuracy,submitMouse.x,submitMouse.y,submitMouse.leftButton,submitMouse.midButton,submitMouse.rightButton,submitMouse.time,submitMouse.clicked_name,block_accuracy,continueMouse.x,continueMouse.y,continueMouse.leftButton,continueMouse.midButton,continueMouse.rightButton,trials.thisRepN,trials.thisTrialN,trials.thisN,trials.thisIndex,trials.ran,startOri,participant,condition,nTrials,date,expName,psychopyVersion,OS,frameRate,continueMouse.clicked_name,EndButtonMouse.x,EndButtonMouse.y,EndButtonMouse.leftButton,EndButtonMouse.midButton,EndButtonMouse.rightButton,EndButtonMouse.clicked_name
0.376153999,-0.387045363,1,0,0,consent_button1,0.383070726,-0.400413923,1,0,0,consent_button,0.103362727,-0.257826142,1,0,0,0.114160015,-0.362029808,1,0,0,-33.33333333,-53,20,75,-212.3333333,20.66666667,13.43333333,-0.509911037,-0.416113157,1,0,0,3.8471,submitButton,13.43333333,-0.509911037,-0.416113157,0,0,0,0,0,0,37,1,53,70552,blockP,180,2022-02-16_10h17.08.489,orientation adjustment blockP,2021.2.3,MacIntel,60.0024001,,,,,,,
,,,,,,,,,,,,,,,,,,,,,,55.55555556,32,20,75,217.5555556,5.555555556,2.222222222,0.196190201,-0.286547568,1,0,0,1.2826,submitButton,7.827777778,0.112405497,-0.490808938,0,0,0,0,1,1,16,1,32,70552,blockP,180,2022-02-16_10h17.08.489,orientation adjustment blockP,2021.2.3,MacIntel,60.0024001,,,,,,,
,,,,,,,,,,,,,,,,,,,,,,31.11111111,20,20,75,30.11111111,10.11111111,4.044444444,0.426210268,-0.294790592,1,0,0,0.2503,submitButton,6.566666667,0.216884486,-0.360618735,0,0,0,0,2,2,4,1,20,70552,blockP,180,2022-02-16_10h17.08.489,orientation adjustment blockP,2021.2.3,MacIntel,60.0024001,,,,,,,
,,,,,,,,,,,,,,,,,,,,,,-40.55555556,48,20,75,61.44444444,13.44444444,5.377777778,0.197916991,-0.310673375,1,0,0,0.1495,submitButton,5.377777778,0.315262262,-0.333962317,0,0,0,0,3,3,32,1,48,70552,blockP,180,2022-02-16_10h17.08.489,orientation adjustment blockP,2021.2.3,MacIntel,60.0024001,,,,,,,
,,,,,,,,,,,,,,,,,,,,,,-25.55555556,44,20,75,31.44444444,12.55555556,5.022222222,0.389877784,-0.284056731,1,0,0,0.4182,submitButton,5.2,-0.45521118,-0.396598827,0,0,0,0,4,4,28,1,44,70552,blockP,180,2022-02-16_10h17.08.489,orientation adjustment blockP,2021.2.3,MacIntel,60.0024001,,,,,,,
,,,,,,,,,,,,,,,,,,,,,,31.11111111,-74,20,75,-45.88888889,28.11111111,18.27222222,0.341230373,-0.316687862,1,0,0,0.2333,submitButton,9.557407407,-0.421546969,-0.413510526,0,0,0,0,5,5,58,1,74,70552,blockP,180,2022-02-16_10h17.08.489,orientation adjustment blockP,2021.2.3,MacIntel,60.0024001,,,,,,,
,,,,,,,,,,,,,,,,,,,,,,-32.22222222,26,20,75,30.77777778,4.777777778,1.911111111,-0.317056731,-0.404588586,1,0,0,1.05,submitButton,1.911111111,-0.312680536,-0.404129272,0,0,0,0,6,6,10,1,26,70552,blockP,180,2022-02-16_10h17.08.489,orientation adjustment blockP,2021.2.3,MacIntel,60.0024001,,,,,,,
,,,,,,,,,,,,,,,,,,,,,,-31.11111111,19,20,75,20.88888889,1.888888889,0.755555556,0.176052055,-0.281277018,1,0,0,0.0164,submitButton,1.333333333,-0.314980384,-0.401711606,0,0,0,0,7,7,3,1,19,70552,blockP,180,2022-02-16_10h17.08.489,orientation adjustment blockP,2021.2.3,MacIntel,60.0024001,,,,,,,
,,,,,,,,,,,,,,,,,,,,,,59.44444444,37,20,75,227.4444444,10.44444444,4.177777778,-0.40201346,-0.400381678,1,0,0,3.0827,submitButton,2.281481481,0.349981255,-0.244735208,0,0,0,0,8,8,21,1,37,70552,blockP,180,2022-02-16_10h17.08.489,orientation adjustment blockP,2021.2.3,MacIntel,60.0024001,,,,,,,
,,,,,,,,,,,,,,,,,,,,,,52.22222222,50,20,75,234.2222222,4.222222222,1.688888889,0.156290926,-0.287994252,1,0,0,1.533,submitButton,1.688888889,0.017201993,-0.285661451,0,0,0,0,9,9,34,1,50,70552,blockP,180,2022-02-16_10h17.08.489,orientation adjustment blockP,2021.2.3,MacIntel,60.0024001,,,,,,,
,,,,,,,,,,,,,,,,,,,,,,32.22222222,-73,20,75,-56.77777778,16.22222222,10.54444444,0.414836734,-0.265675671,1,0,0,0.1485,submitButton,6.116666667,-0.046567875,-0.310418869,0,0,0,0,10,10,57,1,73,70552,blockP,180,2022-02-16_10h17.08.489,orientation adjustment blockP,2021.2.3,MacIntel,60.0024001,,,,,,,
,,,,,,,,,,,,,,,,,,,,,,-58.88888889,-63,20,75,-238.8888889,4.111111111,1.644444444,-0.334968423,-0.406371982,1,0,0,2.2492,submitButton,4.625925926,0.133131052,-0.282990432,0,0,0,0,11,11,47,1,63,70552,blockP,180,2022-02-16_10h17.08.489,orientation adjustment blockP,2021.2.3,MacIntel,60.0024001,,,,,,,
,,,,,,,,,,,,,,,,,,,,,,-25,-51,20,75,-245,14,5.6,-0.35795374,-0.415831634,1,0,0,3.2321,submitButton,5.6,0.322895111,-0.210034552,0,0,0,0,12,12,35,1,51,70552,blockP,180,2022-02-16_10h17.08.489,orientation adjustment blockP,2021.2.3,MacIntel,60.0024001,,,,,,,
,,,,,,,,,,,,,,,,,,,,,,40.55555556,16,20,75,30.55555556,14.55555556,5.822222222,0.404179854,-0.258323016,1,0,0,0.1666,submitButton,5.711111111,-0.325095743,-0.413097631,0,0,0,0,13,13,0,1,16,70552,blockP,180,2022-02-16_10h17.08.489,orientation adjustment blockP,2021.2.3,MacIntel,60.0024001,,,,,,,
,,,,,,,,,,,,,,,,,,,,,,-70,-56,20,75,-80,24,15.6,0.40311134,-0.29330874,1,0,0,1.6172,submitButton,9.007407407,0.319709058,-0.401001685,1,0,0,0,14,14,40,1,56,70552,blockP,180,2022-02-16_10h17.08.489,orientation adjustment blockP,2021.2.3,MacIntel,60.0024001,continueButton,,,,,,
,,,,,,,,,,,,,,,,,,,,,,58.88888889,58,20,75,81.88888889,23.88888889,15.52777778,0.386988757,-0.274801888,1,0,0,0.0984,submitButton,15.52777778,0.28025014,-0.328212079,0,0,0,0,15,15,42,1,58,70552,blockP,180,2022-02-16_10h17.08.489,orientation adjustment blockP,2021.2.3,MacIntel,60.0024001,,,,,,,
,,,,,,,,,,,,,,,,,,,,,,66.66666667,-31,20,75,-35.33333333,4.333333333,1.733333333,0.3718764,-0.307515492,1,0,0,0.8818,submitButton,8.630555556,0.242166682,-0.312060352,0,0,0,0,16,16,15,1,31,70552,blockP,180,2022-02-16_10h17.08.489,orientation adjustment blockP,2021.2.3,MacIntel,60.0024001,,,,,,,
,,,,,,,,,,,,,,,,,,,,,,-46.11111111,22,20,75,22.88888889,0.888888889,0.355555556,0.379800163,-0.31485663,1,0,0,1.0327,submitButton,5.872222222,-0.313289205,-0.405314009,0,0,0,0,17,17,6,1,22,70552,blockP,180,2022-02-16_10h17.08.489,orientation adjustment blockP,2021.2.3,MacIntel,60.0024001,,,,,,,
,,,,,,,,,,,,,,,,,,,,,,-58.33333333,62,20,75,66.66666667,4.666666667,1.866666667,0.197634848,-0.310648394,1,0,0,0.7474,submitButton,4.870833333,0.192100226,-0.312561832,0,0,0,0,18,18,46,1,62,70552,blockP,180,2022-02-16_10h17.08.489,orientation adjustment blockP,2021.2.3,MacIntel,60.0024001,,,,,,,
,,,,,,,,,,,,,,,,,,,,,,-26.66666667,39,20,75,23.33333333,15.66666667,10.18333333,0.380137406,-0.272601965,1,0,0,0.167,submitButton,5.933333333,0.213221136,-0.336913265,0,0,0,0,19,19,23,1,39,70552,blockP,180,2022-02-16_10h17.08.489,orientation adjustment blockP,2021.2.3,MacIntel,60.0024001,,,,,,,
,,,,,,,,,,,,,,,,,,,,,,-30,-67,20,75,-71,4,1.6,-0.360057371,-0.402659556,1,0,0,1.2009,submitButton,5.211111111,-0.093898646,-0.438643457,0,0,0,0,20,20,51,1,67,70552,blockP,180,2022-02-16_10h17.08.489,orientation adjustment blockP,2021.2.3,MacIntel,60.0024001,,,,,,,
,,,,,,,,,,,,,,,,,,,,,,-72.77777778,-46,20,75,-75.77777778,29.77777778,19.35555556,0.230512334,-0.327058435,1,0,0,0.1328,submitButton,7.231746032,-0.359944071,-0.410907186,0,0,0,0,21,21,30,1,46,70552,blockP,180,2022-02-16_10h17.08.489,orientation adjustment blockP,2021.2.3,MacIntel,60.0024001,,,,,,,
,,,,,,,,,,,,,,,,,,,,,,-36.66666667,55,20,75,48.33333333,6.666666667,2.666666667,0.201515674,-0.266107612,1,0,0,0.1313,submitButton,6.661111111,0.137160435,-0.291617295,0,0,0,0,22,22,39,1,55,70552,blockP,180,2022-02-16_10h17.08.489,orientation adjustment blockP,2021.2.3,MacIntel,60.0024001,,,,,,,
,,,,,,,,,,,,,,,,,,,,,,-33.88888889,33,20,75,47.11111111,14.11111111,5.644444444,0.196040404,-0.300590615,1,0,0,0.5338,submitButton,6.548148148,-0.356685821,-0.389990642,0,0,0,0,23,23,17,1,33,70552,blockP,180,2022-02-16_10h17.08.489,orientation adjustment blockP,2021.2.3,MacIntel,60.0024001,,,,,,,
,,,,,,,,,,,,,,,,,,,,,,-45,65,20,75,55,10,4,-0.387907164,-0.408763957,1,0,0,1.0661,submitButton,6.293333333,0.031932726,-0.401966377,0,0,0,0,24,24,49,1,65,70552,blockP,180,2022-02-16_10h17.08.489,orientation adjustment blockP,2021.2.3,MacIntel,60.0024001,,,,,,,
,,,,,,,,,,,,,,,,,,,,,,-70.55555556,-42,20,75,-231.5555556,9.555555556,3.822222222,0.408407137,-0.26954188,1,0,0,1.7338,submitButton,6.068686869,0.364182515,-0.320283533,0,0,0,0,25,25,26,1,42,70552,blockP,180,2022-02-16_10h17.08.489,orientation adjustment blockP,2021.2.3,MacIntel,60.0024001,,,,,,,
,,,,,,,,,,,,,,,,,,,,,,-39.44444444,59,20,75,63.55555556,4.555555556,1.822222222,-0.372795338,-0.40740143,1,0,0,1.101,submitButton,5.714814815,-0.372795338,-0.40740143,0,0,0,0,26,26,43,1,59,70552,blockP,180,2022-02-16_10h17.08.489,orientation adjustment blockP,2021.2.3,MacIntel,60.0024001,,,,,,,
,,,,,,,,,,,,,,,,,,,,,,-31.66666667,49,20,75,55.33333333,6.333333333,2.533333333,-0.411156465,-0.412094493,1,0,0,0.9318,submitButton,5.47008547,0.082137729,-0.288166816,0,0,0,0,27,27,33,1,49,70552,blockP,180,2022-02-16_10h17.08.489,orientation adjustment blockP,2021.2.3,MacIntel,60.0024001,,,,,,,
,,,,,,,,,,,,,,,,,,,,,,-52.22222222,-17,20,75,-13.22222222,3.777777778,1.511111111,0.217157416,-0.282846216,1,0,0,0.5365,submitButton,5.187301587,-0.316396683,-0.383073826,0,0,0,0,28,28,1,1,17,70552,blockP,180,2022-02-16_10h17.08.489,orientation adjustment blockP,2021.2.3,MacIntel,60.0024001,,,,,,,
,,,,,,,,,,,,,,,,,,,,,,-22.77777778,-52,20,75,-60.77777778,8.777777778,3.511111111,0.188004049,-0.278421122,1,0,0,0.1662,submitButton,5.075555556,0.344669602,-0.402272173,1,0,0,0,29,29,36,1,52,70552,blockP,180,2022-02-16_10h17.08.489,orientation adjustment blockP,2021.2.3,MacIntel,60.0024001,continueButton,,,,,,
,,,,,,,,,,,,,,,,,,,,,,25,-23,20,75,-32,9,3.6,0.372389042,-0.299806902,1,0,0,0.066,submitButton,4.983333333,-0.341760865,-0.373976133,0,0,0,0,30,30,7,1,23,70552,blockP,180,2022-02-16_10h17.08.489,orientation adjustment blockP,2021.2.3,MacIntel,60.0024001,,,,,,,
,,,,,,,,,,,,,,,,,,,,,,-71.11111111,21,20,75,24.88888889,3.888888889,1.555555556,0.380387305,-0.295865572,1,0,0,1.6161,submitButton,4.781699346,-0.372707107,-0.405047811,0,0,0,0,31,31,5,1,21,70552,blockP,180,2022-02-16_10h17.08.489,orientation adjustment blockP,2021.2.3,MacIntel,60.0024001,,,,,,,
,,,,,,,,,,,,,,,,,,,,,,-23.33333333,-41,20,75,-35.33333333,5.666666667,2.266666667,0.23581876,-0.295218812,1,0,0,0.1649,submitButton,4.641975309,-0.335442575,-0.398740018,0,0,0,0,32,32,25,1,41,70552,blockP,180,2022-02-16_10h17.08.489,orientation adjustment blockP,2021.2.3,MacIntel,60.0024001,,,,,,,
,,,,,,,,,,,,,,,,,,,,,,57.77777778,43,20,75,38.77777778,4.222222222,1.688888889,0.406514515,-0.273806723,1,0,0,1.2001,submitButton,4.486549708,-0.349960615,-0.424696082,0,0,0,0,33,33,27,1,43,70552,blockP,180,2022-02-16_10h17.08.489,orientation adjustment blockP,2021.2.3,MacIntel,60.0024001,,,,,,,
,,,,,,,,,,,,,,,,,,,,,,28.88888889,-29,20,75,-19.11111111,9.888888889,3.955555556,0.397057875,-0.281100645,1,0,0,0.1321,submitButton,4.46,-0.281947519,-0.379102732,0,0,0,0,34,34,13,1,29,70552,blockP,180,2022-02-16_10h17.08.489,orientation adjustment blockP,2021.2.3,MacIntel,60.0024001,,,,,,,
,,,,,,,,,,,,,,,,,,,,,,-70.55555556,-35,20,75,-35.55555556,0.555555556,0.222222222,0.217392344,-0.297084858,1,0,0,1.0327,submitButton,4.258201058,-0.278831714,-0.398818505,0,0,0,0,35,35,19,1,35,70552,blockP,180,2022-02-16_10h17.08.489,orientation adjustment blockP,2021.2.3,MacIntel,60.0024001,,,,,,,
,,,,,,,,,,,,,,,,,,,,,,47.22222222,-28,20,75,-23.77777778,4.222222222,1.688888889,0.225998213,-0.286065311,1,0,0,1.5162,submitButton,4.141414141,-0.320299257,-0.407773753,0,0,0,0,36,36,12,1,28,70552,blockP,180,2022-02-16_10h17.08.489,orientation adjustment blockP,2021.2.3,MacIntel,60.0024001,,,,,,,
,,,,,,,,,,,,,,,,,,,,,,-61.66666667,-64,20,75,-220.6666667,23.33333333,15.16666667,-0.366413797,-0.428687462,1,0,0,4.3181,submitButton,4.620772947,-0.375919691,-0.393619798,0,0,0,0,37,37,48,1,64,70552,blockP,180,2022-02-16_10h17.08.489,orientation adjustment blockP,2021.2.3,MacIntel,60.0024001,,,,,,,
,,,,,,,,,,,,,,,,,,,,,,-31.66666667,75,20,75,81.33333333,6.333333333,2.533333333,0.233921621,-0.292205943,1,0,0,0.6476,submitButton,4.533796296,0.123574045,-0.324296262,0,0,0,0,38,38,59,1,75,70552,blockP,180,2022-02-16_10h17.08.489,orientation adjustment blockP,2021.2.3,MacIntel,60.0024001,,,,,,,
,,,,,,,,,,,,,,,,,,,,,,52.22222222,-27,20,75,-33.77777778,6.777777778,2.711111111,0.407464148,-0.266823734,1,0,0,0.949,submitButton,4.460888889,-0.304556926,-0.395136375,0,0,0,0,39,39,11,1,27,70552,blockP,180,2022-02-16_10h17.08.489,orientation adjustment blockP,2021.2.3,MacIntel,60.0024001,,,,,,,
,,,,,,,,,,,,,,,,,,,,,,-32.22222222,34,20,75,36.77777778,2.777777778,1.111111111,0.224425118,-0.32387061,1,0,0,0.3661,submitButton,4.332051282,0.2257104,-0.285568082,0,0,0,0,40,40,18,1,34,70552,blockP,180,2022-02-16_10h17.08.489,orientation adjustment blockP,2021.2.3,MacIntel,60.0024001,,,,,,,
,,,,,,,,,,,,,,,,,,,,,,45.55555556,-57,20,75,-42.44444444,14.55555556,5.822222222,0.211919732,-0.290870877,1,0,0,0.7836,submitButton,4.387242798,-0.276231829,-0.40551368,0,0,0,0,41,41,41,1,57,70552,blockP,180,2022-02-16_10h17.08.489,orientation adjustment blockP,2021.2.3,MacIntel,60.0024001,,,,,,,
,,,,,,,,,,,,,,,,,,,,,,62.77777778,-24,20,75,-24.22222222,0.222222222,0.088888889,0.187142648,-0.291401059,1,0,0,1.7334,submitButton,4.233730159,-0.354881741,-0.401758734,0,0,0,0,42,42,8,1,24,70552,blockP,180,2022-02-16_10h17.08.489,orientation adjustment blockP,2021.2.3,MacIntel,60.0024001,,,,,,,
,,,,,,,,,,,,,,,,,,,,,,60,-69,20,75,-61,8,3.2,-0.338487866,-0.377869627,1,0,0,4.499,submitButton,4.198084291,0.083877807,-0.304924022,0,0,0,0,43,43,53,1,69,70552,blockP,180,2022-02-16_10h17.08.489,orientation adjustment blockP,2021.2.3,MacIntel,60.0024001,,,,,,,
,,,,,,,,,,,,,,,,,,,,,,-30.55555556,-61,20,75,-253.5555556,12.55555556,5.022222222,0.364979073,-0.286362159,1,0,0,4.9863,submitButton,4.225555556,0.359795602,-0.408229878,1,0,0,0,44,44,45,1,61,70552,blockP,180,2022-02-16_10h17.08.489,orientation adjustment blockP,2021.2.3,MacIntel,60.0024001,continueButton,,,,,,
,,,,,,,,,,,,,,,,,,,,,,28.88888889,70,20,75,257.8888889,7.888888889,3.155555556,0.193529281,-0.312962149,1,0,0,2.6356,submitButton,4.191039427,0.307821199,-0.215772299,0,0,0,0,45,45,54,1,70,70552,blockP,180,2022-02-16_10h17.08.489,orientation adjustment blockP,2021.2.3,MacIntel,60.0024001,,,,,,,
,,,,,,,,,,,,,,,,,,,,,,-63.88888889,-47,20,75,-54.88888889,7.888888889,3.155555556,0.205790704,-0.295379063,1,0,0,1.4143,submitButton,4.158680556,0.330483225,-0.294443604,0,0,0,0,46,46,31,1,47,70552,blockP,180,2022-02-16_10h17.08.489,orientation adjustment blockP,2021.2.3,MacIntel,60.0024001,,,,,,,
,,,,,,,,,,,,,,,,,,,,,,21.66666667,-38,20,75,-23.33333333,14.66666667,5.866666667,-0.338499825,-0.373839535,1,0,0,0.7831,submitButton,4.21043771,-0.338499825,-0.373839535,0,0,0,0,47,47,22,1,38,70552,blockP,180,2022-02-16_10h17.08.489,orientation adjustment blockP,2021.2.3,MacIntel,60.0024001,,,,,,,
,,,,,,,,,,,,,,,,,,,,,,35.55555556,-54,20,75,-55.44444444,1.444444444,0.577777778,0.201232379,-0.289213538,1,0,0,1.0666,submitButton,4.103594771,0.114429402,-0.377845709,0,0,0,0,48,48,38,1,54,70552,blockP,180,2022-02-16_10h17.08.489,orientation adjustment blockP,2021.2.3,MacIntel,60.0024001,,,,,,,
,,,,,,,,,,,,,,,,,,,,,,39.44444444,-40,20,75,-43.55555556,3.555555556,1.422222222,0.402999014,-0.312086928,1,0,0,0.9029,submitButton,4.026984127,0.188867223,-0.269767241,0,0,0,0,49,49,24,1,40,70552,blockP,180,2022-02-16_10h17.08.489,orientation adjustment blockP,2021.2.3,MacIntel,60.0024001,,,,,,,
,,,,,,,,,,,,,,,,,,,,,,22.77777778,60,20,75,62.77777778,2.777777778,1.111111111,0.386377786,-0.284115995,1,0,0,0.4498,submitButton,3.945987654,0.384549832,-0.229213942,0,0,0,0,50,50,44,1,60,70552,blockP,180,2022-02-16_10h17.08.489,orientation adjustment blockP,2021.2.3,MacIntel,60.0024001,,,,,,,
,,,,,,,,,,,,,,,,,,,,,,42.77777778,72,20,75,67.77777778,4.222222222,1.688888889,0.384297718,-0.267178252,1,0,0,0.6008,submitButton,3.884984985,-0.340382791,-0.388358195,0,0,0,0,51,51,56,1,72,70552,blockP,180,2022-02-16_10h17.08.489,orientation adjustment blockP,2021.2.3,MacIntel,60.0024001,,,,,,,
,,,,,,,,,,,,,,,,,,,,,,74.44444444,45,20,75,229.4444444,4.444444444,1.777777778,0.206798537,-0.268742222,1,0,0,0.1661,submitButton,3.829532164,0.242793068,-0.264053588,0,0,0,0,52,52,29,1,45,70552,blockP,180,2022-02-16_10h17.08.489,orientation adjustment blockP,2021.2.3,MacIntel,60.0024001,,,,,,,
,,,,,,,,,,,,,,,,,,,,,,-20,-68,20,75,-67,1,0.4,0.157359086,-0.30185375,1,0,0,0.2177,submitButton,3.741595442,-0.374255531,-0.399375439,0,0,0,0,53,53,52,1,68,70552,blockP,180,2022-02-16_10h17.08.489,orientation adjustment blockP,2021.2.3,MacIntel,60.0024001,,,,,,,
,,,,,,,,,,,,,,,,,,,,,,-66.11111111,71,20,75,49.88888889,21.11111111,13.72222222,-0.345518248,-0.401763163,1,0,0,1.8165,submitButton,3.991111111,-0.188263072,-0.359417609,0,0,0,0,54,54,55,1,71,70552,blockP,180,2022-02-16_10h17.08.489,orientation adjustment blockP,2021.2.3,MacIntel,60.0024001,,,,,,,
,,,,,,,,,,,,,,,,,,,,,,-73.88888889,-18,20,75,-200.8888889,2.888888889,1.155555556,0.373401836,-0.275304166,1,0,0,0.2678,submitButton,3.92195122,-0.337395168,-0.408727283,0,0,0,0,55,55,2,1,18,70552,blockP,180,2022-02-16_10h17.08.489,orientation adjustment blockP,2021.2.3,MacIntel,60.0024001,,,,,,,
,,,,,,,,,,,,,,,,,,,,,,51.66666667,30,20,75,35.66666667,5.666666667,2.266666667,0.402245952,-0.305984386,1,0,0,0.3175,submitButton,3.882539683,-0.30363533,-0.398283273,0,0,0,0,56,56,14,1,30,70552,blockP,180,2022-02-16_10h17.08.489,orientation adjustment blockP,2021.2.3,MacIntel,60.0024001,,,,,,,
,,,,,,,,,,,,,,,,,,,,,,-48.88888889,-66,20,75,-52.88888889,13.11111111,5.244444444,0.15311701,-0.324591605,1,0,0,0.7974,submitButton,3.914211886,0.033946266,-0.326390769,0,0,0,0,57,57,50,1,66,70552,blockP,180,2022-02-16_10h17.08.489,orientation adjustment blockP,2021.2.3,MacIntel,60.0024001,,,,,,,
,,,,,,,,,,,,,,,,,,,,,,-68.88888889,-36,20,75,-228.8888889,12.88888889,5.155555556,0.399200572,-0.291352957,1,0,0,2.1838,submitButton,3.942424242,-0.362363729,-0.423547664,0,0,0,0,58,58,20,1,36,70552,blockP,180,2022-02-16_10h17.08.489,orientation adjustment blockP,2021.2.3,MacIntel,60.0024001,,,,,,,
,,,,,,,,,,,,,,,,,,,,,,56.66666667,25,20,75,68.66666667,43.66666667,34.93333333,0.323553121,-0.29891485,1,0,0,2.2353,submitButton,4.631111111,0.349206047,-0.403864668,1,0,0,0,59,59,9,1,25,70552,blockP,180,2022-02-16_10h17.08.489,orientation adjustment blockP,2021.2.3,MacIntel,60.0024001,continueButton,,,,,,
,,,,,,,,,,,,,,,,,,,,,,57.22222222,-45,20,75,-35.77777778,9.222222222,3.688888889,0.237127429,-0.2993863,1,0,0,1.4842,submitButton,4.610628019,-0.396216494,-0.403274337,0,0,0,1,0,60,29,1,45,70552,blockP,180,2022-02-16_10h17.08.489,orientation adjustment blockP,2021.2.3,MacIntel,60.0024001,,,,,,,
,,,,,,,,,,,,,,,,,,,,,,38.33333333,-39,20,75,-41.66666667,2.666666667,1.066666667,0.410693785,-0.276349382,1,0,0,0.3342,submitButton,4.535224586,-0.364458901,-0.407621741,0,0,0,1,1,61,23,1,39,70552,blockP,180,2022-02-16_10h17.08.489,orientation adjustment blockP,2021.2.3,MacIntel,60.0024001,,,,,,,
,,,,,,,,,,,,,,,,,,,,,,41.66666667,-56,20,75,-54.33333333,1.666666667,0.666666667,0.398058444,-0.329822823,1,0,0,0.4171,submitButton,4.45462963,-0.384204527,-0.392136794,0,0,0,1,2,62,40,1,56,70552,blockP,180,2022-02-16_10h17.08.489,orientation adjustment blockP,2021.2.3,MacIntel,60.0024001,,,,,,,
,,,,,,,,,,,,,,,,,,,,,,57.77777778,17,20,75,12.77777778,4.222222222,1.688888889,0.410132332,-0.298027758,1,0,0,0.0977,submitButton,4.398185941,-0.40801497,-0.414043011,0,0,0,1,3,63,1,1,17,70552,blockP,180,2022-02-16_10h17.08.489,orientation adjustment blockP,2021.2.3,MacIntel,60.0024001,,,,,,,
,,,,,,,,,,,,,,,,,,,,,,33.88888889,-42,20,75,-32.11111111,9.888888889,3.955555556,0.373943711,-0.29738029,1,0,0,0.3821,submitButton,4.389333333,-0.330197759,-0.412824434,0,0,0,1,4,64,26,1,42,70552,blockP,180,2022-02-16_10h17.08.489,orientation adjustment blockP,2021.2.3,MacIntel,60.0024001,,,,,,,
,,,,,,,,,,,,,,,,,,,,,,-48.33333333,38,20,75,40.66666667,2.666666667,1.066666667,-0.371157576,-0.414445719,1,0,0,1.3996,submitButton,4.324183007,0.188061187,-0.301381769,0,0,0,1,5,65,22,1,38,70552,blockP,180,2022-02-16_10h17.08.489,orientation adjustment blockP,2021.2.3,MacIntel,60.0024001,,,,,,,
,,,,,,,,,,,,,,,,,,,,,,-36.66666667,61,20,75,49.33333333,11.66666667,4.666666667,0.193129497,-0.320777749,1,0,0,0.6504,submitButton,4.330769231,-0.340904646,-0.405338725,0,0,0,1,6,66,45,1,61,70552,blockP,180,2022-02-16_10h17.08.489,orientation adjustment blockP,2021.2.3,MacIntel,60.0024001,,,,,,,
,,,,,,,,,,,,,,,,,,,,,,74.44444444,-28,20,75,-27.55555556,0.444444444,0.177777778,0.237075784,-0.312677879,1,0,0,4.5491,submitButton,4.252410901,-0.304680413,-0.415990821,0,0,0,1,7,67,12,1,28,70552,blockP,180,2022-02-16_10h17.08.489,orientation adjustment blockP,2021.2.3,MacIntel,60.0024001,,,,,,,
,,,,,,,,,,,,,,,,,,,,,,-66.66666667,73,20,75,58.33333333,14.66666667,5.866666667,-0.336016075,-0.409228498,1,0,0,2.7651,submitButton,4.282304527,-0.336016075,-0.409228498,0,0,0,1,8,68,57,1,73,70552,blockP,180,2022-02-16_10h17.08.489,orientation adjustment blockP,2021.2.3,MacIntel,60.0024001,,,,,,,
,,,,,,,,,,,,,,,,,,,,,,-21.66666667,-16,20,75,-13.66666667,2.333333333,0.933333333,0.211831235,-0.314989508,1,0,0,0.2855,submitButton,4.221414141,-0.307685841,-0.379097505,0,0,0,1,9,69,0,1,16,70552,blockP,180,2022-02-16_10h17.08.489,orientation adjustment blockP,2021.2.3,MacIntel,60.0024001,,,,,,,
,,,,,,,,,,,,,,,,,,,,,,62.77777778,47,20,75,35.77777778,11.22222222,4.488888889,0.410429801,-0.308156051,1,0,0,1.1672,submitButton,4.226190476,-0.324671331,-0.399542157,0,0,0,1,10,70,31,1,47,70552,blockP,180,2022-02-16_10h17.08.489,orientation adjustment blockP,2021.2.3,MacIntel,60.0024001,,,,,,,
,,,,,,,,,,,,,,,,,,,,,,-44.44444444,25,20,75,22.55555556,2.444444444,0.977777778,0.40892031,-0.297532479,1,0,0,1.5507,submitButton,4.16920078,0.112740881,-0.353350768,0,0,0,1,11,71,9,1,25,70552,blockP,180,2022-02-16_10h17.08.489,orientation adjustment blockP,2021.2.3,MacIntel,60.0024001,,,,,,,
,,,,,,,,,,,,,,,,,,,,,,74.44444444,49,20,75,68.44444444,19.44444444,12.63888889,0.354348502,-0.30545633,1,0,0,0.2661,submitButton,4.315229885,-0.331817317,-0.386824166,0,0,0,1,12,72,33,1,49,70552,blockP,180,2022-02-16_10h17.08.489,orientation adjustment blockP,2021.2.3,MacIntel,60.0024001,,,,,,,
,,,,,,,,,,,,,,,,,,,,,,41.66666667,58,20,75,51.66666667,6.333333333,2.533333333,0.376686661,-0.311563744,1,0,0,0.3156,submitButton,4.285028249,-0.159724663,-0.387101792,0,0,0,1,13,73,42,1,58,70552,blockP,180,2022-02-16_10h17.08.489,orientation adjustment blockP,2021.2.3,MacIntel,60.0024001,,,,,,,
,,,,,,,,,,,,,,,,,,,,,,33.33333333,30,20,75,31.33333333,1.333333333,0.533333333,0.404694977,-0.306705204,1,0,0,0.1657,submitButton,4.2225,0.339735676,-0.401331665,1,0,0,1,14,74,14,1,30,70552,blockP,180,2022-02-16_10h17.08.489,orientation adjustment blockP,2021.2.3,MacIntel,60.0024001,continueButton,,,,,,
,,,,,,,,,,,,,,,,,,,,,,-56.11111111,-50,20,75,-233.1111111,3.111111111,1.244444444,0.416909006,-0.299639831,1,0,0,3.8161,submitButton,4.173679417,-0.375788053,-0.418692756,0,0,0,1,15,75,34,1,50,70552,blockP,180,2022-02-16_10h17.08.489,orientation adjustment blockP,2021.2.3,MacIntel,60.0024001,,,,,,,
,,,,,,,,,,,,,,,,,,,,,,30,-72,20,75,-64,8,3.2,0.176759761,-0.279323539,1,0,0,0.5996,submitButton,4.15797491,0.517737933,-0.278277349,0,0,0,1,16,76,56,1,72,70552,blockP,180,2022-02-16_10h17.08.489,orientation adjustment blockP,2021.2.3,MacIntel,60.0024001,,,,,,,
,,,,,,,,,,,,,,,,,,,,,,-67.22222222,40,20,75,36.77777778,3.222222222,1.288888889,0.178488943,-0.266590135,1,0,0,1.5838,submitButton,4.112433862,-0.344772095,-0.394120392,0,0,0,1,17,77,24,1,40,70552,blockP,180,2022-02-16_10h17.08.489,orientation adjustment blockP,2021.2.3,MacIntel,60.0024001,,,,,,,
,,,,,,,,,,,,,,,,,,,,,,-48.88888889,24,20,75,25.11111111,1.111111111,0.444444444,0.18920987,-0.288354971,1,0,0,0.8502,submitButton,4.055121528,-0.356522337,-0.398311089,0,0,0,1,18,78,8,1,24,70552,blockP,180,2022-02-16_10h17.08.489,orientation adjustment blockP,2021.2.3,MacIntel,60.0024001,,,,,,,
,,,,,,,,,,,,,,,,,,,,,,-27.77777778,34,20,75,31.22222222,2.777777778,1.111111111,0.206383338,-0.299502612,1,0,0,0.1165,submitButton,4.00982906,-0.40112628,-0.408473398,0,0,0,1,19,79,18,1,34,70552,blockP,180,2022-02-16_10h17.08.489,orientation adjustment blockP,2021.2.3,MacIntel,60.0024001,,,,,,,
,,,,,,,,,,,,,,,,,,,,,,45,-43,20,75,-48,5,2,-0.303637057,-0.376902631,1,0,0,1.1013,submitButton,3.979377104,-0.29850284,-0.376902631,0,0,0,1,20,80,27,1,43,70552,blockP,180,2022-02-16_10h17.08.489,orientation adjustment blockP,2021.2.3,MacIntel,60.0024001,,,,,,,
,,,,,,,,,,,,,,,,,,,,,,-61.11111111,-48,20,75,-61.11111111,13.11111111,5.244444444,0.245595547,-0.296091199,1,0,0,0.3678,submitButton,3.998258706,-0.371775988,-0.419308069,0,0,0,1,21,81,32,1,48,70552,blockP,180,2022-02-16_10h17.08.489,orientation adjustment blockP,2021.2.3,MacIntel,60.0024001,,,,,,,
,,,,,,,,,,,,,,,,,,,,,,61.11111111,27,20,75,32.11111111,5.111111111,2.044444444,0.382107362,-0.294643983,1,0,0,0.7834,submitButton,3.969526144,-0.333915854,-0.375197899,0,0,0,1,22,82,11,1,27,70552,blockP,180,2022-02-16_10h17.08.489,orientation adjustment blockP,2021.2.3,MacIntel,60.0024001,,,,,,,
,,,,,,,,,,,,,,,,,,,,,,-27.22222222,-51,20,75,-56.22222222,5.222222222,2.088888889,0.199656006,-0.267305814,1,0,0,0.0667,submitButton,3.942270531,0.045585023,-0.373538877,0,0,0,1,23,83,35,1,51,70552,blockP,180,2022-02-16_10h17.08.489,orientation adjustment blockP,2021.2.3,MacIntel,60.0024001,,,,,,,
,,,,,,,,,,,,,,,,,,,,,,-57.77777778,-70,20,75,-64.77777778,5.222222222,2.088888889,0.178948168,-0.290494656,1,0,0,0.4835,submitButton,3.915793651,-0.339657633,-0.385661044,0,0,0,1,24,84,54,1,70,70552,blockP,180,2022-02-16_10h17.08.489,orientation adjustment blockP,2021.2.3,MacIntel,60.0024001,,,,,,,
,,,,,,,,,,,,,,,,,,,,,,-34.44444444,-55,20,75,-53.44444444,1.555555556,0.622222222,0.189464375,-0.305997674,1,0,0,0.2343,submitButton,3.869405321,0.100559716,-0.351584646,0,0,0,1,25,85,39,1,55,70552,blockP,180,2022-02-16_10h17.08.489,orientation adjustment blockP,2021.2.3,MacIntel,60.0024001,,,,,,,
,,,,,,,,,,,,,,,,,,,,,,-51.11111111,-19,20,75,-27.11111111,8.111111111,3.244444444,-0.397634919,-0.408419007,1,0,0,2.3479,submitButton,3.860725309,-0.397634919,-0.408419007,0,0,0,1,26,86,3,1,19,70552,blockP,180,2022-02-16_10h17.08.489,orientation adjustment blockP,2021.2.3,MacIntel,60.0024001,,,,,,,
,,,,,,,,,,,,,,,,,,,,,,61.66666667,-18,20,75,163.6666667,1.666666667,0.666666667,0.200932784,-0.300085059,1,0,0,0.216,submitButton,3.816971081,-0.38801444,-0.390779492,0,0,0,1,27,87,2,1,18,70552,blockP,180,2022-02-16_10h17.08.489,orientation adjustment blockP,2021.2.3,MacIntel,60.0024001,,,,,,,
,,,,,,,,,,,,,,,,,,,,,,-32.22222222,-62,20,75,-54.22222222,7.777777778,3.111111111,0.143085452,-0.302204813,1,0,0,0.0167,submitButton,3.807432432,-0.337343169,-0.385934151,0,0,0,1,28,88,46,1,62,70552,blockP,180,2022-02-16_10h17.08.489,orientation adjustment blockP,2021.2.3,MacIntel,60.0024001,,,,,,,
,,,,,,,,,,,,,,,,,,,,,,-60,26,20,75,-48,74,66.6,0.406261693,-0.291386797,1,0,0,0.701,submitButton,4.644666667,0.386377874,-0.402920439,1,0,0,1,29,89,10,1,26,70552,blockP,180,2022-02-16_10h17.08.489,orientation adjustment blockP,2021.2.3,MacIntel,60.0024001,continueButton,,,,,,
,,,,,,,,,,,,,,,,,,,,,,75,-64,20,75,-68,4,1.6,-0.42840585,-0.419460967,1,0,0,1.8502,submitButton,4.604605263,0.337967694,-0.312810491,0,0,0,1,30,90,48,1,64,70552,blockP,180,2022-02-16_10h17.08.489,orientation adjustment blockP,2021.2.3,MacIntel,60.0024001,,,,,,,
,,,,,,,,,,,,,,,,,,,,,,-34.44444444,74,20,75,69.55555556,4.444444444,1.777777778,-0.303994321,-0.372560188,1,0,0,1.1145,submitButton,4.567893218,-0.303994321,-0.372560188,0,0,0,1,31,91,58,1,74,70552,blockP,180,2022-02-16_10h17.08.489,orientation adjustment blockP,2021.2.3,MacIntel,60.0024001,,,,,,,
,,,,,,,,,,,,,,,,,,,,,,-73.33333333,-67,20,75,-70.33333333,3.333333333,1.333333333,0.192503997,-0.303439513,1,0,0,0.4978,submitButton,4.526424501,-0.344036041,-0.39753402,0,0,0,1,32,92,51,1,67,70552,blockP,180,2022-02-16_10h17.08.489,orientation adjustment blockP,2021.2.3,MacIntel,60.0024001,,,,,,,
,,,,,,,,,,,,,,,,,,,,,,31.66666667,-54,20,75,-64.33333333,10.33333333,4.133333333,-0.457018848,-0.44555983,1,0,0,1.9339,submitButton,4.521448664,-0.38242742,-0.423349942,0,0,0,1,33,93,38,1,54,70552,blockP,180,2022-02-16_10h17.08.489,orientation adjustment blockP,2021.2.3,MacIntel,60.0024001,,,,,,,
,,,,,,,,,,,,,,,,,,,,,,-72.77777778,-60,20,75,-59.77777778,0.222222222,0.088888889,0.186507669,-0.291672129,1,0,0,0.3816,submitButton,4.466041667,0.11044936,-0.367630337,0,0,0,1,34,94,44,1,60,70552,blockP,180,2022-02-16_10h17.08.489,orientation adjustment blockP,2021.2.3,MacIntel,60.0024001,,,,,,,
,,,,,,,,,,,,,,,,,,,,,,45.55555556,-59,20,75,-52.44444444,6.555555556,2.622222222,-0.307097459,-0.404540307,1,0,0,1.8029,submitButton,4.443278464,-0.307097459,-0.404540307,0,0,0,1,35,95,43,1,59,70552,blockP,180,2022-02-16_10h17.08.489,orientation adjustment blockP,2021.2.3,MacIntel,60.0024001,,,,,,,
,,,,,,,,,,,,,,,,,,,,,,-21.66666667,44,20,75,43.33333333,0.666666667,0.266666667,-0.406486699,-0.410606883,1,0,0,3.9818,submitButton,4.392344173,-0.406486699,-0.410606883,0,0,0,1,36,96,28,1,44,70552,blockP,180,2022-02-16_10h17.08.489,orientation adjustment blockP,2021.2.3,MacIntel,60.0024001,,,,,,,
,,,,,,,,,,,,,,,,,,,,,,42.22222222,-53,20,75,-46.77777778,6.222222222,2.488888889,-0.421475747,-0.402575754,1,0,0,1.8307,submitButton,4.369410977,-0.421475747,-0.402575754,0,0,0,1,37,97,37,1,53,70552,blockP,180,2022-02-16_10h17.08.489,orientation adjustment blockP,2021.2.3,MacIntel,60.0024001,,,,,,,
,,,,,,,,,,,,,,,,,,,,,,63.33333333,21,20,75,22.33333333,1.333333333,0.533333333,0.386245617,-0.288469511,1,0,0,0.1667,submitButton,4.323743386,0.096715299,-0.325419079,0,0,0,1,38,98,5,1,21,70552,blockP,180,2022-02-16_10h17.08.489,orientation adjustment blockP,2021.2.3,MacIntel,60.0024001,,,,,,,
,,,,,,,,,,,,,,,,,,,,,,64.44444444,-32,20,75,-28.55555556,3.444444444,1.377777778,0.227965777,-0.309021262,1,0,0,2.0332,submitButton,4.289084967,-0.338627919,-0.395685514,0,0,0,1,39,99,16,1,32,70552,blockP,180,2022-02-16_10h17.08.489,orientation adjustment blockP,2021.2.3,MacIntel,60.0024001,,,,,,,
,,,,,,,,,,,,,,,,,,,,,,68.88888889,-33,20,75,-34.11111111,1.111111111,0.444444444,0.381174029,-0.298405042,1,0,0,0.5335,submitButton,4.244379845,-0.367960228,-0.392887907,0,0,0,1,40,100,17,1,33,70552,blockP,180,2022-02-16_10h17.08.489,orientation adjustment blockP,2021.2.3,MacIntel,60.0024001,,,,,,,
,,,,,,,,,,,,,,,,,,,,,,47.77777778,-31,20,75,-29.22222222,1.777777778,0.711111111,0.394865836,-0.316884964,1,0,0,0.1166,submitButton,4.203767561,-0.374523146,-0.393738147,0,0,0,1,41,101,15,1,31,70552,blockP,180,2022-02-16_10h17.08.489,orientation adjustment blockP,2021.2.3,MacIntel,60.0024001,,,,,,,
,,,,,,,,,,,,,,,,,,,,,,35.55555556,46,20,75,53.55555556,7.555555556,3.022222222,0.414773573,-0.307865935,1,0,0,0.4839,submitButton,4.190340909,-0.401457101,-0.418918648,0,0,0,1,42,102,30,1,46,70552,blockP,180,2022-02-16_10h17.08.489,orientation adjustment blockP,2021.2.3,MacIntel,60.0024001,,,,,,,
,,,,,,,,,,,,,,,,,,,,,,62.77777778,29,20,75,42.77777778,13.77777778,5.511111111,0.37882989,-0.288422472,1,0,0,0.4843,submitButton,4.205181024,-0.364843626,-0.405117262,0,0,0,1,43,103,13,1,29,70552,blockP,180,2022-02-16_10h17.08.489,orientation adjustment blockP,2021.2.3,MacIntel,60.0024001,,,,,,,
,,,,,,,,,,,,,,,,,,,,,,-45.55555556,66,20,75,64.44444444,1.555555556,0.622222222,0.407617577,-0.30829947,1,0,0,0.9646,submitButton,4.16537037,0.349329003,-0.40145533,1,0,0,1,44,104,50,1,66,70552,blockP,180,2022-02-16_10h17.08.489,orientation adjustment blockP,2021.2.3,MacIntel,60.0024001,continueButton,,,,,,
,,,,,,,,,,,,,,,,,,,,,,-53.33333333,36,20,75,27.66666667,8.333333333,3.333333333,-0.370261758,-0.395850991,1,0,0,1.8844,submitButton,4.156227106,-0.370261758,-0.395850991,0,0,0,1,45,105,20,1,36,70552,blockP,180,2022-02-16_10h17.08.489,orientation adjustment blockP,2021.2.3,MacIntel,60.0024001,,,,,,,
,,,,,,,,,,,,,,,,,,,,,,-32.22222222,-20,20,75,-16.22222222,3.777777778,1.511111111,0.221208237,-0.298616584,1,0,0,0.017,submitButton,4.127475845,-0.419859644,-0.41611546,0,0,0,1,46,106,4,1,20,70552,blockP,180,2022-02-16_10h17.08.489,orientation adjustment blockP,2021.2.3,MacIntel,60.0024001,,,,,,,
,,,,,,,,,,,,,,,,,,,,,,53.88888889,-63,20,75,-65.11111111,2.111111111,0.844444444,-0.365044803,-0.392906864,1,0,0,1.9671,submitButton,4.092174432,-0.365044803,-0.392906864,0,0,0,1,47,107,47,1,63,70552,blockP,180,2022-02-16_10h17.08.489,orientation adjustment blockP,2021.2.3,MacIntel,60.0024001,,,,,,,
,,,,,,,,,,,,,,,,,,,,,,-23.33333333,37,20,75,22.66666667,14.33333333,5.733333333,-0.369405406,-0.401454798,1,0,0,1.1004,submitButton,4.10963357,-0.368868934,-0.401454798,0,0,0,1,48,108,21,1,37,70552,blockP,180,2022-02-16_10h17.08.489,orientation adjustment blockP,2021.2.3,MacIntel,60.0024001,,,,,,,
,,,,,,,,,,,,,,,,,,,,,,62.77777778,-41,20,75,-33.22222222,7.777777778,3.111111111,-0.347253188,-0.418717737,1,0,0,1.5333,submitButton,4.099122807,-0.347253188,-0.418014106,0,0,0,1,49,109,25,1,41,70552,blockP,180,2022-02-16_10h17.08.489,orientation adjustment blockP,2021.2.3,MacIntel,60.0024001,,,,,,,
,,,,,,,,,,,,,,,,,,,,,,33.88888889,71,20,75,68.88888889,2.111111111,0.844444444,0.38869225,-0.300794715,1,0,0,0.1666,submitButton,4.065219907,0.138152855,-0.229441871,0,0,0,1,50,110,55,1,71,70552,blockP,180,2022-02-16_10h17.08.489,orientation adjustment blockP,2021.2.3,MacIntel,60.0024001,,,,,,,
,,,,,,,,,,,,,,,,,,,,,,21.66666667,68,20,75,66.66666667,1.333333333,0.533333333,0.207910457,-0.303677098,1,0,0,1.2005,submitButton,4.028808706,-0.355999552,-0.399453306,0,0,0,1,51,111,52,1,68,70552,blockP,180,2022-02-16_10h17.08.489,orientation adjustment blockP,2021.2.3,MacIntel,60.0024001,,,,,,,
,,,,,,,,,,,,,,,,,,,,,,-52.22222222,-52,20,75,-51.22222222,0.777777778,0.311111111,0.228981406,-0.312333194,1,0,0,0.0171,submitButton,3.990873016,-0.38124224,-0.391522013,0,0,0,1,52,112,36,1,52,70552,blockP,180,2022-02-16_10h17.08.489,orientation adjustment blockP,2021.2.3,MacIntel,60.0024001,,,,,,,
,,,,,,,,,,,,,,,,,,,,,,-50,-69,20,75,-57,12,4.8,0.188962983,-0.300825897,1,0,0,0.1172,submitButton,3.999046016,-0.359058485,-0.37918051,0,0,0,1,53,113,53,1,69,70552,blockP,180,2022-02-16_10h17.08.489,orientation adjustment blockP,2021.2.3,MacIntel,60.0024001,,,,,,,
,,,,,,,,,,,,,,,,,,,,,,41.66666667,-23,20,75,-19.33333333,3.666666667,1.466666667,0.394385085,-0.275329501,1,0,0,0.4652,submitButton,3.973722222,-0.279783739,-0.387928026,0,0,0,1,54,114,7,1,23,70552,blockP,180,2022-02-16_10h17.08.489,orientation adjustment blockP,2021.2.3,MacIntel,60.0024001,,,,,,,
,,,,,,,,,,,,,,,,,,,,,,-38.88888889,57,20,75,48.11111111,8.888888889,3.555555556,0.165105944,-0.325376292,1,0,0,0.4002,submitButton,3.969581958,-0.335582451,-0.381670549,0,0,0,1,55,115,41,1,57,70552,blockP,180,2022-02-16_10h17.08.489,orientation adjustment blockP,2021.2.3,MacIntel,60.0024001,,,,,,,
,,,,,,,,,,,,,,,,,,,,,,-57.77777778,-65,20,75,-60.77777778,4.222222222,1.688888889,0.208912887,-0.316329181,1,0,0,0.9498,submitButton,3.947222222,-0.338259936,-0.399282602,0,0,0,1,56,116,49,1,65,70552,blockP,180,2022-02-16_10h17.08.489,orientation adjustment blockP,2021.2.3,MacIntel,60.0024001,,,,,,,
,,,,,,,,,,,,,,,,,,,,,,-62.77777778,-35,20,75,-219.7777778,4.777777778,1.911111111,0.384719826,-0.323225533,1,0,0,0.068,submitButton,3.927454153,-0.398292398,-0.419240567,0,0,0,1,57,117,19,1,35,70552,blockP,180,2022-02-16_10h17.08.489,orientation adjustment blockP,2021.2.3,MacIntel,60.0024001,,,,,,,
,,,,,,,,,,,,,,,,,,,,,,-55,-75,20,75,-49,26,16.9,0.181355558,-0.316988343,1,0,0,0.5664,submitButton,4.052190171,-0.371044674,-0.417170864,0,0,0,1,58,118,59,1,75,70552,blockP,180,2022-02-16_10h17.08.489,orientation adjustment blockP,2021.2.3,MacIntel,60.0024001,,,,,,,
,,,,,,,,,,,,,,,,,,,,,,67.77777778,22,20,75,16.77777778,5.222222222,2.088888889,0.415632229,-0.314363831,1,0,0,0.3668,submitButton,4.033492063,0.33220966,-0.38784263,1,0,0,1,59,119,6,1,22,70552,blockP,180,2022-02-16_10h17.08.489,orientation adjustment blockP,2021.2.3,MacIntel,60.0024001,continueButton,,,,,,
,,,,,,,,,,,,,,,,,,,,,,-58.88888889,58,20,75,44.11111111,13.88888889,5.555555556,0.194457742,-0.304283818,1,0,0,0.149,submitButton,4.047851153,-0.335538778,-0.412497112,0,0,0,2,0,120,42,1,58,70552,blockP,180,2022-02-16_10h17.08.489,orientation adjustment blockP,2021.2.3,MacIntel,60.0024001,,,,,,,
,,,,,,,,,,,,,,,,,,,,,,50.55555556,-40,20,75,-25.44444444,14.55555556,5.822222222,0.264711687,-0.277282449,1,0,0,0.717,submitButton,4.06443406,-0.295593793,-0.394596626,0,0,0,2,1,121,24,1,40,70552,blockP,180,2022-02-16_10h17.08.489,orientation adjustment blockP,2021.2.3,MacIntel,60.0024001,,,,,,,
,,,,,,,,,,,,,,,,,,,,,,-62.77777778,-38,20,75,-53.77777778,15.77777778,10.25555556,0.246875071,-0.287139937,1,0,0,0.0325,submitButton,4.121759259,-0.349869727,-0.426774024,0,0,0,2,2,122,22,1,38,70552,blockP,180,2022-02-16_10h17.08.489,orientation adjustment blockP,2021.2.3,MacIntel,60.0024001,,,,,,,
,,,,,,,,,,,,,,,,,,,,,,64.44444444,45,20,75,47.44444444,2.444444444,0.977777778,0.406113047,-0.276120301,1,0,0,0.2996,submitButton,4.092915392,0.554091676,-0.250663325,0,0,0,2,3,123,29,1,45,70552,blockP,180,2022-02-16_10h17.08.489,orientation adjustment blockP,2021.2.3,MacIntel,60.0024001,,,,,,,
,,,,,,,,,,,,,,,,,,,,,,-52.77777778,-59,20,75,-56.77777778,2.222222222,0.888888889,0.234793919,-0.31154895,1,0,0,0.0851,submitButton,4.063787879,-0.341872704,-0.397487867,0,0,0,2,4,124,43,1,59,70552,blockP,180,2022-02-16_10h17.08.489,orientation adjustment blockP,2021.2.3,MacIntel,60.0024001,,,,,,,
,,,,,,,,,,,,,,,,,,,,,,-34.44444444,-21,20,75,-27.44444444,6.444444444,2.577777778,-0.378305067,-0.383804122,1,0,0,0.9839,submitButton,4.0504004,0.319821827,-0.307214479,0,0,0,2,5,125,5,1,21,70552,blockP,180,2022-02-16_10h17.08.489,orientation adjustment blockP,2021.2.3,MacIntel,60.0024001,,,,,,,
,,,,,,,,,,,,,,,,,,,,,,-35.55555556,26,20,75,25.44444444,0.555555556,0.222222222,0.259825509,-0.307600622,1,0,0,0.3513,submitButton,4.016220238,-0.358594654,-0.418909347,0,0,0,2,6,126,10,1,26,70552,blockP,180,2022-02-16_10h17.08.489,orientation adjustment blockP,2021.2.3,MacIntel,60.0024001,,,,,,,
,,,,,,,,,,,,,,,,,,,,,,41.11111111,-48,20,75,-42.88888889,5.111111111,2.044444444,-0.323075205,-0.380793113,1,0,0,1.1674,submitButton,3.998770895,-0.323075205,-0.377802125,0,0,0,2,7,127,32,1,48,70552,blockP,180,2022-02-16_10h17.08.489,orientation adjustment blockP,2021.2.3,MacIntel,60.0024001,,,,,,,
,,,,,,,,,,,,,,,,,,,,,,69.44444444,68,20,75,53.44444444,14.55555556,5.822222222,0.401122693,-0.290141113,1,0,0,2.1002,submitButton,4.014766082,0.089706089,-0.258437202,0,0,0,2,8,128,52,1,68,70552,blockP,180,2022-02-16_10h17.08.489,orientation adjustment blockP,2021.2.3,MacIntel,60.0024001,,,,,,,
,,,,,,,,,,,,,,,,,,,,,,30,35,20,75,42,7,2.8,0.389625937,-0.280320742,1,0,0,0.6337,submitButton,4.004202899,-0.312389756,-0.376808731,0,0,0,2,9,129,19,1,35,70552,blockP,180,2022-02-16_10h17.08.489,orientation adjustment blockP,2021.2.3,MacIntel,60.0024001,,,,,,,
,,,,,,,,,,,,,,,,,,,,,,-54.44444444,-29,20,75,-35.44444444,6.444444444,2.577777778,0.228522889,-0.30723388,1,0,0,0.8842,submitButton,3.99190613,-0.352625787,-0.397882868,0,0,0,2,10,130,13,1,29,70552,blockP,180,2022-02-16_10h17.08.489,orientation adjustment blockP,2021.2.3,MacIntel,60.0024001,,,,,,,
,,,,,,,,,,,,,,,,,,,,,,65,16,20,75,34,18,11.7,0.404693559,-0.307892599,1,0,0,0.1167,submitButton,4.057787274,-0.410744544,-0.395618367,0,0,0,2,11,131,0,1,16,70552,blockP,180,2022-02-16_10h17.08.489,orientation adjustment blockP,2021.2.3,MacIntel,60.0024001,,,,,,,
,,,,,,,,,,,,,,,,,,,,,,-25.55555556,72,20,75,68.44444444,3.555555556,1.422222222,-0.304996042,-0.388360764,1,0,0,1.9317,submitButton,4.035451977,-0.304996042,-0.388360764,0,0,0,2,12,132,56,1,72,70552,blockP,180,2022-02-16_10h17.08.489,orientation adjustment blockP,2021.2.3,MacIntel,60.0024001,,,,,,,
,,,,,,,,,,,,,,,,,,,,,,50,-65,20,75,-65,0,0,0.370164315,-0.290062803,1,0,0,3.2486,submitButton,4.001540616,-0.346495696,-0.389822596,0,0,0,2,13,133,49,1,65,70552,blockP,180,2022-02-16_10h17.08.489,orientation adjustment blockP,2021.2.3,MacIntel,60.0024001,,,,,,,
,,,,,,,,,,,,,,,,,,,,,,-49.44444444,-49,20,75,-54.44444444,5.444444444,2.177777778,-0.43649571,-0.404222906,1,0,0,1.6013,submitButton,3.986342593,0.365688551,-0.405386384,1,0,0,2,14,134,33,1,49,70552,blockP,180,2022-02-16_10h17.08.489,orientation adjustment blockP,2021.2.3,MacIntel,60.0024001,continueButton,,,,,,
,,,,,,,,,,,,,,,,,,,,,,36.66666667,33,20,75,44.66666667,11.66666667,4.666666667,0.382117461,-0.300904738,1,0,0,0.3165,submitButton,3.991965106,-0.02013921,-0.346890963,0,0,0,2,15,135,17,1,33,70552,blockP,180,2022-02-16_10h17.08.489,orientation adjustment blockP,2021.2.3,MacIntel,60.0024001,,,,,,,
,,,,,,,,,,,,,,,,,,,,,,71.66666667,-50,20,75,-47.33333333,2.666666667,1.066666667,0.368619479,-0.301385489,1,0,0,1.6837,submitButton,3.96798725,0.279373413,-0.241516379,0,0,0,2,16,136,34,1,50,70552,blockP,180,2022-02-16_10h17.08.489,orientation adjustment blockP,2021.2.3,MacIntel,60.0024001,,,,,,,
,,,,,,,,,,,,,,,,,,,,,,-42.77777778,-64,20,75,-55.77777778,8.222222222,3.288888889,0.213531538,-0.28752351,1,0,0,0.15,submitButton,3.962466125,-0.327301424,-0.381012007,0,0,0,2,17,137,48,1,64,70552,blockP,180,2022-02-16_10h17.08.489,orientation adjustment blockP,2021.2.3,MacIntel,60.0024001,,,,,,,
,,,,,,,,,,,,,,,,,,,,,,25.55555556,-34,20,75,-28.44444444,5.555555556,2.222222222,0.370580665,-0.282811136,1,0,0,0.1665,submitButton,3.9484319,0.089060657,-0.28651426,0,0,0,2,18,138,18,1,34,70552,blockP,180,2022-02-16_10h17.08.489,orientation adjustment blockP,2021.2.3,MacIntel,60.0024001,,,,,,,
,,,,,,,,,,,,,,,,,,,,,,64.44444444,71,20,75,56.44444444,14.55555556,5.822222222,0.396548245,-0.290560386,1,0,0,0.0499,submitButton,3.963422222,-0.32817288,-0.382335912,0,0,0,2,19,139,55,1,71,70552,blockP,180,2022-02-16_10h17.08.489,orientation adjustment blockP,2021.2.3,MacIntel,60.0024001,,,,,,,
,,,,,,,,,,,,,,,,,,,,,,50.55555556,-53,20,75,-41.44444444,11.55555556,4.622222222,0.21468846,-0.312355075,1,0,0,1.3472,submitButton,3.968650794,0.546310536,-0.234352854,0,0,0,2,20,140,37,1,53,70552,blockP,180,2022-02-16_10h17.08.489,orientation adjustment blockP,2021.2.3,MacIntel,60.0024001,,,,,,,
,,,,,,,,,,,,,,,,,,,,,,67.22222222,18,20,75,28.22222222,10.22222222,4.088888889,0.380235736,-0.293524799,1,0,0,0.0838,submitButton,3.96959755,-0.298577695,-0.372805746,0,0,0,2,21,141,2,1,18,70552,blockP,180,2022-02-16_10h17.08.489,orientation adjustment blockP,2021.2.3,MacIntel,60.0024001,,,,,,,
,,,,,,,,,,,,,,,,,,,,,,38.33333333,-19,20,75,-26.66666667,7.666666667,3.066666667,0.441069804,-0.318466563,1,0,0,0.1328,submitButton,3.962543403,-0.319661754,-0.377515641,0,0,0,2,22,142,3,1,19,70552,blockP,180,2022-02-16_10h17.08.489,orientation adjustment blockP,2021.2.3,MacIntel,60.0024001,,,,,,,
,,,,,,,,,,,,,,,,,,,,,,-38.88888889,-70,20,75,-65.88888889,4.111111111,1.644444444,0.225347821,-0.310538725,1,0,0,0.1348,submitButton,3.944573643,-0.355967351,-0.397212899,0,0,0,2,23,143,54,1,70,70552,blockP,180,2022-02-16_10h17.08.489,orientation adjustment blockP,2021.2.3,MacIntel,60.0024001,,,,,,,
,,,,,,,,,,,,,,,,,,,,,,55.55555556,-46,20,75,-40.44444444,5.555555556,2.222222222,0.373460036,-0.311774576,1,0,0,0.0489,submitButton,3.931324786,-0.352390638,-0.405593673,0,0,0,2,24,144,30,1,46,70552,blockP,180,2022-02-16_10h17.08.489,orientation adjustment blockP,2021.2.3,MacIntel,60.0024001,,,,,,,
,,,,,,,,,,,,,,,,,,,,,,74.44444444,41,20,75,67.44444444,26.44444444,17.18888889,0.368967884,-0.304505723,1,0,0,0.6977,submitButton,4.032527566,-0.316737027,-0.374894761,0,0,0,2,25,145,25,1,41,70552,blockP,180,2022-02-16_10h17.08.489,orientation adjustment blockP,2021.2.3,MacIntel,60.0024001,,,,,,,
,,,,,,,,,,,,,,,,,,,,,,-22.22222222,60,20,75,64.77777778,4.777777778,1.911111111,0.198577925,-0.309326881,1,0,0,0.4459,submitButton,4.016456229,-0.278745698,-0.385684784,0,0,0,2,26,146,44,1,60,70552,blockP,180,2022-02-16_10h17.08.489,orientation adjustment blockP,2021.2.3,MacIntel,60.0024001,,,,,,,
,,,,,,,,,,,,,,,,,,,,,,-24.44444444,74,20,75,67.55555556,6.444444444,2.577777778,-0.346605896,-0.413781685,1,0,0,1.001,submitButton,4.005639098,-0.347309218,-0.413781685,0,0,0,2,27,147,58,1,74,70552,blockP,180,2022-02-16_10h17.08.489,orientation adjustment blockP,2021.2.3,MacIntel,60.0024001,,,,,,,
,,,,,,,,,,,,,,,,,,,,,,-71.66666667,23,20,75,32.33333333,9.333333333,3.733333333,0.223381851,-0.280432448,1,0,0,1.3493,submitButton,4.003606965,-0.31795525,-0.383053806,0,0,0,2,28,148,7,1,23,70552,blockP,180,2022-02-16_10h17.08.489,orientation adjustment blockP,2021.2.3,MacIntel,60.0024001,,,,,,,
,,,,,,,,,,,,,,,,,,,,,,-56.11111111,17,20,75,35.88888889,18.88888889,12.27777778,0.222878422,-0.288374991,1,0,0,1.0676,submitButton,4.064897119,0.356848818,-0.398444853,1,0,0,2,29,149,1,1,17,70552,blockP,180,2022-02-16_10h17.08.489,orientation adjustment blockP,2021.2.3,MacIntel,60.0024001,continueButton,,,,,,
,,,,,,,,,,,,,,,,,,,,,,-33.33333333,-25,20,75,-24.33333333,0.666666667,0.266666667,0.239174808,-0.309008417,1,0,0,0.684,submitButton,4.036968954,-0.358072178,-0.404712959,0,0,0,2,30,150,9,1,25,70552,blockP,180,2022-02-16_10h17.08.489,orientation adjustment blockP,2021.2.3,MacIntel,60.0024001,,,,,,,
,,,,,,,,,,,,,,,,,,,,,,-57.77777778,-37,20,75,-36.77777778,0.222222222,0.088888889,0.205183718,-0.272495131,1,0,0,0.1491,submitButton,4.008150852,-0.066475878,-0.266025848,0,0,0,2,31,151,21,1,37,70552,blockP,180,2022-02-16_10h17.08.489,orientation adjustment blockP,2021.2.3,MacIntel,60.0024001,,,,,,,
,,,,,,,,,,,,,,,,,,,,,,-25.55555556,-44,20,75,-40.55555556,3.444444444,1.377777778,0.213349762,-0.277496116,1,0,0,0.1329,submitButton,3.989090177,-0.377278542,-0.389494742,0,0,0,2,32,152,28,1,44,70552,blockP,180,2022-02-16_10h17.08.489,orientation adjustment blockP,2021.2.3,MacIntel,60.0024001,,,,,,,
,,,,,,,,,,,,,,,,,,,,,,46.11111111,62,20,75,236.1111111,5.888888889,2.355555556,0.194676636,-0.334772517,1,0,0,2.1328,submitButton,3.977338129,0.324323015,-0.186712921,0,0,0,2,33,153,46,1,62,70552,blockP,180,2022-02-16_10h17.08.489,orientation adjustment blockP,2021.2.3,MacIntel,60.0024001,,,,,,,
,,,,,,,,,,,,,,,,,,,,,,45.55555556,20,20,75,27.55555556,7.555555556,3.022222222,0.432802508,-0.276801875,1,0,0,0.8835,submitButton,3.970515873,-0.336272928,-0.392798259,0,0,0,2,34,154,4,1,20,70552,blockP,180,2022-02-16_10h17.08.489,orientation adjustment blockP,2021.2.3,MacIntel,60.0024001,,,,,,,
,,,,,,,,,,,,,,,,,,,,,,41.11111111,67,20,75,75.11111111,8.111111111,3.244444444,0.373058037,-0.306266619,1,0,0,0.1653,submitButton,3.96536643,-0.398665961,-0.410158022,0,0,0,2,35,155,51,1,67,70552,blockP,180,2022-02-16_10h17.08.489,orientation adjustment blockP,2021.2.3,MacIntel,60.0024001,,,,,,,
,,,,,,,,,,,,,,,,,,,,,,41.11111111,-43,20,75,-40.88888889,2.111111111,0.844444444,0.359344527,-0.294955715,1,0,0,3.6481,submitButton,3.943388106,0.329913002,-0.247142421,0,0,0,2,36,156,27,1,43,70552,blockP,180,2022-02-16_10h17.08.489,orientation adjustment blockP,2021.2.3,MacIntel,60.0024001,,,,,,,
,,,,,,,,,,,,,,,,,,,,,,65.55555556,-51,20,75,131.5555556,2.555555556,1.022222222,0.22291607,-0.293828469,1,0,0,1.6988,submitButton,3.922960373,-0.324627659,-0.386870408,0,0,0,2,37,157,35,1,51,70552,blockP,180,2022-02-16_10h17.08.489,orientation adjustment blockP,2021.2.3,MacIntel,60.0024001,,,,,,,
,,,,,,,,,,,,,,,,,,,,,,40.55555556,47,20,75,56.55555556,9.555555556,3.822222222,0.393408876,-0.314523373,1,0,0,0.4506,submitButton,3.922260802,-0.38379987,-0.406250266,0,0,0,2,38,158,31,1,47,70552,blockP,180,2022-02-16_10h17.08.489,orientation adjustment blockP,2021.2.3,MacIntel,60.0024001,,,,,,,
,,,,,,,,,,,,,,,,,,,,,,-55,-42,20,75,-52,10,4,0.226522637,-0.294316573,1,0,0,0.2677,submitButton,3.922796935,0.389161662,-0.307627198,0,0,0,2,39,159,26,1,42,70552,blockP,180,2022-02-16_10h17.08.489,orientation adjustment blockP,2021.2.3,MacIntel,60.0024001,,,,,,,
,,,,,,,,,,,,,,,,,,,,,,-41.11111111,36,20,75,51.88888889,15.88888889,10.32777778,0.223182446,-0.319771776,1,0,0,0.0498,submitButton,3.966666667,-0.331959762,-0.414202465,0,0,0,2,40,160,20,1,36,70552,blockP,180,2022-02-16_10h17.08.489,orientation adjustment blockP,2021.2.3,MacIntel,60.0024001,,,,,,,
,,,,,,,,,,,,,,,,,,,,,,-61.66666667,57,20,75,45.33333333,11.66666667,4.666666667,0.201316712,-0.303848776,1,0,0,0.5331,submitButton,3.971428571,-0.295576785,-0.406820843,0,0,0,2,41,161,41,1,57,70552,blockP,180,2022-02-16_10h17.08.489,orientation adjustment blockP,2021.2.3,MacIntel,60.0024001,,,,,,,
,,,,,,,,,,,,,,,,,,,,,,-52.77777778,-30,20,75,-24.77777778,5.222222222,2.088888889,0.241567758,-0.285755528,1,0,0,0.8851,submitButton,3.958708709,-0.308531918,-0.375661111,0,0,0,2,42,162,14,1,30,70552,blockP,180,2022-02-16_10h17.08.489,orientation adjustment blockP,2021.2.3,MacIntel,60.0024001,,,,,,,
,,,,,,,,,,,,,,,,,,,,,,31.66666667,-28,20,75,-31.33333333,3.333333333,1.333333333,0.374459808,-0.311868211,1,0,0,0.099,submitButton,3.94108874,-0.341074906,-0.399785589,0,0,0,2,43,163,12,1,28,70552,blockP,180,2022-02-16_10h17.08.489,orientation adjustment blockP,2021.2.3,MacIntel,60.0024001,,,,,,,
,,,,,,,,,,,,,,,,,,,,,,-52.77777778,-22,20,75,-32.77777778,10.77777778,4.311111111,0.214841713,-0.294054804,1,0,0,0.6341,submitButton,3.943555556,0.349041721,-0.397752028,1,0,0,2,44,164,6,1,22,70552,blockP,180,2022-02-16_10h17.08.489,orientation adjustment blockP,2021.2.3,MacIntel,60.0024001,continueButton,,,,,,
,,,,,,,,,,,,,,,,,,,,,,-45.55555556,55,20,75,41.44444444,13.55555556,5.422222222,-0.374249064,-0.396329262,1,0,0,0.8976,submitButton,3.95334805,0.325188669,-0.273005116,0,0,0,2,45,165,39,1,55,70552,blockP,180,2022-02-16_10h17.08.489,orientation adjustment blockP,2021.2.3,MacIntel,60.0024001,,,,,,,
,,,,,,,,,,,,,,,,,,,,,,73.88888889,73,20,75,250.8888889,2.111111111,0.844444444,-0.310638029,-0.39100131,1,0,0,2.168,submitButton,3.932894737,0.124746204,-0.301110698,0,0,0,2,46,166,57,1,73,70552,blockP,180,2022-02-16_10h17.08.489,orientation adjustment blockP,2021.2.3,MacIntel,60.0024001,,,,,,,
,,,,,,,,,,,,,,,,,,,,,,-68.88888889,32,20,75,39.11111111,7.111111111,2.844444444,-0.318249795,-0.374463883,1,0,0,1.7511,submitButton,3.925780683,0.371560151,-0.293477672,0,0,0,2,47,167,16,1,32,70552,blockP,180,2022-02-16_10h17.08.489,orientation adjustment blockP,2021.2.3,MacIntel,60.0024001,,,,,,,
,,,,,,,,,,,,,,,,,,,,,,-53.88888889,-56,20,75,-230.8888889,5.111111111,2.044444444,-0.357803323,-0.408089382,1,0,0,2.5998,submitButton,3.913564214,-0.357803323,-0.408089382,0,0,0,2,48,168,40,1,56,70552,blockP,180,2022-02-16_10h17.08.489,orientation adjustment blockP,2021.2.3,MacIntel,60.0024001,,,,,,,
,,,,,,,,,,,,,,,,,,,,,,51.11111111,-61,20,75,-59.88888889,1.111111111,0.444444444,0.37399261,-0.279246116,1,0,0,0.0154,submitButton,3.891182796,-0.38260149,-0.407028575,0,0,0,2,49,169,45,1,61,70552,blockP,180,2022-02-16_10h17.08.489,orientation adjustment blockP,2021.2.3,MacIntel,60.0024001,,,,,,,
,,,,,,,,,,,,,,,,,,,,,,-57.22222222,66,20,75,62.77777778,3.222222222,1.288888889,0.199560866,-0.308705722,1,0,0,1.0005,submitButton,3.874501425,0.149486348,-0.36026466,0,0,0,2,50,170,50,1,66,70552,blockP,180,2022-02-16_10h17.08.489,orientation adjustment blockP,2021.2.3,MacIntel,60.0024001,,,,,,,
,,,,,,,,,,,,,,,,,,,,,,-46.66666667,39,20,75,46.33333333,7.333333333,2.933333333,0.149065391,-0.301579225,1,0,0,0.7669,submitButton,3.868506723,-0.314882364,-0.385353919,0,0,0,2,51,171,23,1,39,70552,blockP,180,2022-02-16_10h17.08.489,orientation adjustment blockP,2021.2.3,MacIntel,60.0024001,,,,,,,
,,,,,,,,,,,,,,,,,,,,,,-31.11111111,31,20,75,37.88888889,6.888888889,2.755555556,0.203098956,-0.296645387,1,0,0,0.6008,submitButton,3.861462729,-0.396102396,-0.420836428,0,0,0,2,52,172,15,1,31,70552,blockP,180,2022-02-16_10h17.08.489,orientation adjustment blockP,2021.2.3,MacIntel,60.0024001,,,,,,,
,,,,,,,,,,,,,,,,,,,,,,-27.22222222,27,20,75,41.77777778,14.77777778,5.911111111,-0.330959326,-0.408919867,1,0,0,1.4671,submitButton,3.874353599,-0.225518879,-0.357826355,0,0,0,2,53,173,11,1,27,70552,blockP,180,2022-02-16_10h17.08.489,orientation adjustment blockP,2021.2.3,MacIntel,60.0024001,,,,,,,
,,,,,,,,,,,,,,,,,,,,,,-73.33333333,24,20,75,47.66666667,23.66666667,15.38333333,0.18843165,-0.27088235,1,0,0,0.4653,submitButton,3.946284722,-0.357133265,-0.414731141,0,0,0,2,54,174,8,1,24,70552,blockP,180,2022-02-16_10h17.08.489,orientation adjustment blockP,2021.2.3,MacIntel,60.0024001,,,,,,,
,,,,,,,,,,,,,,,,,,,,,,25,-52,20,75,-30,22,14.3,0.19631679,-0.276092396,1,0,0,0.1175,submitButton,4.010593513,0.122436346,-0.252646569,0,0,0,2,55,175,36,1,52,70552,blockP,180,2022-02-16_10h17.08.489,orientation adjustment blockP,2021.2.3,MacIntel,60.0024001,,,,,,,
,,,,,,,,,,,,,,,,,,,,,,66.66666667,-69,20,75,-50.33333333,18.66666667,12.13333333,0.367629008,-0.268206105,1,0,0,0.5337,submitButton,4.060733882,0.229999426,-0.27508917,0,0,0,2,56,176,53,1,69,70552,blockP,180,2022-02-16_10h17.08.489,orientation adjustment blockP,2021.2.3,MacIntel,60.0024001,,,,,,,
,,,,,,,,,,,,,,,,,,,,,,-74.44444444,75,20,75,60.55555556,14.44444444,5.777777778,-0.325389314,-0.376020501,1,0,0,1.15,submitButton,4.071267894,0.35687123,-0.248914035,0,0,0,2,57,177,59,1,75,70552,blockP,180,2022-02-16_10h17.08.489,orientation adjustment blockP,2021.2.3,MacIntel,60.0024001,,,,,,,
,,,,,,,,,,,,,,,,,,,,,,63.88888889,63,20,75,244.8888889,1.888888889,0.755555556,-0.445089354,-0.407619615,1,0,0,2.415,submitButton,4.051050136,0.361397044,-0.320908058,0,0,0,2,58,178,47,1,63,70552,blockP,180,2022-02-16_10h17.08.489,orientation adjustment blockP,2021.2.3,MacIntel,60.0024001,,,,,,,
,,,,,,,,,,,,,,,,,,,,,,62.77777778,-54,20,75,-57.22222222,3.222222222,1.288888889,-0.376373424,-0.385697186,1,0,0,1.1495,submitButton,4.034309764,-0.376373424,-0.385697186,0,0,0,2,59,179,38,1,54,70552,blockP,180,2022-02-16_10h17.08.489,orientation adjustment blockP,2021.2.3,MacIntel,60.0024001,,,,,,,
,,,,,,,,,,,,,,,,,,,,,,,,,,,,,,,,,,,,,,,,,,,,,,,,70552,blockP,180,2022-02-16_10h17.08.489,orientation adjustment blockP,2021.2.3,MacIntel,60.0024001,,0.314807997,-0.403587042,1,0,0,EndButtonTxt
