consentMouse1.x,consentMouse1.y,consentMouse1.leftButton,consentMouse1.midButton,consentMouse1.rightButton,consentMouse1.clicked_name,consent_Mouse.x,consent_Mouse.y,consent_Mouse.leftButton,consent_Mouse.midButton,consent_Mouse.rightButton,consent_Mouse.clicked_name,startMouse.x,startMouse.y,startMouse.leftButton,startMouse.midButton,startMouse.rightButton,startMouse_2.x,startMouse_2.y,startMouse_2.leftButton,startMouse_2.midButton,startMouse_2.rightButton,start_distance,fixedOri,minimalDistance,maxOri,this_ori,accuracy,presented_accuracy,submitMouse.x,submitMouse.y,submitMouse.leftButton,submitMouse.midButton,submitMouse.rightButton,submitMouse.time,submitMouse.clicked_name,block_accuracy,continueMouse.x,continueMouse.y,continueMouse.leftButton,continueMouse.midButton,continueMouse.rightButton,trials.thisRepN,trials.thisTrialN,trials.thisN,trials.thisIndex,trials.ran,startOri,participant,condition,nTrials,date,expName,psychopyVersion,OS,frameRate,continueMouse.clicked_name,EndButtonMouse.x,EndButtonMouse.y,EndButtonMouse.leftButton,EndButtonMouse.midButton,EndButtonMouse.rightButton,EndButtonMouse.clicked_name
0.335185203,-0.403703717,1,0,0,consent_button1,0.380555574,-0.403703717,1,0,0,consent_button,0.205555572,-0.235185196,1,0,0,0.146296312,-0.362963032,1,0,0,-67.77777778,25,20,75,0.222222222,24.77777778,16.10555556,0.201851868,-0.32314816,1,0,0,1.7987,submitButton,16.10555556,-0.480555521,-0.381481551,0,0,0,0,0,0,99,1,25,68896,blockP,180,2022-02-10_11h19.27.350,orientation adjustment blockP,2021.2.3,Win32,59.672992,,,,,,,
,,,,,,,,,,,,,,,,,,,,,,51.11111111,51,20,75,229.1111111,1.888888889,0.755555556,0.202777794,-0.326851864,1,0,0,1.4231,submitButton,8.430555556,-0.420370335,-0.39629631,0,0,0,0,1,1,50,1,51,68896,blockP,180,2022-02-10_11h19.27.350,orientation adjustment blockP,2021.2.3,Win32,59.672992,,,,,,,
,,,,,,,,,,,,,,,,,,,,,,55.55555556,62,20,75,239.5555556,2.444444444,0.977777778,0.223148165,-0.307407476,1,0,0,1.1175,submitButton,5.946296296,-0.287962954,-0.406481495,0,0,0,0,2,2,61,1,62,68896,blockP,180,2022-02-10_11h19.27.350,orientation adjustment blockP,2021.2.3,Win32,59.672992,,,,,,,
,,,,,,,,,,,,,,,,,,,,,,21.11111111,-4,20,75,-4.888888889,0.888888889,0.355555556,0.384259278,-0.283333345,1,0,0,0.3335,submitButton,0.355555556,-0.180555545,-0.40000007,0,0,0,0,3,3,3,1,4,68896,blockP,180,2022-02-10_11h19.27.350,orientation adjustment blockP,2021.2.3,Win32,59.672992,,,,,,,
,,,,,,,,,,,,,,,,,,,,,,57.22222222,-35,20,75,-15.77777778,19.22222222,12.49444444,0.384259278,-0.287037049,1,0,0,0.8507,submitButton,6.425,-0.349999992,-0.398148162,0,0,0,0,4,4,34,1,35,68896,blockP,180,2022-02-10_11h19.27.350,orientation adjustment blockP,2021.2.3,Win32,59.672992,,,,,,,
,,,,,,,,,,,,,,,,,,,,,,48.33333333,63,20,75,244.3333333,1.333333333,0.533333333,0.179629646,-0.325925995,1,0,0,0.184,submitButton,4.461111111,-0.29351851,-0.390740811,0,0,0,0,5,5,137,1,63,68896,blockP,180,2022-02-10_11h19.27.350,orientation adjustment blockP,2021.2.3,Win32,59.672992,,,,,,,
,,,,,,,,,,,,,,,,,,,,,,71.66666667,-45,20,75,-24.33333333,20.66666667,13.43333333,0.417592612,-0.313888901,1,0,0,1.1624,submitButton,13.43333333,-0.350925918,-0.382407421,0,0,0,0,6,6,44,1,45,68896,blockP,180,2022-02-10_11h19.27.350,orientation adjustment blockP,2021.2.3,Win32,59.672992,,,,,,,
,,,,,,,,,,,,,,,,,,,,,,67.77777778,19,20,75,206.7777778,7.777777778,3.111111111,0.185185201,-0.33240742,1,0,0,0.2942,submitButton,8.272222222,-0.369444437,-0.389814828,0,0,0,0,7,7,93,1,19,68896,blockP,180,2022-02-10_11h19.27.350,orientation adjustment blockP,2021.2.3,Win32,59.672992,,,,,,,
,,,,,,,,,,,,,,,,,,,,,,-26.11111111,-41,20,75,-55.11111111,14.11111111,5.644444444,0.241666684,-0.310185197,1,0,0,0.7669,submitButton,7.396296296,-0.374074066,-0.380555569,0,0,0,0,8,8,115,1,41,68896,blockP,180,2022-02-10_11h19.27.350,orientation adjustment blockP,2021.2.3,Win32,59.672992,,,,,,,
,,,,,,,,,,,,,,,,,,,,,,-27.77777778,-58,20,75,-61.77777778,3.777777778,1.511111111,0.200000016,-0.313888901,1,0,0,0.1944,submitButton,1.511111111,-0.419444437,-0.387962976,0,0,0,0,9,9,132,1,58,68896,blockP,180,2022-02-10_11h19.27.350,orientation adjustment blockP,2021.2.3,Win32,59.672992,,,,,,,
,,,,,,,,,,,,,,,,,,,,,,-64.44444444,-21,20,75,-16.44444444,4.555555556,1.822222222,0.194444461,-0.365740754,1,0,0,0.1828,submitButton,1.666666667,-0.298148139,-0.39629631,0,0,0,0,10,10,95,1,21,68896,blockP,180,2022-02-10_11h19.27.350,orientation adjustment blockP,2021.2.3,Win32,59.672992,,,,,,,
,,,,,,,,,,,,,,,,,,,,,,56.11111111,-7,20,75,-7.888888889,0.888888889,0.355555556,0.425925946,-0.276851863,1,0,0,0.1518,submitButton,1.22962963,-0.210185175,-0.376851921,0,0,0,0,11,11,6,1,7,68896,blockP,180,2022-02-10_11h19.27.350,orientation adjustment blockP,2021.2.3,Win32,59.672992,,,,,,,
,,,,,,,,,,,,,,,,,,,,,,-55,28,20,75,17,11,4.4,0.201851868,-0.308333345,1,0,0,0.7949,submitButton,4.4,-0.425925919,-0.387962976,0,0,0,0,12,12,27,1,28,68896,blockP,180,2022-02-10_11h19.27.350,orientation adjustment blockP,2021.2.3,Win32,59.672992,,,,,,,
,,,,,,,,,,,,,,,,,,,,,,-58.88888889,-16,20,75,-187.8888889,8.111111111,3.244444444,0.417592612,-0.286111123,1,0,0,2.1616,submitButton,3.822222222,-0.305555547,-0.38703705,0,0,0,0,13,13,15,1,16,68896,blockP,180,2022-02-10_11h19.27.350,orientation adjustment blockP,2021.2.3,Win32,59.672992,,,,,,,
,,,,,,,,,,,,,,,,,,,,,,46.66666667,54,20,75,229.6666667,4.333333333,1.733333333,-0.196296286,-0.36666668,1,0,0,2.7951,submitButton,3.125925926,0.3564815,-0.402777791,1,0,0,0,14,14,128,1,54,68896,blockP,180,2022-02-10_11h19.27.350,orientation adjustment blockP,2021.2.3,Win32,59.672992,continueButton,,,,,,
,,,,,,,,,,,,,,,,,,,,,,-52.77777778,-68,20,75,-253.7777778,5.777777778,2.311111111,0.383333465,-0.269444456,1,0,0,2.4677,submitButton,2.311111111,-0.375925918,-0.386111181,0,0,0,0,15,15,142,1,68,68896,blockP,180,2022-02-10_11h19.27.350,orientation adjustment blockP,2021.2.3,Win32,59.672992,,,,,,,
,,,,,,,,,,,,,,,,,,,,,,-24.44444444,33,20,75,19.55555556,13.44444444,5.377777778,0.20833335,-0.305555568,1,0,0,0.2663,submitButton,3.844444444,-0.405555548,-0.401851865,0,0,0,0,16,16,32,1,33,68896,blockP,180,2022-02-10_11h19.27.350,orientation adjustment blockP,2021.2.3,Win32,59.672992,,,,,,,
,,,,,,,,,,,,,,,,,,,,,,59.44444444,-43,20,75,-39.55555556,3.444444444,1.377777778,0.382407426,-0.307407476,1,0,0,0.1282,submitButton,3.022222222,-0.332407399,-0.381481551,0,0,0,0,17,17,42,1,43,68896,blockP,180,2022-02-10_11h19.27.350,orientation adjustment blockP,2021.2.3,Win32,59.672992,,,,,,,
,,,,,,,,,,,,,,,,,,,,,,-50,-57,20,75,-252,15,9.75,-0.289814749,-0.40000007,1,0,0,3.2016,submitButton,4.704166667,-0.289814749,-0.40000007,0,0,0,0,18,18,56,1,57,68896,blockP,180,2022-02-10_11h19.27.350,orientation adjustment blockP,2021.2.3,Win32,59.672992,,,,,,,
,,,,,,,,,,,,,,,,,,,,,,56.66666667,9,20,75,191.6666667,2.666666667,1.066666667,0.194444461,-0.32314816,1,0,0,0.5223,submitButton,3.976666667,-0.299999991,-0.417592606,0,0,0,0,19,19,8,1,9,68896,blockP,180,2022-02-10_11h19.27.350,orientation adjustment blockP,2021.2.3,Win32,59.672992,,,,,,,
,,,,,,,,,,,,,,,,,,,,,,65.55555556,71,20,75,258.5555556,7.555555556,3.022222222,0.193518535,-0.311111123,1,0,0,1.3397,submitButton,3.817592593,-0.163888878,-0.402777791,0,0,0,0,20,20,145,1,71,68896,blockP,180,2022-02-10_11h19.27.350,orientation adjustment blockP,2021.2.3,Win32,59.672992,,,,,,,
,,,,,,,,,,,,,,,,,,,,,,28.33333333,67,20,75,67.33333333,0.333333333,0.133333333,0.437037057,-0.319444457,1,0,0,0.1377,submitButton,3.291269841,0.083333348,-0.183333344,0,0,0,0,21,21,66,1,67,68896,blockP,180,2022-02-10_11h19.27.350,orientation adjustment blockP,2021.2.3,Win32,59.672992,,,,,,,
,,,,,,,,,,,,,,,,,,,,,,-47.22222222,61,20,75,41.77777778,19.22222222,12.49444444,0.150000015,-0.301851864,1,0,0,0.8954,submitButton,4.441666667,0.194444461,-0.245370381,0,0,0,0,22,22,60,1,61,68896,blockP,180,2022-02-10_11h19.27.350,orientation adjustment blockP,2021.2.3,Win32,59.672992,,,,,,,
,,,,,,,,,,,,,,,,,,,,,,-46.66666667,-37,20,75,-69.66666667,32.66666667,26.13333333,0.214814831,-0.307407476,1,0,0,0.0192,submitButton,6.851851852,-0.324999992,-0.411111125,0,0,0,0,23,23,36,1,37,68896,blockP,180,2022-02-10_11h19.27.350,orientation adjustment blockP,2021.2.3,Win32,59.672992,,,,,,,
,,,,,,,,,,,,,,,,,,,,,,-21.66666667,60,20,75,60.33333333,0.333333333,0.133333333,0.196296312,-0.304629642,1,0,0,0.0167,submitButton,6.18,-0.372222215,-0.411111125,0,0,0,0,24,24,59,1,60,68896,blockP,180,2022-02-10_11h19.27.350,orientation adjustment blockP,2021.2.3,Win32,59.672992,,,,,,,
,,,,,,,,,,,,,,,,,,,,,,30.55555556,39,20,75,54.55555556,15.55555556,10.11111111,0.368518537,-0.278703715,1,0,0,0.0957,submitButton,6.537373737,-0.453703697,-0.41666668,0,0,0,0,25,25,113,1,39,68896,blockP,180,2022-02-10_11h19.27.350,orientation adjustment blockP,2021.2.3,Win32,59.672992,,,,,,,
,,,,,,,,,,,,,,,,,,,,,,65.55555556,-1,20,75,10.55555556,11.55555556,4.622222222,0.363888908,-0.309259271,1,0,0,0.167,submitButton,6.377777778,-0.41203703,-0.375925939,0,0,0,0,26,26,0,1,1,68896,blockP,180,2022-02-10_11h19.27.350,orientation adjustment blockP,2021.2.3,Win32,59.672992,,,,,,,
,,,,,,,,,,,,,,,,,,,,,,67.77777778,63,20,75,242.7777778,0.222222222,0.088888889,-0.337962955,-0.375000013,1,0,0,2.1299,submitButton,5.894017094,-0.337962955,-0.375000013,0,0,0,0,27,27,62,1,63,68896,blockP,180,2022-02-10_11h19.27.350,orientation adjustment blockP,2021.2.3,Win32,59.672992,,,,,,,
,,,,,,,,,,,,,,,,,,,,,,-25,45,20,75,35,10,4,0.220370387,-0.328703716,1,0,0,0.3347,submitButton,5.758730159,-0.28518512,-0.377777791,0,0,0,0,28,28,119,1,45,68896,blockP,180,2022-02-10_11h19.27.350,orientation adjustment blockP,2021.2.3,Win32,59.672992,,,,,,,
,,,,,,,,,,,,,,,,,,,,,,-20,49,20,75,59,10,4,-0.31388888,-0.399074087,1,0,0,0.6279,submitButton,5.641481481,0.249074091,-0.410185199,1,0,0,0,29,29,123,1,49,68896,blockP,180,2022-02-10_11h19.27.350,orientation adjustment blockP,2021.2.3,Win32,59.672992,continueButton,,,,,,
,,,,,,,,,,,,,,,,,,,,,,-57.22222222,46,20,75,34.77777778,11.22222222,4.488888889,-0.175925915,-0.287037049,1,0,0,0.928,submitButton,5.569444444,0.242592609,-0.312962975,0,0,0,0,30,30,45,1,46,68896,blockP,180,2022-02-10_11h19.27.350,orientation adjustment blockP,2021.2.3,Win32,59.672992,,,,,,,
,,,,,,,,,,,,,,,,,,,,,,-30.55555556,26,20,75,20.44444444,5.555555556,2.222222222,0.229629646,-0.298148217,1,0,0,0.1945,submitButton,5.37254902,0.230555572,-0.398148162,0,0,0,0,31,31,100,1,26,68896,blockP,180,2022-02-10_11h19.27.350,orientation adjustment blockP,2021.2.3,Win32,59.672992,,,,,,,
,,,,,,,,,,,,,,,,,,,,,,-22.22222222,-67,20,75,-238.2222222,8.777777778,3.511111111,0.379629649,-0.290740753,1,0,0,0.3783,submitButton,5.269135802,-0.31851851,-0.4046297,0,0,0,0,32,32,141,1,67,68896,blockP,180,2022-02-10_11h19.27.350,orientation adjustment blockP,2021.2.3,Win32,59.672992,,,,,,,
,,,,,,,,,,,,,,,,,,,,,,40,-51,20,75,-57,6,2.4,0.369444576,-0.297222234,1,0,0,1.1872,submitButton,5.118128655,-0.337962955,-0.384259272,0,0,0,0,33,33,125,1,51,68896,blockP,180,2022-02-10_11h19.27.350,orientation adjustment blockP,2021.2.3,Win32,59.672992,,,,,,,
,,,,,,,,,,,,,,,,,,,,,,-55,-12,20,75,-19,7,2.8,0.170370386,-0.301851864,1,0,0,0.7953,submitButton,5.002222222,-0.314814806,-0.405555569,0,0,0,0,34,34,11,1,12,68896,blockP,180,2022-02-10_11h19.27.350,orientation adjustment blockP,2021.2.3,Win32,59.672992,,,,,,,
,,,,,,,,,,,,,,,,,,,,,,-64.44444444,-20,20,75,-27.44444444,7.444444444,2.977777778,0.227777794,-0.316666735,1,0,0,0.5786,submitButton,4.905820106,-0.155555488,-0.411111125,0,0,0,0,35,35,94,1,20,68896,blockP,180,2022-02-10_11h19.27.350,orientation adjustment blockP,2021.2.3,Win32,59.672992,,,,,,,
,,,,,,,,,,,,,,,,,,,,,,-22.22222222,34,20,75,11.77777778,22.22222222,14.44444444,-0.128703692,-0.419444458,1,0,0,0.0161,submitButton,5.339393939,0.100000015,-0.302777846,0,0,0,0,36,36,108,1,34,68896,blockP,180,2022-02-10_11h19.27.350,orientation adjustment blockP,2021.2.3,Win32,59.672992,,,,,,,
,,,,,,,,,,,,,,,,,,,,,,-72.77777778,-39,20,75,-186.7777778,32.22222222,25.77777778,0.393518538,-0.300925938,1,0,0,2.6679,submitButton,6.228019324,-0.405555548,-0.389814828,0,0,0,0,37,37,38,1,39,68896,blockP,180,2022-02-10_11h19.27.350,orientation adjustment blockP,2021.2.3,Win32,59.672992,,,,,,,
,,,,,,,,,,,,,,,,,,,,,,37.77777778,-43,20,75,-48.22222222,5.222222222,2.088888889,0.411111244,-0.348148161,1,0,0,0.8329,submitButton,6.055555556,-0.357407399,-0.386111181,0,0,0,0,38,38,117,1,43,68896,blockP,180,2022-02-10_11h19.27.350,orientation adjustment blockP,2021.2.3,Win32,59.672992,,,,,,,
,,,,,,,,,,,,,,,,,,,,,,-72.77777778,-30,20,75,-26.77777778,3.222222222,1.288888889,0.1351852,-0.297222234,1,0,0,0.8613,submitButton,5.864888889,-0.316666658,-0.390740811,0,0,0,0,39,39,29,1,30,68896,blockP,180,2022-02-10_11h19.27.350,orientation adjustment blockP,2021.2.3,Win32,59.672992,,,,,,,
,,,,,,,,,,,,,,,,,,,,,,-50,-44,20,75,-44,0,0,-0.327777769,-0.386111181,1,0,0,1.1285,submitButton,5.639316239,-0.328703695,-0.388888902,0,0,0,0,40,40,118,1,44,68896,blockP,180,2022-02-10_11h19.27.350,orientation adjustment blockP,2021.2.3,Win32,59.672992,,,,,,,
,,,,,,,,,,,,,,,,,,,,,,52.77777778,14,20,75,195.7777778,1.777777778,0.711111111,-0.363888881,-0.379629643,1,0,0,2.3112,submitButton,5.456790123,0.16944446,-0.266666678,0,0,0,0,41,41,13,1,14,68896,blockP,180,2022-02-10_11h19.27.350,orientation adjustment blockP,2021.2.3,Win32,59.672992,,,,,,,
,,,,,,,,,,,,,,,,,,,,,,41.11111111,79,20,75,72.11111111,6.888888889,2.755555556,-0.399074067,-0.370370383,1,0,0,1.3338,submitButton,5.36031746,0.157407423,-0.422222236,0,0,0,0,42,42,78,1,79,68896,blockP,180,2022-02-10_11h19.27.350,orientation adjustment blockP,2021.2.3,Win32,59.672992,,,,,,,
,,,,,,,,,,,,,,,,,,,,,,36.11111111,10,20,75,17.11111111,7.111111111,2.844444444,-0.425925919,-0.38703705,1,0,0,1.3339,submitButton,5.273563218,0.17870372,-0.212037048,0,0,0,0,43,43,9,1,10,68896,blockP,180,2022-02-10_11h19.27.350,orientation adjustment blockP,2021.2.3,Win32,59.672992,,,,,,,
,,,,,,,,,,,,,,,,,,,,,,-30,19,20,75,20,1,0.4,-0.311111103,-0.411111125,1,0,0,1.0003,submitButton,5.111111111,0.350000018,-0.419444458,1,0,0,0,44,44,18,1,19,68896,blockP,180,2022-02-10_11h19.27.350,orientation adjustment blockP,2021.2.3,Win32,59.672992,continueButton,,,,,,
,,,,,,,,,,,,,,,,,,,,,,-48.33333333,-75,20,75,-250.3333333,4.666666667,1.866666667,0.373148167,-0.287037049,1,0,0,0.0165,submitButton,5.006451613,-0.028703691,-0.33240742,0,0,0,0,45,45,74,1,75,68896,blockP,180,2022-02-10_11h19.27.350,orientation adjustment blockP,2021.2.3,Win32,59.672992,,,,,,,
,,,,,,,,,,,,,,,,,,,,,,-40.55555556,16,20,75,15.44444444,0.555555556,0.222222222,0.23796298,-0.305555568,1,0,0,0.6,submitButton,4.856944444,0.222222239,-0.293518587,0,0,0,0,46,46,90,1,16,68896,blockP,180,2022-02-10_11h19.27.350,orientation adjustment blockP,2021.2.3,Win32,59.672992,,,,,,,
,,,,,,,,,,,,,,,,,,,,,,42.22222222,-47,20,75,-37.77777778,9.222222222,3.688888889,-0.356481474,-0.406481495,1,0,0,0.9673,submitButton,4.821548822,0.219444461,-0.182407474,0,0,0,0,47,47,46,1,47,68896,blockP,180,2022-02-10_11h19.27.350,orientation adjustment blockP,2021.2.3,Win32,59.672992,,,,,,,
,,,,,,,,,,,,,,,,,,,,,,42.77777778,31,20,75,43.77777778,12.77777778,5.111111111,0.366666685,-0.309259271,1,0,0,0.0997,submitButton,4.830065359,0.362037056,-0.205555623,0,0,0,0,48,48,105,1,31,68896,blockP,180,2022-02-10_11h19.27.350,orientation adjustment blockP,2021.2.3,Win32,59.672992,,,,,,,
,,,,,,,,,,,,,,,,,,,,,,-55,-86,20,75,-257,9,3.6,0.404629649,-0.320370383,1,0,0,0.1832,submitButton,4.794920635,0.088888903,-0.224074141,0,0,0,0,49,49,85,1,86,68896,blockP,180,2022-02-10_11h19.27.350,orientation adjustment blockP,2021.2.3,Win32,59.672992,,,,,,,
,,,,,,,,,,,,,,,,,,,,,,61.66666667,-28,20,75,-18.33333333,9.666666667,3.866666667,0.487037058,-0.287962975,1,0,0,0.0829,submitButton,4.769135802,0.141666682,-0.292592604,0,0,0,0,50,50,102,1,28,68896,blockP,180,2022-02-10_11h19.27.350,orientation adjustment blockP,2021.2.3,Win32,59.672992,,,,,,,
,,,,,,,,,,,,,,,,,,,,,,40,55,20,75,63,8,3.2,0.410185205,-0.309259271,1,0,0,0.1327,submitButton,4.726726727,0.260185202,-0.161111121,0,0,0,0,51,51,54,1,55,68896,blockP,180,2022-02-10_11h19.27.350,orientation adjustment blockP,2021.2.3,Win32,59.672992,,,,,,,
,,,,,,,,,,,,,,,,,,,,,,-58.88888889,-21,20,75,-26.88888889,5.888888889,2.355555556,-0.314814806,-0.39629631,1,0,0,1.5003,submitButton,4.664327485,0.219444461,-0.219444512,0,0,0,0,52,52,20,1,21,68896,blockP,180,2022-02-10_11h19.27.350,orientation adjustment blockP,2021.2.3,Win32,59.672992,,,,,,,
,,,,,,,,,,,,,,,,,,,,,,-41.11111111,-81,20,75,-81.11111111,0.111111111,0.044444444,0.154629645,-0.300000012,1,0,0,0.1667,submitButton,4.545868946,-0.309259251,-0.381481551,0,0,0,0,53,53,80,1,81,68896,blockP,180,2022-02-10_11h19.27.350,orientation adjustment blockP,2021.2.3,Win32,59.672992,,,,,,,
,,,,,,,,,,,,,,,,,,,,,,-36.11111111,44,20,75,33.88888889,10.11111111,4.044444444,-0.430555549,-0.371296309,1,0,0,1.133,submitButton,4.533333333,-0.067592524,-0.287962975,0,0,0,0,54,54,43,1,44,68896,blockP,180,2022-02-10_11h19.27.350,orientation adjustment blockP,2021.2.3,Win32,59.672992,,,,,,,
,,,,,,,,,,,,,,,,,,,,,,32.77777778,82,20,75,81.77777778,0.222222222,0.088888889,0.372222241,-0.311111123,1,0,0,0.1172,submitButton,4.424932249,0.0296297,-0.280555567,0,0,0,0,55,55,81,1,82,68896,blockP,180,2022-02-10_11h19.27.350,orientation adjustment blockP,2021.2.3,Win32,59.672992,,,,,,,
,,,,,,,,,,,,,,,,,,,,,,-21.11111111,36,20,75,25.88888889,10.11111111,4.044444444,-0.310185177,-0.431481495,1,0,0,0.8834,submitButton,4.415873016,0.152777793,-0.334259272,0,0,0,0,56,56,110,1,36,68896,blockP,180,2022-02-10_11h19.27.350,orientation adjustment blockP,2021.2.3,Win32,59.672992,,,,,,,
,,,,,,,,,,,,,,,,,,,,,,51.11111111,72,20,75,65.11111111,6.888888889,2.755555556,-0.401851845,-0.440740755,1,0,0,1.7495,submitButton,4.377260982,-0.12685184,-0.207407418,0,0,0,0,57,57,146,1,72,68896,blockP,180,2022-02-10_11h19.27.350,orientation adjustment blockP,2021.2.3,Win32,59.672992,,,,,,,
,,,,,,,,,,,,,,,,,,,,,,-60.55555556,-29,20,75,-30.55555556,1.555555556,0.622222222,0.219444461,-0.300925938,1,0,0,1.4329,submitButton,4.291919192,0.125925941,-0.316666735,0,0,0,0,58,58,28,1,29,68896,blockP,180,2022-02-10_11h19.27.350,orientation adjustment blockP,2021.2.3,Win32,59.672992,,,,,,,
,,,,,,,,,,,,,,,,,,,,,,25.55555556,-6,20,75,-14.44444444,8.444444444,3.377777778,0.429629762,-0.307407476,1,0,0,0.0335,submitButton,4.271604938,0.410185205,-0.394444458,1,0,0,0,59,59,5,1,6,68896,blockP,180,2022-02-10_11h19.27.350,orientation adjustment blockP,2021.2.3,Win32,59.672992,continueButton,,,,,,
,,,,,,,,,,,,,,,,,,,,,,31.66666667,-77,20,75,-70.33333333,6.666666667,2.666666667,0.420370503,-0.298148217,1,0,0,0.133,submitButton,4.236714976,0.146296312,-0.298148217,0,0,0,0,60,60,76,1,77,68896,blockP,180,2022-02-10_11h19.27.350,orientation adjustment blockP,2021.2.3,Win32,59.672992,,,,,,,
,,,,,,,,,,,,,,,,,,,,,,70,68,20,75,76,8,3.2,-0.341666659,-0.39629631,1,0,0,1.9505,submitButton,4.21465721,0.295370388,-0.208333344,0,0,0,0,61,61,67,1,68,68896,blockP,180,2022-02-10_11h19.27.350,orientation adjustment blockP,2021.2.3,Win32,59.672992,,,,,,,
,,,,,,,,,,,,,,,,,,,,,,-22.22222222,-34,20,75,-38.22222222,4.222222222,1.688888889,-0.28888888,-0.376851921,1,0,0,0.7166,submitButton,4.162037037,0.079629644,-0.218518529,0,0,0,0,62,62,33,1,34,68896,blockP,180,2022-02-10_11h19.27.350,orientation adjustment blockP,2021.2.3,Win32,59.672992,,,,,,,
,,,,,,,,,,,,,,,,,,,,,,-42.77777778,24,20,75,14.22222222,9.777777778,3.911111111,-0.28888888,-0.382407421,1,0,0,0.8336,submitButton,4.1569161,0.141666682,-0.295370382,0,0,0,0,63,63,98,1,24,68896,blockP,180,2022-02-10_11h19.27.350,orientation adjustment blockP,2021.2.3,Win32,59.672992,,,,,,,
,,,,,,,,,,,,,,,,,,,,,,-31.11111111,11,20,75,19.88888889,8.888888889,3.555555556,-0.336111103,-0.408333347,1,0,0,1.0169,submitButton,4.144888889,0.195370387,-0.275925937,0,0,0,0,64,64,10,1,11,68896,blockP,180,2022-02-10_11h19.27.350,orientation adjustment blockP,2021.2.3,Win32,59.672992,,,,,,,
,,,,,,,,,,,,,,,,,,,,,,-23.33333333,-18,20,75,-17.33333333,0.666666667,0.266666667,-0.383333326,-0.414814828,1,0,0,0.9172,submitButton,4.068845316,0.223148165,-0.312962975,0,0,0,0,65,65,92,1,18,68896,blockP,180,2022-02-10_11h19.27.350,orientation adjustment blockP,2021.2.3,Win32,59.672992,,,,,,,
,,,,,,,,,,,,,,,,,,,,,,45,64,20,75,68,4,1.6,0.400925945,-0.298148217,1,0,0,0.0495,submitButton,4.021367521,0.161111127,-0.296296308,0,0,0,0,66,66,138,1,64,68896,blockP,180,2022-02-10_11h19.27.350,orientation adjustment blockP,2021.2.3,Win32,59.672992,,,,,,,
,,,,,,,,,,,,,,,,,,,,,,46.11111111,-80,20,75,-67.88888889,12.11111111,4.844444444,0.362962982,-0.279629698,1,0,0,0.3339,submitButton,4.036897275,0.184259275,-0.175925936,0,0,0,0,67,67,79,1,80,68896,blockP,180,2022-02-10_11h19.27.350,orientation adjustment blockP,2021.2.3,Win32,59.672992,,,,,,,
,,,,,,,,,,,,,,,,,,,,,,-55.55555556,-73,20,75,-78.55555556,5.555555556,2.222222222,-0.278703695,-0.376851921,1,0,0,1.6002,submitButton,4.003292181,0.271296314,-0.300000012,0,0,0,0,68,68,147,1,73,68896,blockP,180,2022-02-10_11h19.27.350,orientation adjustment blockP,2021.2.3,Win32,59.672992,,,,,,,
,,,,,,,,,,,,,,,,,,,,,,35.55555556,53,20,75,71.55555556,18.55555556,12.06111111,-0.29351851,-0.402777791,1,0,0,0.7836,submitButton,4.14979798,0.102777793,-0.315740753,0,0,0,0,69,69,52,1,53,68896,blockP,180,2022-02-10_11h19.27.350,orientation adjustment blockP,2021.2.3,Win32,59.672992,,,,,,,
,,,,,,,,,,,,,,,,,,,,,,-25.55555556,-74,20,75,-75.55555556,1.555555556,0.622222222,-0.332407399,-0.42129631,1,0,0,0.7334,submitButton,4.086805556,0.201851868,-0.35277779,0,0,0,0,70,70,73,1,74,68896,blockP,180,2022-02-10_11h19.27.350,orientation adjustment blockP,2021.2.3,Win32,59.672992,,,,,,,
,,,,,,,,,,,,,,,,,,,,,,45.55555556,57,20,75,65.55555556,8.555555556,3.422222222,-0.329629621,-0.4046297,1,0,0,0.9996,submitButton,4.075146199,0.128703719,-0.298148217,0,0,0,0,71,71,131,1,57,68896,blockP,180,2022-02-10_11h19.27.350,orientation adjustment blockP,2021.2.3,Win32,59.672992,,,,,,,
,,,,,,,,,,,,,,,,,,,,,,-36.11111111,59,20,75,57.88888889,1.111111111,0.444444444,-0.330555547,-0.374074087,1,0,0,0.8846,submitButton,4.012547893,0.369444576,-0.319444457,0,0,0,0,72,72,133,1,59,68896,blockP,180,2022-02-10_11h19.27.350,orientation adjustment blockP,2021.2.3,Win32,59.672992,,,,,,,
,,,,,,,,,,,,,,,,,,,,,,-58.33333333,40,20,75,27.66666667,12.33333333,4.933333333,-0.286111102,-0.405555569,1,0,0,1.4996,submitButton,4.028154426,0.20370372,-0.195370381,0,0,0,0,73,73,39,1,40,68896,blockP,180,2022-02-10_11h19.27.350,orientation adjustment blockP,2021.2.3,Win32,59.672992,,,,,,,
,,,,,,,,,,,,,,,,,,,,,,66.66666667,50,20,75,230.6666667,0.666666667,0.266666667,0.211111128,-0.296296308,1,0,0,2.0182,submitButton,3.965462963,0.350926057,-0.401851865,1,0,0,0,74,74,49,1,50,68896,blockP,180,2022-02-10_11h19.27.350,orientation adjustment blockP,2021.2.3,Win32,59.672992,continueButton,,,,,,
,,,,,,,,,,,,,,,,,,,,,,-32.77777778,22,20,75,24.22222222,2.222222222,0.888888889,-0.457407373,-0.375925939,1,0,0,1.7333,submitButton,3.915027322,0.196296312,-0.059259268,0,0,0,0,75,75,21,1,22,68896,blockP,180,2022-02-10_11h19.27.350,orientation adjustment blockP,2021.2.3,Win32,59.672992,,,,,,,
,,,,,,,,,,,,,,,,,,,,,,43.88888889,31,20,75,41.88888889,10.88888889,4.355555556,0.362962982,-0.305555568,1,0,0,0.3008,submitButton,3.922132616,0.221296313,-0.277777789,0,0,0,0,76,76,30,1,31,68896,blockP,180,2022-02-10_11h19.27.350,orientation adjustment blockP,2021.2.3,Win32,59.672992,,,,,,,
,,,,,,,,,,,,,,,,,,,,,,-31.66666667,-35,20,75,-46.66666667,11.66666667,4.666666667,-0.335185177,-0.428703718,1,0,0,0.8288,submitButton,3.933950617,0.086111126,-0.100925935,0,0,0,0,77,77,109,1,35,68896,blockP,180,2022-02-10_11h19.27.350,orientation adjustment blockP,2021.2.3,Win32,59.672992,,,,,,,
,,,,,,,,,,,,,,,,,,,,,,-28.33333333,33,20,75,35.66666667,2.666666667,1.066666667,-0.349074066,-0.394444458,1,0,0,0.9285,submitButton,3.889149306,0.013888902,-0.282407419,0,0,0,0,78,78,107,1,33,68896,blockP,180,2022-02-10_11h19.27.350,orientation adjustment blockP,2021.2.3,Win32,59.672992,,,,,,,
,,,,,,,,,,,,,,,,,,,,,,34.44444444,20,20,75,28.44444444,8.444444444,3.377777778,0.400000019,-0.290740753,1,0,0,0.5455,submitButton,3.881282051,0.059259273,-0.282407419,0,0,0,0,79,79,19,1,20,68896,blockP,180,2022-02-10_11h19.27.350,orientation adjustment blockP,2021.2.3,Win32,59.672992,,,,,,,
,,,,,,,,,,,,,,,,,,,,,,-51.66666667,64,20,75,60.33333333,3.666666667,1.466666667,0.214814831,-0.312037106,1,0,0,0.7291,submitButton,3.84469697,-0.19999999,-0.262037048,0,0,0,0,80,80,63,1,64,68896,blockP,180,2022-02-10_11h19.27.350,orientation adjustment blockP,2021.2.3,Win32,59.672992,,,,,,,
,,,,,,,,,,,,,,,,,,,,,,52.22222222,-58,20,75,-56.77777778,1.222222222,0.488888889,0.427777797,-0.291666678,1,0,0,0.1007,submitButton,3.794610282,-0.302777769,-0.398148162,0,0,0,0,81,81,57,1,58,68896,blockP,180,2022-02-10_11h19.27.350,orientation adjustment blockP,2021.2.3,Win32,59.672992,,,,,,,
,,,,,,,,,,,,,,,,,,,,,,-57.77777778,-52,20,75,-71.77777778,19.77777778,12.85555556,0.183333349,-0.331481494,1,0,0,0.1337,submitButton,3.927859477,-0.303703695,-0.377777791,0,0,0,0,82,82,51,1,52,68896,blockP,180,2022-02-10_11h19.27.350,orientation adjustment blockP,2021.2.3,Win32,59.672992,,,,,,,
,,,,,,,,,,,,,,,,,,,,,,68.88888889,-50,20,75,-58.11111111,8.111111111,3.244444444,-0.363888881,-0.425000014,1,0,0,1.951,submitButton,3.917954911,-0.363888881,-0.425000014,0,0,0,0,83,83,124,1,50,68896,blockP,180,2022-02-10_11h19.27.350,orientation adjustment blockP,2021.2.3,Win32,59.672992,,,,,,,
,,,,,,,,,,,,,,,,,,,,,,-58.33333333,-66,20,75,-72.33333333,6.333333333,2.533333333,0.179629646,-0.336111124,1,0,0,1.0681,submitButton,3.898174603,-0.267592583,-0.390740811,0,0,0,0,84,84,65,1,66,68896,blockP,180,2022-02-10_11h19.27.350,orientation adjustment blockP,2021.2.3,Win32,59.672992,,,,,,,
,,,,,,,,,,,,,,,,,,,,,,-38.33333333,-38,20,75,-42.33333333,4.333333333,1.733333333,-0.34351851,-0.42592594,1,0,0,1.1347,submitButton,3.867683881,-0.34351851,-0.42592594,0,0,0,0,85,85,37,1,38,68896,blockP,180,2022-02-10_11h19.27.350,orientation adjustment blockP,2021.2.3,Win32,59.672992,,,,,,,
,,,,,,,,,,,,,,,,,,,,,,-56.66666667,88,20,75,84.33333333,3.666666667,1.466666667,0.176851868,-0.324074086,1,0,0,0.8279,submitButton,3.83433642,-0.312037028,-0.394444458,0,0,0,0,86,86,87,1,88,68896,blockP,180,2022-02-10_11h19.27.350,orientation adjustment blockP,2021.2.3,Win32,59.672992,,,,,,,
,,,,,,,,,,,,,,,,,,,,,,66.66666667,32,20,75,205.6666667,6.333333333,2.533333333,-0.336111103,-0.426851866,1,0,0,2.6001,submitButton,3.81651446,0.008333347,-0.155555565,0,0,0,0,87,87,106,1,32,68896,blockP,180,2022-02-10_11h19.27.350,orientation adjustment blockP,2021.2.3,Win32,59.672992,,,,,,,
,,,,,,,,,,,,,,,,,,,,,,-48.33333333,24,20,75,27.66666667,3.666666667,1.466666667,-0.338888881,-0.442592607,1,0,0,1.2274,submitButton,3.78475976,-0.34351851,-0.420370384,0,0,0,0,88,88,23,1,24,68896,blockP,180,2022-02-10_11h19.27.350,orientation adjustment blockP,2021.2.3,Win32,59.672992,,,,,,,
,,,,,,,,,,,,,,,,,,,,,,-23.88888889,-71,20,75,-67.88888889,3.111111111,1.244444444,-0.308333325,-0.376851921,1,0,0,1.295,submitButton,3.750888889,0.328703722,-0.42129631,1,0,0,0,89,89,70,1,71,68896,blockP,180,2022-02-10_11h19.27.350,orientation adjustment blockP,2021.2.3,Win32,59.672992,continueButton,,,,,,
,,,,,,,,,,,,,,,,,,,,,,-60.55555556,73,20,75,57.44444444,15.55555556,10.11111111,-0.384259252,-0.414814828,1,0,0,1.5001,submitButton,3.834576023,0.225000017,-0.219444512,0,0,0,0,90,90,72,1,73,68896,blockP,180,2022-02-10_11h19.27.350,orientation adjustment blockP,2021.2.3,Win32,59.672992,,,,,,,
,,,,,,,,,,,,,,,,,,,,,,42.77777778,-13,20,75,-17.22222222,4.222222222,1.688888889,-0.245370361,-0.392592606,1,0,0,1.3673,submitButton,3.806709957,0.275000017,-0.254629641,0,0,0,0,91,91,12,1,13,68896,blockP,180,2022-02-10_11h19.27.350,orientation adjustment blockP,2021.2.3,Win32,59.672992,,,,,,,
,,,,,,,,,,,,,,,,,,,,,,-70,-61,20,75,-249,8,3.2,-0.339814807,-0.400925939,1,0,0,2.4503,submitButton,3.798931624,0.142592608,-0.092592601,0,0,0,0,92,92,135,1,61,68896,blockP,180,2022-02-10_11h19.27.350,orientation adjustment blockP,2021.2.3,Win32,59.672992,,,,,,,
,,,,,,,,,,,,,,,,,,,,,,66.11111111,-78,20,75,-67.88888889,10.11111111,4.044444444,0.45740754,-0.27314816,1,0,0,0.0997,submitButton,3.802039381,0.26759261,-0.110185194,0,0,0,0,93,93,77,1,78,68896,blockP,180,2022-02-10_11h19.27.350,orientation adjustment blockP,2021.2.3,Win32,59.672992,,,,,,,
,,,,,,,,,,,,,,,,,,,,,,68.88888889,55,20,75,253.8888889,18.88888889,12.27777778,-0.282407398,-0.375000013,1,0,0,2.4841,submitButton,3.907986111,0.072222237,-0.075925935,0,0,0,0,94,94,129,1,55,68896,blockP,180,2022-02-10_11h19.27.350,orientation adjustment blockP,2021.2.3,Win32,59.672992,,,,,,,
,,,,,,,,,,,,,,,,,,,,,,31.66666667,48,20,75,60.66666667,12.66666667,5.066666667,-0.41666666,-0.371296309,1,0,0,0.8829,submitButton,3.922290809,0.307407425,-0.097222231,0,0,0,0,95,95,122,1,48,68896,blockP,180,2022-02-10_11h19.27.350,orientation adjustment blockP,2021.2.3,Win32,59.672992,,,,,,,
,,,,,,,,,,,,,,,,,,,,,,-50.55555556,-76,20,75,-77.55555556,1.555555556,0.622222222,0.235185202,-0.284259327,1,0,0,0.4832,submitButton,3.88204607,0.137962978,-0.275925937,0,0,0,0,96,96,75,1,76,68896,blockP,180,2022-02-10_11h19.27.350,orientation adjustment blockP,2021.2.3,Win32,59.672992,,,,,,,
,,,,,,,,,,,,,,,,,,,,,,43.33333333,60,20,75,61.33333333,1.333333333,0.533333333,-0.384259252,-0.384259272,1,0,0,1.3171,submitButton,3.841700134,-0.006481468,-0.089814824,0,0,0,0,97,97,134,1,60,68896,blockP,180,2022-02-10_11h19.27.350,orientation adjustment blockP,2021.2.3,Win32,59.672992,,,,,,,
,,,,,,,,,,,,,,,,,,,,,,-71.66666667,23,20,75,20.33333333,2.666666667,1.066666667,0.216666683,-0.301851864,1,0,0,1.2507,submitButton,3.808664021,-0.349074066,-0.429629643,0,0,0,0,98,98,22,1,23,68896,blockP,180,2022-02-10_11h19.27.350,orientation adjustment blockP,2021.2.3,Win32,59.672992,,,,,,,
,,,,,,,,,,,,,,,,,,,,,,-31.11111111,38,20,75,27.88888889,10.11111111,4.044444444,-0.357407399,-0.393518532,1,0,0,1.1171,submitButton,3.811437908,-0.021296227,-0.119444454,0,0,0,0,99,99,112,1,38,68896,blockP,180,2022-02-10_11h19.27.350,orientation adjustment blockP,2021.2.3,Win32,59.672992,,,,,,,
,,,,,,,,,,,,,,,,,,,,,,-31.11111111,46,20,75,40.88888889,5.111111111,2.044444444,-0.312962954,-0.422222236,1,0,0,1.0324,submitButton,3.790891473,-0.023148135,-0.184259269,0,0,0,0,100,100,120,1,46,68896,blockP,180,2022-02-10_11h19.27.350,orientation adjustment blockP,2021.2.3,Win32,59.672992,,,,,,,
,,,,,,,,,,,,,,,,,,,,,,38.33333333,-74,20,75,-56.66666667,17.33333333,11.26666667,-0.409259252,-0.420370384,1,0,0,1.0509,submitButton,3.876819923,0.319444462,-0.127777787,0,0,0,0,101,101,148,1,74,68896,blockP,180,2022-02-10_11h19.27.350,orientation adjustment blockP,2021.2.3,Win32,59.672992,,,,,,,
,,,,,,,,,,,,,,,,,,,,,,38.33333333,-66,20,75,-51.66666667,14.33333333,5.733333333,0.38611113,-0.319444457,1,0,0,0.0828,submitButton,3.897916667,-0.334259251,-0.409259329,0,0,0,0,102,102,140,1,66,68896,blockP,180,2022-02-10_11h19.27.350,orientation adjustment blockP,2021.2.3,Win32,59.672992,,,,,,,
,,,,,,,,,,,,,,,,,,,,,,-23.33333333,69,20,75,62.66666667,6.333333333,2.533333333,-0.34814814,-0.375000013,1,0,0,1.1666,submitButton,3.88258427,0.462962983,-0.325000012,0,0,0,0,103,103,68,1,69,68896,blockP,180,2022-02-10_11h19.27.350,orientation adjustment blockP,2021.2.3,Win32,59.672992,,,,,,,
,,,,,,,,,,,,,,,,,,,,,,-30.55555556,-27,20,75,-36.55555556,9.555555556,3.822222222,-0.350925918,-0.384259272,1,0,0,0.5997,submitButton,3.88191358,0.493518539,-0.399074087,1,0,0,0,104,104,26,1,27,68896,blockP,180,2022-02-10_11h19.27.350,orientation adjustment blockP,2021.2.3,Win32,59.672992,continueButton,,,,,,
,,,,,,,,,,,,,,,,,,,,,,-73.88888889,-41,20,75,-34.88888889,6.111111111,2.444444444,0.182407423,-0.291666678,1,0,0,0.5503,submitButton,3.866117216,-0.067592524,-0.126851918,0,0,0,0,105,105,40,1,41,68896,blockP,180,2022-02-10_11h19.27.350,orientation adjustment blockP,2021.2.3,Win32,59.672992,,,,,,,
,,,,,,,,,,,,,,,,,,,,,,54.44444444,30,20,75,33.44444444,3.444444444,1.377777778,0.38611113,-0.325000012,1,0,0,0.0676,submitButton,3.839070048,0.360185317,-0.194444455,0,0,0,0,106,106,104,1,30,68896,blockP,180,2022-02-10_11h19.27.350,orientation adjustment blockP,2021.2.3,Win32,59.672992,,,,,,,
,,,,,,,,,,,,,,,,,,,,,,-36.66666667,48,20,75,29.33333333,18.66666667,12.13333333,-0.278703695,-0.413888959,1,0,0,0.6668,submitButton,3.928255675,-0.087037025,-0.102777787,0,0,0,0,107,107,47,1,48,68896,blockP,180,2022-02-10_11h19.27.350,orientation adjustment blockP,2021.2.3,Win32,59.672992,,,,,,,
,,,,,,,,,,,,,,,,,,,,,,34.44444444,56,20,75,55.44444444,0.555555556,0.222222222,-0.24999999,-0.384259272,1,0,0,1.1833,submitButton,3.888829787,0.196296312,-0.119444454,0,0,0,0,108,108,55,1,56,68896,blockP,180,2022-02-10_11h19.27.350,orientation adjustment blockP,2021.2.3,Win32,59.672992,,,,,,,
,,,,,,,,,,,,,,,,,,,,,,27.22222222,-70,20,75,-59.77777778,10.22222222,4.088888889,0.377777797,-0.296296308,1,0,0,0.567,submitButton,3.890935673,0.061111125,-0.130555565,0,0,0,0,109,109,144,1,70,68896,blockP,180,2022-02-10_11h19.27.350,orientation adjustment blockP,2021.2.3,Win32,59.672992,,,,,,,
,,,,,,,,,,,,,,,,,,,,,,65,-17,20,75,-13,4,1.6,-0.422222215,-0.400925939,1,0,0,1.8339,submitButton,3.867071759,0.156481497,-0.183333344,0,0,0,0,110,110,91,1,17,68896,blockP,180,2022-02-10_11h19.27.350,orientation adjustment blockP,2021.2.3,Win32,59.672992,,,,,,,
,,,,,,,,,,,,,,,,,,,,,,45,2,20,75,5,3,1.2,-0.367592585,-0.402777791,1,0,0,1.6342,submitButton,3.839576174,0.183333349,-0.089814824,0,0,0,0,111,111,1,1,2,68896,blockP,180,2022-02-10_11h19.27.350,orientation adjustment blockP,2021.2.3,Win32,59.672992,,,,,,,
,,,,,,,,,,,,,,,,,,,,,,65.55555556,23,20,75,24.55555556,1.555555556,0.622222222,0.387963095,-0.305555568,1,0,0,1.0334,submitButton,3.806746032,-0.163888878,-0.230555566,0,0,0,0,112,112,97,1,23,68896,blockP,180,2022-02-10_11h19.27.350,orientation adjustment blockP,2021.2.3,Win32,59.672992,,,,,,,
,,,,,,,,,,,,,,,,,,,,,,26.11111111,89,20,75,88.11111111,0.888888889,0.355555556,0.440740761,-0.306481493,1,0,0,0.0997,submitButton,3.771885522,0.074074088,-0.160185195,0,0,0,0,113,113,88,1,89,68896,blockP,180,2022-02-10_11h19.27.350,orientation adjustment blockP,2021.2.3,Win32,59.672992,,,,,,,
,,,,,,,,,,,,,,,,,,,,,,-28.88888889,47,20,75,37.11111111,9.888888889,3.955555556,0.429629762,-0.285185197,1,0,0,0.8165,submitButton,3.773722222,-0.34351851,-0.127777787,0,0,0,0,114,114,121,1,47,68896,blockP,180,2022-02-10_11h19.27.350,orientation adjustment blockP,2021.2.3,Win32,59.672992,,,,,,,
,,,,,,,,,,,,,,,,,,,,,,-27.22222222,87,20,75,86.77777778,0.222222222,0.088888889,-0.335185177,-0.379629643,1,0,0,1.3666,submitButton,3.737238724,-0.159259248,-0.116666676,0,0,0,0,115,115,86,1,87,68896,blockP,180,2022-02-10_11h19.27.350,orientation adjustment blockP,2021.2.3,Win32,59.672992,,,,,,,
,,,,,,,,,,,,,,,,,,,,,,36.66666667,36,20,75,58.66666667,22.66666667,14.73333333,0.388888908,-0.300000012,1,0,0,0.533,submitButton,3.845043573,0.176851868,-0.012962971,0,0,0,0,116,116,35,1,36,68896,blockP,180,2022-02-10_11h19.27.350,orientation adjustment blockP,2021.2.3,Win32,59.672992,,,,,,,
,,,,,,,,,,,,,,,,,,,,,,-33.33333333,65,20,75,67.66666667,2.666666667,1.066666667,0.173148164,-0.296296308,1,0,0,0.3173,submitButton,3.81806904,0.192592609,-0.096296305,0,0,0,0,117,117,64,1,65,68896,blockP,180,2022-02-10_11h19.27.350,orientation adjustment blockP,2021.2.3,Win32,59.672992,,,,,,,
,,,,,,,,,,,,,,,,,,,,,,-63.33333333,-15,20,75,-32.33333333,17.33333333,11.26666667,-0.341666659,-0.401851865,1,0,0,1.3672,submitButton,3.889690171,-0.071296284,-0.027777786,0,0,0,0,118,118,14,1,15,68896,blockP,180,2022-02-10_11h19.27.350,orientation adjustment blockP,2021.2.3,Win32,59.672992,,,,,,,
,,,,,,,,,,,,,,,,,,,,,,-47.77777778,-5,20,75,-14.77777778,9.777777778,3.911111111,-0.311111103,-0.399074087,1,0,0,0.9172,submitButton,3.88989418,0.475926059,-0.387962976,1,0,0,0,119,119,4,1,5,68896,blockP,180,2022-02-10_11h19.27.350,orientation adjustment blockP,2021.2.3,Win32,59.672992,continueButton,,,,,,
,,,,,,,,,,,,,,,,,,,,,,30.55555556,-85,20,75,-81.44444444,3.555555556,1.422222222,0.335185203,-0.287037049,1,0,0,0.4674,submitButton,3.866614256,-0.137036969,-0.123148157,0,0,0,0,120,120,84,1,85,68896,blockP,180,2022-02-10_11h19.27.350,orientation adjustment blockP,2021.2.3,Win32,59.672992,,,,,,,
,,,,,,,,,,,,,,,,,,,,,,41.66666667,70,20,75,78.66666667,8.666666667,3.466666667,-0.25925925,-0.392592606,1,0,0,1.4168,submitButton,3.862876428,0.384259278,-0.080555564,0,0,0,0,121,121,69,1,70,68896,blockP,180,2022-02-10_11h19.27.350,orientation adjustment blockP,2021.2.3,Win32,59.672992,,,,,,,
,,,,,,,,,,,,,,,,,,,,,,-71.11111111,-22,20,75,-12.11111111,9.888888889,3.955555556,-0.312962954,-0.394444458,1,0,0,1.8503,submitButton,3.863734568,0.133333349,-0.154629696,0,0,0,0,122,122,96,1,22,68896,blockP,180,2022-02-10_11h19.27.350,orientation adjustment blockP,2021.2.3,Win32,59.672992,,,,,,,
,,,,,,,,,,,,,,,,,,,,,,-37.77777778,-3,20,75,-8.777777778,5.777777778,2.311111111,-0.327777769,-0.417592606,1,0,0,0.8334,submitButton,3.849490316,-0.129629618,-0.155555565,0,0,0,0,123,123,2,1,3,68896,blockP,180,2022-02-10_11h19.27.350,orientation adjustment blockP,2021.2.3,Win32,59.672992,,,,,,,
,,,,,,,,,,,,,,,,,,,,,,-28.33333333,26,20,75,27.66666667,1.666666667,0.666666667,-0.316666658,-0.412962977,1,0,0,0.9167,submitButton,3.820555556,-0.258333324,-0.208333344,0,0,0,0,124,124,25,1,26,68896,blockP,180,2022-02-10_11h19.27.350,orientation adjustment blockP,2021.2.3,Win32,59.672992,,,,,,,
,,,,,,,,,,,,,,,,,,,,,,69.44444444,-17,20,75,-18.55555556,1.555555556,0.622222222,-0.289814749,-0.381481551,1,0,0,2.1175,submitButton,3.791741742,-0.497222216,-0.150000066,0,0,0,0,125,125,16,1,17,68896,blockP,180,2022-02-10_11h19.27.350,orientation adjustment blockP,2021.2.3,Win32,59.672992,,,,,,,
,,,,,,,,,,,,,,,,,,,,,,-42.22222222,-54,20,75,-62.22222222,8.222222222,3.288888889,-0.309259251,-0.381481551,1,0,0,1.2326,submitButton,3.787251984,-0.124074063,-0.20000001,0,0,0,0,126,126,53,1,54,68896,blockP,180,2022-02-10_11h19.27.350,orientation adjustment blockP,2021.2.3,Win32,59.672992,,,,,,,
,,,,,,,,,,,,,,,,,,,,,,41.66666667,84,20,75,80.66666667,3.333333333,1.333333333,0.352777796,-0.281481493,1,0,0,0.7009,submitButton,3.76553589,-0.238888823,-0.266666678,0,0,0,0,127,127,83,1,84,68896,blockP,180,2022-02-10_11h19.27.350,orientation adjustment blockP,2021.2.3,Win32,59.672992,,,,,,,
,,,,,,,,,,,,,,,,,,,,,,38.33333333,65,20,75,62.33333333,2.666666667,1.066666667,0.376851871,-0.306481493,1,0,0,0.699,submitButton,3.741861598,-0.217592583,-0.23796303,0,0,0,0,128,128,139,1,65,68896,blockP,180,2022-02-10_11h19.27.350,orientation adjustment blockP,2021.2.3,Win32,59.672992,,,,,,,
,,,,,,,,,,,,,,,,,,,,,,-32.22222222,49,20,75,59.77777778,10.77777778,4.311111111,-0.381481474,-0.412962977,1,0,0,1.3835,submitButton,3.746811594,-0.038888876,-0.126851918,0,0,0,0,129,129,48,1,49,68896,blockP,180,2022-02-10_11h19.27.350,orientation adjustment blockP,2021.2.3,Win32,59.672992,,,,,,,
,,,,,,,,,,,,,,,,,,,,,,43.33333333,-32,20,75,-23.66666667,8.333333333,3.333333333,-0.28425925,-0.389814828,1,0,0,1.2835,submitButton,3.743247126,-0.200925916,-0.219444512,0,0,0,0,130,130,31,1,32,68896,blockP,180,2022-02-10_11h19.27.350,orientation adjustment blockP,2021.2.3,Win32,59.672992,,,,,,,
,,,,,,,,,,,,,,,,,,,,,,-37.77777778,-27,20,75,-26.77777778,0.222222222,0.088888889,-0.28055549,-0.372222292,1,0,0,1.3001,submitButton,3.712013295,-0.058333264,-0.150925936,0,0,0,0,131,131,101,1,27,68896,blockP,180,2022-02-10_11h19.27.350,orientation adjustment blockP,2021.2.3,Win32,59.672992,,,,,,,
,,,,,,,,,,,,,,,,,,,,,,66.11111111,-40,20,75,-22.88888889,17.11111111,11.12222222,-0.371296289,-0.445370384,1,0,0,1.3333,submitButton,3.774811676,-0.345370362,-0.39629631,0,0,0,0,132,132,114,1,40,68896,blockP,180,2022-02-10_11h19.27.350,orientation adjustment blockP,2021.2.3,Win32,59.672992,,,,,,,
,,,,,,,,,,,,,,,,,,,,,,47.22222222,62,20,75,68.22222222,6.222222222,2.488888889,0.392592725,-0.311111123,1,0,0,0.0993,submitButton,3.764005602,-0.32314814,-0.387962976,0,0,0,0,133,133,136,1,62,68896,blockP,180,2022-02-10_11h19.27.350,orientation adjustment blockP,2021.2.3,Win32,59.672992,,,,,,,
,,,,,,,,,,,,,,,,,,,,,,-62.77777778,-42,20,75,-216.7777778,5.222222222,2.088888889,0.403703723,-0.285185197,1,0,0,1.8174,submitButton,3.750046296,0.241666684,-0.415740754,1,0,0,0,134,134,41,1,42,68896,blockP,180,2022-02-10_11h19.27.350,orientation adjustment blockP,2021.2.3,Win32,59.672992,continueButton,,,,,,
,,,,,,,,,,,,,,,,,,,,,,38.33333333,-75,20,75,-72.66666667,2.333333333,0.933333333,-0.301851843,-0.365740754,1,0,0,1.3674,submitButton,3.726767677,0.038888959,-0.193518529,0,0,0,0,135,135,149,1,75,68896,blockP,180,2022-02-10_11h19.27.350,orientation adjustment blockP,2021.2.3,Win32,59.672992,,,,,,,
,,,,,,,,,,,,,,,,,,,,,,62.22222222,-53,20,75,-50.77777778,2.222222222,0.888888889,-0.392592585,-0.428703718,1,0,0,1.5003,submitButton,3.703506375,0.26296298,0.005555548,0,0,0,0,136,136,127,1,53,68896,blockP,180,2022-02-10_11h19.27.350,orientation adjustment blockP,2021.2.3,Win32,59.672992,,,,,,,
,,,,,,,,,,,,,,,,,,,,,,20,-59,20,75,-60,1,0.4,-0.403703696,-0.374074087,1,0,0,0.6168,submitButton,3.6766486,0.311111129,-0.015740748,0,0,0,0,137,137,58,1,59,68896,blockP,180,2022-02-10_11h19.27.350,orientation adjustment blockP,2021.2.3,Win32,59.672992,,,,,,,
,,,,,,,,,,,,,,,,,,,,,,33.33333333,-37,20,75,-30.66666667,6.333333333,2.533333333,-0.331481473,-0.388888902,1,0,0,0.951,submitButton,3.667428315,0.109259274,-0.20925927,0,0,0,0,138,138,111,1,37,68896,blockP,180,2022-02-10_11h19.27.350,orientation adjustment blockP,2021.2.3,Win32,59.672992,,,,,,,
,,,,,,,,,,,,,,,,,,,,,,-32.77777778,-8,20,75,-9.777777778,1.777777778,0.711111111,-0.311111103,-0.379629643,1,0,0,0.6163,submitButton,3.643777778,-0.185185175,-0.2388889,0,0,0,0,139,139,7,1,8,68896,blockP,180,2022-02-10_11h19.27.350,orientation adjustment blockP,2021.2.3,Win32,59.672992,,,,,,,
,,,,,,,,,,,,,,,,,,,,,,36.66666667,-56,20,75,-45.33333333,10.66666667,4.266666667,0.384259278,-0.310185197,1,0,0,0.1662,submitButton,3.64872134,-0.232407398,-0.188888899,0,0,0,0,140,140,130,1,56,68896,blockP,180,2022-02-10_11h19.27.350,orientation adjustment blockP,2021.2.3,Win32,59.672992,,,,,,,
,,,,,,,,,,,,,,,,,,,,,,-31.11111111,25,20,75,25.88888889,0.888888889,0.355555556,-0.291666658,-0.397222236,1,0,0,0.7512,submitButton,3.622790901,-0.175925915,-0.169444454,0,0,0,0,141,141,24,1,25,68896,blockP,180,2022-02-10_11h19.27.350,orientation adjustment blockP,2021.2.3,Win32,59.672992,,,,,,,
,,,,,,,,,,,,,,,,,,,,,,-58.33333333,-42,20,75,-39.33333333,2.666666667,1.066666667,0.215740757,-0.286111123,1,0,0,0.4833,submitButton,3.602821181,0.039814829,-0.08611112,0,0,0,0,142,142,116,1,42,68896,blockP,180,2022-02-10_11h19.27.350,orientation adjustment blockP,2021.2.3,Win32,59.672992,,,,,,,
,,,,,,,,,,,,,,,,,,,,,,-52.22222222,-69,20,75,-254.2222222,5.222222222,2.088888889,0.39074076,-0.312037106,1,0,0,0.3505,submitButton,3.591085271,-0.183333266,-0.193518529,0,0,0,0,143,143,143,1,69,68896,blockP,180,2022-02-10_11h19.27.350,orientation adjustment blockP,2021.2.3,Win32,59.672992,,,,,,,
,,,,,,,,,,,,,,,,,,,,,,-39.44444444,-72,20,75,-74.44444444,2.444444444,0.977777778,0.383333465,-0.310185197,1,0,0,1.25,submitButton,3.570982906,-0.120370359,-0.066666675,0,0,0,0,144,144,71,1,72,68896,blockP,180,2022-02-10_11h19.27.350,orientation adjustment blockP,2021.2.3,Win32,59.672992,,,,,,,
,,,,,,,,,,,,,,,,,,,,,,-32.22222222,18,20,75,33.77777778,15.77777778,10.25555556,-0.29351851,-0.420370384,1,0,0,1.1835,submitButton,3.622010178,-0.013888876,-0.127777787,0,0,0,0,145,145,17,1,18,68896,blockP,180,2022-02-10_11h19.27.350,orientation adjustment blockP,2021.2.3,Win32,59.672992,,,,,,,
,,,,,,,,,,,,,,,,,,,,,,-32.22222222,52,20,75,40.77777778,11.22222222,4.488888889,-0.316666658,-0.358333403,1,0,0,0.6003,submitButton,3.628577441,-0.162037026,-0.139814824,0,0,0,0,146,146,126,1,52,68896,blockP,180,2022-02-10_11h19.27.350,orientation adjustment blockP,2021.2.3,Win32,59.672992,,,,,,,
,,,,,,,,,,,,,,,,,,,,,,62.77777778,-29,20,75,-24.22222222,4.777777778,1.911111111,-0.362037029,-0.386111181,1,0,0,1.2339,submitButton,3.61566416,-0.172222212,-0.125925935,0,0,0,0,147,147,103,1,29,68896,blockP,180,2022-02-10_11h19.27.350,orientation adjustment blockP,2021.2.3,Win32,59.672992,,,,,,,
,,,,,,,,,,,,,,,,,,,,,,-25.55555556,83,20,75,76.44444444,6.555555556,2.622222222,-0.362037029,-0.39166668,1,0,0,0.5504,submitButton,3.608250415,-0.12685184,-0.116666676,0,0,0,0,148,148,82,1,83,68896,blockP,180,2022-02-10_11h19.27.350,orientation adjustment blockP,2021.2.3,Win32,59.672992,,,,,,,
,,,,,,,,,,,,,,,,,,,,,,43.88888889,-90,20,75,-92.11111111,2.111111111,0.844444444,-0.258333324,-0.405555569,1,0,0,1.4662,submitButton,3.587777778,0.321296314,-0.415740754,1,0,0,0,149,149,89,1,90,68896,blockP,180,2022-02-10_11h19.27.350,orientation adjustment blockP,2021.2.3,Win32,59.672992,continueButton,,,,,,
,,,,,,,,,,,,,,,,,,,,,,,,,,,,,,,,,,,,,,,,,,,,,,,,68896,blockP,180,2022-02-10_11h19.27.350,orientation adjustment blockP,2021.2.3,Win32,59.672992,,0.314814833,-0.401851865,1,0,0,EndButtonTxt
