consentMouse1.x,consentMouse1.y,consentMouse1.leftButton,consentMouse1.midButton,consentMouse1.rightButton,consentMouse1.clicked_name,consent_Mouse.x,consent_Mouse.y,consent_Mouse.leftButton,consent_Mouse.midButton,consent_Mouse.rightButton,consent_Mouse.clicked_name,startMouse.x,startMouse.y,startMouse.leftButton,startMouse.midButton,startMouse.rightButton,startMouse_2.x,startMouse_2.y,startMouse_2.leftButton,startMouse_2.midButton,startMouse_2.rightButton,start_distance,fixedOri,minimalDistance,maxOri,this_ori,accuracy,presented_accuracy,submitMouse.x,submitMouse.y,submitMouse.leftButton,submitMouse.midButton,submitMouse.rightButton,submitMouse.time,submitMouse.clicked_name,block_accuracy,continueMouse.x,continueMouse.y,continueMouse.leftButton,continueMouse.midButton,continueMouse.rightButton,trials.thisRepN,trials.thisTrialN,trials.thisN,trials.thisIndex,trials.ran,startOri,participant,condition,nTrials,date,expName,psychopyVersion,OS,frameRate,continueMouse.clicked_name,EndButtonMouse.x,EndButtonMouse.y,EndButtonMouse.leftButton,EndButtonMouse.midButton,EndButtonMouse.rightButton,EndButtonMouse.clicked_name
0.460185225,-0.400925953,1,0,0,consent_button1,0.388888927,-0.38333336,1,0,0,consent_button,0.384259297,-0.384259286,1,0,0,0.17314818,-0.273148171,1,0,0,69.44444444,-76,20,75,-5.555555556,70.44444444,63.4,0.379629667,-0.294444468,1,0,0,2.6808,submitButton,63.4,-0.360185169,-0.39629638,0,0,0,0,0,0,75,1,76,69274,blockP,180,2022-02-10_09h57.45.857,orientation adjustment blockP,2021.2.3,Win32,60.54734803,,,,,,,
,,,,,,,,,,,,,,,,,,,,,,24.44444444,-69,20,75,-57.55555556,11.44444444,4.577777778,0.392592631,-0.301851932,1,0,0,1.2132,submitButton,33.98888889,0.110185215,-0.331481506,0,0,0,0,1,1,143,1,69,69274,blockP,180,2022-02-10_09h57.45.857,orientation adjustment blockP,2021.2.3,Win32,60.54734803,,,,,,,
,,,,,,,,,,,,,,,,,,,,,,-49.44444444,63,20,75,26.55555556,36.44444444,29.15555556,-0.191666646,-0.381481508,1,0,0,1.4788,submitButton,32.37777778,0.077777807,-0.329629711,0,0,0,0,2,2,62,1,63,69274,blockP,180,2022-02-10_09h57.45.857,orientation adjustment blockP,2021.2.3,Win32,60.54734803,,,,,,,
,,,,,,,,,,,,,,,,,,,,,,32.22222222,33,20,75,38.22222222,5.222222222,2.088888889,0.403703742,-0.286111135,1,0,0,0.2138,submitButton,2.088888889,0.067592621,-0.345370396,0,0,0,0,3,3,107,1,33,69274,blockP,180,2022-02-10_09h57.45.857,orientation adjustment blockP,2021.2.3,Win32,60.54734803,,,,,,,
,,,,,,,,,,,,,,,,,,,,,,67.77777778,71,20,75,223.7777778,27.22222222,17.69444444,0.235185219,-0.287963043,1,0,0,0.0998,submitButton,9.891666667,0.263888923,-0.352777803,0,0,0,0,4,4,70,1,71,69274,blockP,180,2022-02-10_09h57.45.857,orientation adjustment blockP,2021.2.3,Win32,60.54734803,,,,,,,
,,,,,,,,,,,,,,,,,,,,,,49.44444444,27,20,75,51.44444444,24.44444444,15.88888889,0.419444483,-0.29166669,1,0,0,0.2631,submitButton,11.89074074,0.316666703,-0.251851931,0,0,0,0,5,5,101,1,27,69274,blockP,180,2022-02-10_09h57.45.857,orientation adjustment blockP,2021.2.3,Win32,60.54734803,,,,,,,
,,,,,,,,,,,,,,,,,,,,,,33.33333333,62,20,75,73.33333333,11.33333333,4.533333333,0.389814853,-0.28703706,1,0,0,0.4336,submitButton,4.533333333,0.116666697,-0.338888914,0,0,0,0,6,6,136,1,62,69274,blockP,180,2022-02-10_09h57.45.857,orientation adjustment blockP,2021.2.3,Win32,60.54734803,,,,,,,
,,,,,,,,,,,,,,,,,,,,,,-47.77777778,-8,20,75,-19.77777778,11.77777778,4.711111111,0.198148181,-0.308333357,1,0,0,0.183,submitButton,4.622222222,0.225000033,-0.30555558,0,0,0,0,7,7,7,1,8,69274,blockP,180,2022-02-10_09h57.45.857,orientation adjustment blockP,2021.2.3,Win32,60.54734803,,,,,,,
,,,,,,,,,,,,,,,,,,,,,,-50.55555556,39,20,75,40.44444444,1.444444444,0.577777778,0.223148181,-0.278703727,1,0,0,1.1463,submitButton,3.274074074,0.233333367,-0.283333357,0,0,0,0,8,8,113,1,39,69274,blockP,180,2022-02-10_09h57.45.857,orientation adjustment blockP,2021.2.3,Win32,60.54734803,,,,,,,
,,,,,,,,,,,,,,,,,,,,,,-67.22222222,-13,20,75,-16.22222222,3.222222222,1.288888889,0.199074106,-0.29166669,1,0,0,0.2803,submitButton,1.288888889,0.209259292,-0.250000022,0,0,0,0,9,9,12,1,13,69274,blockP,180,2022-02-10_09h57.45.857,orientation adjustment blockP,2021.2.3,Win32,60.54734803,,,,,,,
,,,,,,,,,,,,,,,,,,,,,,-31.11111111,-1,20,75,-2.111111111,1.111111111,0.444444444,0.362037074,-0.300000024,1,0,0,1.6617,submitButton,0.866666667,0.150000031,-0.310185266,0,0,0,0,10,10,0,1,1,69274,blockP,180,2022-02-10_09h57.45.857,orientation adjustment blockP,2021.2.3,Win32,60.54734803,,,,,,,
,,,,,,,,,,,,,,,,,,,,,,68.88888889,-16,20,75,-51.11111111,35.11111111,28.08888889,0.380555593,-0.298148172,1,0,0,0.0326,submitButton,9.940740741,0.186111143,-0.320370395,0,0,0,0,11,11,15,1,16,69274,blockP,180,2022-02-10_09h57.45.857,orientation adjustment blockP,2021.2.3,Win32,60.54734803,,,,,,,
,,,,,,,,,,,,,,,,,,,,,,74.44444444,-58,20,75,-57.55555556,0.444444444,0.177777778,0.375925964,-0.293518599,1,0,0,0.1971,submitButton,0.177777778,0.251851886,-0.316666691,0,0,0,0,12,12,132,1,58,69274,blockP,180,2022-02-10_09h57.45.857,orientation adjustment blockP,2021.2.3,Win32,60.54734803,,,,,,,
,,,,,,,,,,,,,,,,,,,,,,53.88888889,-39,20,75,-45.11111111,6.111111111,2.444444444,0.371296334,-0.275925949,1,0,0,0.7992,submitButton,1.311111111,0.091666696,-0.342592618,0,0,0,0,13,13,38,1,39,69274,blockP,180,2022-02-10_09h57.45.857,orientation adjustment blockP,2021.2.3,Win32,60.54734803,,,,,,,
,,,,,,,,,,,,,,,,,,,,,,50.55555556,-14,20,75,-27.44444444,13.44444444,5.377777778,0.358333371,-0.331481506,1,0,0,0.1836,submitButton,2.666666667,0.362037074,-0.380555582,1,0,0,0,14,14,13,1,14,69274,blockP,180,2022-02-10_09h57.45.857,orientation adjustment blockP,2021.2.3,Win32,60.54734803,continueButton,,,,,,
,,,,,,,,,,,,,,,,,,,,,,50,59,20,75,236,3,1.2,0.205555588,-0.294444468,1,0,0,2.0144,submitButton,1.2,0.336111148,-0.263888912,0,0,0,0,15,15,133,1,59,69274,blockP,180,2022-02-10_09h57.45.857,orientation adjustment blockP,2021.2.3,Win32,60.54734803,,,,,,,
,,,,,,,,,,,,,,,,,,,,,,46.66666667,29,20,75,30.66666667,1.666666667,0.666666667,0.403703742,-0.300000024,1,0,0,0.2663,submitButton,0.933333333,0.240740774,-0.328703728,0,0,0,0,16,16,103,1,29,69274,blockP,180,2022-02-10_09h57.45.857,orientation adjustment blockP,2021.2.3,Win32,60.54734803,,,,,,,
,,,,,,,,,,,,,,,,,,,,,,42.77777778,55,20,75,221.7777778,13.22222222,5.288888889,0.21203707,-0.302777802,1,0,0,0.3166,submitButton,2.385185185,0.230555589,-0.352777803,0,0,0,0,17,17,129,1,55,69274,blockP,180,2022-02-10_09h57.45.857,orientation adjustment blockP,2021.2.3,Win32,60.54734803,,,,,,,
,,,,,,,,,,,,,,,,,,,,,,-72.22222222,37,20,75,36.77777778,0.222222222,0.088888889,0.230555589,-0.3435186,1,0,0,0.0666,submitButton,1.811111111,0.188888921,-0.303703728,0,0,0,0,18,18,36,1,37,69274,blockP,180,2022-02-10_09h57.45.857,orientation adjustment blockP,2021.2.3,Win32,60.54734803,,,,,,,
,,,,,,,,,,,,,,,,,,,,,,-62.77777778,-60,20,75,-232.7777778,7.222222222,2.888888889,0.386111149,-0.298148172,1,0,0,0.3129,submitButton,2.026666667,-0.218518499,-0.407407491,0,0,0,0,19,19,59,1,60,69274,blockP,180,2022-02-10_09h57.45.857,orientation adjustment blockP,2021.2.3,Win32,60.54734803,,,,,,,
,,,,,,,,,,,,,,,,,,,,,,39.44444444,-20,20,75,-30.55555556,10.55555556,4.222222222,0.37222226,-0.280555579,1,0,0,0.283,submitButton,2.392592593,0.16851855,-0.337963044,0,0,0,0,20,20,94,1,20,69274,blockP,180,2022-02-10_09h57.45.857,orientation adjustment blockP,2021.2.3,Win32,60.54734803,,,,,,,
,,,,,,,,,,,,,,,,,,,,,,-42.22222222,-25,20,75,-37.22222222,12.22222222,4.888888889,0.180555587,-0.293518599,1,0,0,0.0334,submitButton,2.749206349,-0.204629609,-0.397222249,0,0,0,0,21,21,99,1,25,69274,blockP,180,2022-02-10_09h57.45.857,orientation adjustment blockP,2021.2.3,Win32,60.54734803,,,,,,,
,,,,,,,,,,,,,,,,,,,,,,38.88888889,-85,20,75,-78.11111111,6.888888889,2.755555556,0.155555587,-0.311111135,1,0,0,2.6982,submitButton,2.75,0.287962998,-0.294444468,0,0,0,0,22,22,84,1,85,69274,blockP,180,2022-02-10_09h57.45.857,orientation adjustment blockP,2021.2.3,Win32,60.54734803,,,,,,,
,,,,,,,,,,,,,,,,,,,,,,-58.33333333,-65,20,75,-55.33333333,9.666666667,3.866666667,0.21203707,-0.287963043,1,0,0,0.4497,submitButton,2.874074074,0.046296381,-0.406481508,0,0,0,0,23,23,139,1,65,69274,blockP,180,2022-02-10_09h57.45.857,orientation adjustment blockP,2021.2.3,Win32,60.54734803,,,,,,,
,,,,,,,,,,,,,,,,,,,,,,64.44444444,-87,20,75,-84.55555556,2.444444444,0.977777778,0.41111115,-0.285185265,1,0,0,0.033,submitButton,2.684444444,0.293518554,-0.296296377,0,0,0,0,24,24,86,1,87,69274,blockP,180,2022-02-10_09h57.45.857,orientation adjustment blockP,2021.2.3,Win32,60.54734803,,,,,,,
,,,,,,,,,,,,,,,,,,,,,,-20,-84,20,75,-81,3,1.2,0.194444477,-0.307407488,1,0,0,0.2459,submitButton,2.549494949,0.190740773,-0.342592618,0,0,0,0,25,25,83,1,84,69274,blockP,180,2022-02-10_09h57.45.857,orientation adjustment blockP,2021.2.3,Win32,60.54734803,,,,,,,
,,,,,,,,,,,,,,,,,,,,,,-31.11111111,44,20,75,34.88888889,9.111111111,3.644444444,0.213888922,-0.286111135,1,0,0,0.1496,submitButton,2.640740741,-0.161111089,-0.379629712,0,0,0,0,26,26,43,1,44,69274,blockP,180,2022-02-10_09h57.45.857,orientation adjustment blockP,2021.2.3,Win32,60.54734803,,,,,,,
,,,,,,,,,,,,,,,,,,,,,,54.44444444,42,20,75,40.44444444,1.555555556,0.622222222,0.457407448,-0.293518599,1,0,0,0.4629,submitButton,2.485470085,-0.198148128,-0.400925953,0,0,0,0,27,27,41,1,42,69274,blockP,180,2022-02-10_09h57.45.857,orientation adjustment blockP,2021.2.3,Win32,60.54734803,,,,,,,
,,,,,,,,,,,,,,,,,,,,,,66.66666667,47,20,75,221.6666667,5.333333333,2.133333333,0.225925959,-0.326851933,1,0,0,0.067,submitButton,2.46031746,-0.158333312,-0.391666693,0,0,0,0,28,28,121,1,47,69274,blockP,180,2022-02-10_09h57.45.857,orientation adjustment blockP,2021.2.3,Win32,60.54734803,,,,,,,
,,,,,,,,,,,,,,,,,,,,,,-37.77777778,-83,20,75,-78.77777778,4.222222222,1.688888889,0.211111144,-0.300000024,1,0,0,0.2327,submitButton,2.408888889,0.329629666,-0.412963047,1,0,0,0,29,29,82,1,83,69274,blockP,180,2022-02-10_09h57.45.857,orientation adjustment blockP,2021.2.3,Win32,60.54734803,continueButton,,,,,,
,,,,,,,,,,,,,,,,,,,,,,-38.88888889,50,20,75,38.11111111,11.88888889,4.755555556,0.438888928,-0.281481505,1,0,0,1.8288,submitButton,2.555555556,-0.174074053,-0.407407491,0,0,0,0,30,30,49,1,50,69274,blockP,180,2022-02-10_09h57.45.857,orientation adjustment blockP,2021.2.3,Win32,60.54734803,,,,,,,
,,,,,,,,,,,,,,,,,,,,,,-45,-41,20,75,-41,0,0,0.198148181,-0.319444469,1,0,0,0.1327,submitButton,2.405228758,-0.178703683,-0.397222249,0,0,0,0,31,31,115,1,41,69274,blockP,180,2022-02-10_09h57.45.857,orientation adjustment blockP,2021.2.3,Win32,60.54734803,,,,,,,
,,,,,,,,,,,,,,,,,,,,,,40.55555556,-86,20,75,-68.44444444,17.55555556,11.41111111,0.400000038,-0.303703728,1,0,0,1.5957,submitButton,2.905555556,-0.158333312,-0.403703731,0,0,0,0,32,32,85,1,86,69274,blockP,180,2022-02-10_09h57.45.857,orientation adjustment blockP,2021.2.3,Win32,60.54734803,,,,,,,
,,,,,,,,,,,,,,,,,,,,,,-46.66666667,52,20,75,51.33333333,0.666666667,0.266666667,-0.162962941,-0.40833336,1,0,0,1.6152,submitButton,2.766666667,-0.162962941,-0.40833336,0,0,0,0,33,33,126,1,52,69274,blockP,180,2022-02-10_09h57.45.857,orientation adjustment blockP,2021.2.3,Win32,60.54734803,,,,,,,
,,,,,,,,,,,,,,,,,,,,,,-20,-89,20,75,-88,1,0.4,-0.149074052,-0.390740824,1,0,0,1.4986,submitButton,2.648333333,-0.149074052,-0.390740824,0,0,0,0,34,34,88,1,89,69274,blockP,180,2022-02-10_09h57.45.857,orientation adjustment blockP,2021.2.3,Win32,60.54734803,,,,,,,
,,,,,,,,,,,,,,,,,,,,,,-45,-24,20,75,-33,9,3.6,0.194444477,-0.286111135,1,0,0,0.3499,submitButton,2.693650794,0.037963047,-0.308333357,0,0,0,0,35,35,23,1,24,69274,blockP,180,2022-02-10_09h57.45.857,orientation adjustment blockP,2021.2.3,Win32,60.54734803,,,,,,,
,,,,,,,,,,,,,,,,,,,,,,33.88888889,15,20,75,19.88888889,4.888888889,1.955555556,0.398148187,-0.313888913,1,0,0,0.0362,submitButton,2.66010101,-0.174999979,-0.390740824,0,0,0,0,36,36,14,1,15,69274,blockP,180,2022-02-10_09h57.45.857,orientation adjustment blockP,2021.2.3,Win32,60.54734803,,,,,,,
,,,,,,,,,,,,,,,,,,,,,,-25.55555556,72,20,75,74.44444444,2.444444444,0.977777778,0.201851884,-0.318518599,1,0,0,0.2964,submitButton,2.586956522,-0.158333312,-0.380555582,0,0,0,0,37,37,146,1,72,69274,blockP,180,2022-02-10_09h57.45.857,orientation adjustment blockP,2021.2.3,Win32,60.54734803,,,,,,,
,,,,,,,,,,,,,,,,,,,,,,75,57,20,75,47,10,4,0.365740778,-0.283333357,1,0,0,0.3835,submitButton,2.645833333,-0.25925924,-0.374074157,0,0,0,0,38,38,56,1,57,69274,blockP,180,2022-02-10_09h57.45.857,orientation adjustment blockP,2021.2.3,Win32,60.54734803,,,,,,,
,,,,,,,,,,,,,,,,,,,,,,48.88888889,30,20,75,23.88888889,6.111111111,2.444444444,-0.152777756,-0.400925953,1,0,0,1.7656,submitButton,2.637777778,-0.152777756,-0.400925953,0,0,0,0,39,39,29,1,30,69274,blockP,180,2022-02-10_09h57.45.857,orientation adjustment blockP,2021.2.3,Win32,60.54734803,,,,,,,
,,,,,,,,,,,,,,,,,,,,,,-26.66666667,46,20,75,42.33333333,3.666666667,1.466666667,0.20740744,-0.308333357,1,0,0,0.1667,submitButton,2.592735043,-0.182407386,-0.392592619,0,0,0,0,40,40,45,1,46,69274,blockP,180,2022-02-10_09h57.45.857,orientation adjustment blockP,2021.2.3,Win32,60.54734803,,,,,,,
,,,,,,,,,,,,,,,,,,,,,,-23.88888889,-6,20,75,-17.88888889,11.88888889,4.755555556,-0.176851831,-0.380555582,1,0,0,0.9156,submitButton,2.672839506,-0.176851831,-0.380555582,0,0,0,0,41,41,5,1,6,69274,blockP,180,2022-02-10_09h57.45.857,orientation adjustment blockP,2021.2.3,Win32,60.54734803,,,,,,,
,,,,,,,,,,,,,,,,,,,,,,-23.33333333,77,20,75,66.66666667,10.33333333,4.133333333,0.200000032,-0.289814838,1,0,0,0.9829,submitButton,2.725,-0.179629608,-0.406481508,0,0,0,0,42,42,76,1,77,69274,blockP,180,2022-02-10_09h57.45.857,orientation adjustment blockP,2021.2.3,Win32,60.54734803,,,,,,,
,,,,,,,,,,,,,,,,,,,,,,-40,-59,20,75,-51,8,3.2,0.243518552,-0.287963043,1,0,0,0.4139,submitButton,2.74137931,-0.19537035,-0.410185269,0,0,0,0,43,43,58,1,59,69274,blockP,180,2022-02-10_09h57.45.857,orientation adjustment blockP,2021.2.3,Win32,60.54734803,,,,,,,
,,,,,,,,,,,,,,,,,,,,,,-61.66666667,-50,20,75,-42.66666667,7.333333333,2.933333333,0.244444478,-0.298148172,1,0,0,0.863,submitButton,2.747777778,0.422222261,-0.389814841,1,0,0,0,44,44,124,1,50,69274,blockP,180,2022-02-10_09h57.45.857,orientation adjustment blockP,2021.2.3,Win32,60.54734803,continueButton,,,,,,
,,,,,,,,,,,,,,,,,,,,,,-57.77777778,-2,20,75,-7.777777778,5.777777778,2.311111111,0.187962995,-0.292592616,1,0,0,0.863,submitButton,2.733691756,0.364814852,-0.26574082,0,0,0,0,45,45,1,1,2,69274,blockP,180,2022-02-10_09h57.45.857,orientation adjustment blockP,2021.2.3,Win32,60.54734803,,,,,,,
,,,,,,,,,,,,,,,,,,,,,,41.11111111,-40,20,75,-50.88888889,10.88888889,4.355555556,0.391666705,-0.271296376,1,0,0,0.9969,submitButton,2.784375,0.315740777,-0.150925945,0,0,0,0,46,46,114,1,40,69274,blockP,180,2022-02-10_09h57.45.857,orientation adjustment blockP,2021.2.3,Win32,60.54734803,,,,,,,
,,,,,,,,,,,,,,,,,,,,,,37.22222222,-9,20,75,-21.77777778,12.77777778,5.111111111,0.408333372,-0.272222245,1,0,0,0.1837,submitButton,2.854882155,0.227777811,-0.262963042,0,0,0,0,47,47,8,1,9,69274,blockP,180,2022-02-10_09h57.45.857,orientation adjustment blockP,2021.2.3,Win32,60.54734803,,,,,,,
,,,,,,,,,,,,,,,,,,,,,,-69.44444444,-54,20,75,-53.44444444,0.555555556,0.222222222,0.179629661,-0.320370395,1,0,0,0.5299,submitButton,2.77745098,-0.196296276,-0.389814841,0,0,0,0,48,48,128,1,54,69274,blockP,180,2022-02-10_09h57.45.857,orientation adjustment blockP,2021.2.3,Win32,60.54734803,,,,,,,
,,,,,,,,,,,,,,,,,,,,,,27.77777778,-57,20,75,-64.22222222,7.222222222,2.888888889,0.37685189,-0.315740822,1,0,0,0.0327,submitButton,2.780634921,-0.216666647,-0.39629638,0,0,0,0,49,49,131,1,57,69274,blockP,180,2022-02-10_09h57.45.857,orientation adjustment blockP,2021.2.3,Win32,60.54734803,,,,,,,
,,,,,,,,,,,,,,,,,,,,,,62.22222222,51,20,75,61.22222222,10.22222222,4.088888889,0.436111151,-0.295370394,1,0,0,0.416,submitButton,2.816975309,0.222222255,-0.321296377,0,0,0,0,50,50,125,1,51,69274,blockP,180,2022-02-10_09h57.45.857,orientation adjustment blockP,2021.2.3,Win32,60.54734803,,,,,,,
,,,,,,,,,,,,,,,,,,,,,,-42.77777778,28,20,75,27.22222222,0.777777778,0.311111111,0.206481514,-0.296296377,1,0,0,0.8326,submitButton,2.749249249,-0.246296277,-0.389814841,0,0,0,0,51,51,102,1,28,69274,blockP,180,2022-02-10_09h57.45.857,orientation adjustment blockP,2021.2.3,Win32,60.54734803,,,,,,,
,,,,,,,,,,,,,,,,,,,,,,41.66666667,90,20,75,82.66666667,7.333333333,2.933333333,0.387037075,-0.293518599,1,0,0,0.1333,submitButton,2.754093567,-0.143518496,-0.390740824,0,0,0,0,52,52,89,1,90,69274,blockP,180,2022-02-10_09h57.45.857,orientation adjustment blockP,2021.2.3,Win32,60.54734803,,,,,,,
,,,,,,,,,,,,,,,,,,,,,,60.55555556,-88,20,75,-90.44444444,2.444444444,0.977777778,-0.223148128,-0.394444471,1,0,0,1.9623,submitButton,2.708547009,-0.223148128,-0.394444471,0,0,0,0,53,53,87,1,88,69274,blockP,180,2022-02-10_09h57.45.857,orientation adjustment blockP,2021.2.3,Win32,60.54734803,,,,,,,
,,,,,,,,,,,,,,,,,,,,,,-23.88888889,-51,20,75,-48.88888889,2.111111111,0.844444444,0.187962995,-0.280555579,1,0,0,0.1369,submitButton,2.661944444,-0.210185165,-0.424074158,0,0,0,0,54,54,50,1,51,69274,blockP,180,2022-02-10_09h57.45.857,orientation adjustment blockP,2021.2.3,Win32,60.54734803,,,,,,,
,,,,,,,,,,,,,,,,,,,,,,59.44444444,18,20,75,27.44444444,9.444444444,3.777777778,0.423148187,-0.286111135,1,0,0,0.0831,submitButton,2.689159892,-0.184259238,-0.400000027,0,0,0,0,55,55,92,1,18,69274,blockP,180,2022-02-10_09h57.45.857,orientation adjustment blockP,2021.2.3,Win32,60.54734803,,,,,,,
,,,,,,,,,,,,,,,,,,,,,,45,34,20,75,32,2,0.8,0.417592632,-0.294444468,1,0,0,0.2998,submitButton,2.644179894,-0.212037017,-0.388888915,0,0,0,0,56,56,33,1,34,69274,blockP,180,2022-02-10_09h57.45.857,orientation adjustment blockP,2021.2.3,Win32,60.54734803,,,,,,,
,,,,,,,,,,,,,,,,,,,,,,51.11111111,35,20,75,42.11111111,7.111111111,2.844444444,-0.146296274,-0.388888915,1,0,0,1.5789,submitButton,2.648837209,-0.146296274,-0.388888915,0,0,0,0,57,57,109,1,35,69274,blockP,180,2022-02-10_09h57.45.857,orientation adjustment blockP,2021.2.3,Win32,60.54734803,,,,,,,
,,,,,,,,,,,,,,,,,,,,,,72.22222222,-61,20,75,-53.77777778,7.222222222,2.888888889,0.402777816,-0.30555558,1,0,0,1.0158,submitButton,2.654292929,-0.26388887,-0.416666694,0,0,0,0,58,58,135,1,61,69274,blockP,180,2022-02-10_09h57.45.857,orientation adjustment blockP,2021.2.3,Win32,60.54734803,,,,,,,
,,,,,,,,,,,,,,,,,,,,,,-29.44444444,22,20,75,30.55555556,8.555555556,3.422222222,-0.18611109,-0.387037063,1,0,0,1.1992,submitButton,2.671358025,0.407407446,-0.392592619,1,0,0,0,59,59,96,1,22,69274,blockP,180,2022-02-10_09h57.45.857,orientation adjustment blockP,2021.2.3,Win32,60.54734803,continueButton,,,,,,
,,,,,,,,,,,,,,,,,,,,,,-72.22222222,-40,20,75,-229.2222222,9.222222222,3.688888889,0.390740779,-0.299074154,1,0,0,0.2001,submitButton,2.693478261,0.352777815,-0.210185206,0,0,0,0,60,60,39,1,40,69274,blockP,180,2022-02-10_09h57.45.857,orientation adjustment blockP,2021.2.3,Win32,60.54734803,,,,,,,
,,,,,,,,,,,,,,,,,,,,,,-71.11111111,-35,20,75,-219.1111111,4.111111111,1.644444444,0.409259298,-0.290740821,1,0,0,0.5997,submitButton,2.671158392,0.254629664,-0.264814838,0,0,0,0,61,61,34,1,35,69274,blockP,180,2022-02-10_09h57.45.857,orientation adjustment blockP,2021.2.3,Win32,60.54734803,,,,,,,
,,,,,,,,,,,,,,,,,,,,,,-21.66666667,-45,20,75,-53.66666667,8.666666667,3.466666667,0.165740772,-0.280555579,1,0,0,0.0497,submitButton,2.687731481,0.355555593,-0.284259283,0,0,0,0,62,62,119,1,45,69274,blockP,180,2022-02-10_09h57.45.857,orientation adjustment blockP,2021.2.3,Win32,60.54734803,,,,,,,
,,,,,,,,,,,,,,,,,,,,,,-35.55555556,-48,20,75,-50.55555556,2.555555556,1.022222222,0.224074107,-0.294444468,1,0,0,0.0162,submitButton,2.653741497,-0.152777756,-0.401851935,0,0,0,0,63,63,122,1,48,69274,blockP,180,2022-02-10_09h57.45.857,orientation adjustment blockP,2021.2.3,Win32,60.54734803,,,,,,,
,,,,,,,,,,,,,,,,,,,,,,63.33333333,-36,20,75,-32.66666667,3.333333333,1.333333333,0.418518557,-0.327777802,1,0,0,0.0661,submitButton,2.627333333,-0.164814737,-0.395370397,0,0,0,0,64,64,35,1,36,69274,blockP,180,2022-02-10_09h57.45.857,orientation adjustment blockP,2021.2.3,Win32,60.54734803,,,,,,,
,,,,,,,,,,,,,,,,,,,,,,57.77777778,4,20,75,0.777777778,3.222222222,1.288888889,0.402777816,-0.280555579,1,0,0,0.0498,submitButton,2.601089325,-0.187037016,-0.393518602,0,0,0,0,65,65,3,1,4,69274,blockP,180,2022-02-10_09h57.45.857,orientation adjustment blockP,2021.2.3,Win32,60.54734803,,,,,,,
,,,,,,,,,,,,,,,,,,,,,,42.77777778,-68,20,75,-64.22222222,3.777777778,1.511111111,0.397222261,-0.299074154,1,0,0,0.2666,submitButton,2.580128205,-0.138888867,-0.402777805,0,0,0,0,66,66,67,1,68,69274,blockP,180,2022-02-10_09h57.45.857,orientation adjustment blockP,2021.2.3,Win32,60.54734803,,,,,,,
,,,,,,,,,,,,,,,,,,,,,,-33.33333333,-32,20,75,-29.33333333,2.666666667,1.066666667,0.201851884,-0.302777802,1,0,0,0.3334,submitButton,2.551572327,-0.14814807,-0.403703731,0,0,0,0,67,67,106,1,32,69274,blockP,180,2022-02-10_09h57.45.857,orientation adjustment blockP,2021.2.3,Win32,60.54734803,,,,,,,
,,,,,,,,,,,,,,,,,,,,,,-46.11111111,23,20,75,27.88888889,4.888888889,1.955555556,0.231481515,-0.317592617,1,0,0,0.62,submitButton,2.540534979,-0.176851831,-0.38333336,0,0,0,0,68,68,97,1,23,69274,blockP,180,2022-02-10_09h57.45.857,orientation adjustment blockP,2021.2.3,Win32,60.54734803,,,,,,,
,,,,,,,,,,,,,,,,,,,,,,-26.66666667,12,20,75,16.33333333,4.333333333,1.733333333,-0.111111088,-0.386111138,1,0,0,1.8321,submitButton,2.525858586,-0.111111088,-0.386111138,0,0,0,0,69,69,11,1,12,69274,blockP,180,2022-02-10_09h57.45.857,orientation adjustment blockP,2021.2.3,Win32,60.54734803,,,,,,,
,,,,,,,,,,,,,,,,,,,,,,31.11111111,-54,20,75,-52.88888889,1.111111111,0.444444444,-0.19074072,-0.405555583,1,0,0,1.0988,submitButton,2.488690476,-0.19074072,-0.405555583,0,0,0,0,70,70,53,1,54,69274,blockP,180,2022-02-10_09h57.45.857,orientation adjustment blockP,2021.2.3,Win32,60.54734803,,,,,,,
,,,,,,,,,,,,,,,,,,,,,,65.55555556,-58,20,75,-70.44444444,12.44444444,4.977777778,0.407407446,-0.284259283,1,0,0,0.1496,submitButton,2.532358674,-0.156481403,-0.400925953,0,0,0,0,71,71,57,1,58,69274,blockP,180,2022-02-10_09h57.45.857,orientation adjustment blockP,2021.2.3,Win32,60.54734803,,,,,,,
,,,,,,,,,,,,,,,,,,,,,,-44.44444444,74,20,75,73.55555556,0.444444444,0.177777778,0.164814846,-0.309259283,1,0,0,0.6996,submitButton,2.491762452,-0.14814807,-0.402777805,0,0,0,0,72,72,73,1,74,69274,blockP,180,2022-02-10_09h57.45.857,orientation adjustment blockP,2021.2.3,Win32,60.54734803,,,,,,,
,,,,,,,,,,,,,,,,,,,,,,-33.33333333,62,20,75,59.66666667,2.333333333,0.933333333,-0.165740719,-0.387963046,1,0,0,1.0794,submitButton,2.465348399,0.197222255,-0.275000023,0,0,0,0,73,73,61,1,62,69274,blockP,180,2022-02-10_09h57.45.857,orientation adjustment blockP,2021.2.3,Win32,60.54734803,,,,,,,
,,,,,,,,,,,,,,,,,,,,,,45.55555556,-72,20,75,-77.44444444,5.444444444,2.177777778,0.362037074,-0.295370394,1,0,0,0.9824,submitButton,2.460555556,0.374074112,-0.412963047,1,0,0,0,74,74,71,1,72,69274,blockP,180,2022-02-10_09h57.45.857,orientation adjustment blockP,2021.2.3,Win32,60.54734803,continueButton,,,,,,
,,,,,,,,,,,,,,,,,,,,,,25.55555556,-47,20,75,-55.44444444,8.444444444,3.377777778,0.383333371,-0.244444467,1,0,0,0.2007,submitButton,2.475591985,-0.11296294,-0.414814842,0,0,0,0,75,75,46,1,47,69274,blockP,180,2022-02-10_09h57.45.857,orientation adjustment blockP,2021.2.3,Win32,60.54734803,,,,,,,
,,,,,,,,,,,,,,,,,,,,,,-58.88888889,-31,20,75,-27.88888889,3.111111111,1.244444444,-0.180555534,-0.39629638,1,0,0,2.0948,submitButton,2.455734767,-0.180555534,-0.39629638,0,0,0,0,76,76,30,1,31,69274,blockP,180,2022-02-10_09h57.45.857,orientation adjustment blockP,2021.2.3,Win32,60.54734803,,,,,,,
,,,,,,,,,,,,,,,,,,,,,,42.22222222,-53,20,75,-61.77777778,8.777777778,3.511111111,0.412963002,-0.279629709,1,0,0,0.2965,submitButton,2.472486772,-0.22037035,-0.400925953,0,0,0,0,77,77,127,1,53,69274,blockP,180,2022-02-10_09h57.45.857,orientation adjustment blockP,2021.2.3,Win32,60.54734803,,,,,,,
,,,,,,,,,,,,,,,,,,,,,,-72.22222222,18,20,75,32.77777778,14.77777778,5.911111111,0.209259292,-0.300000024,1,0,0,0.0669,submitButton,2.526215278,-0.287962945,-0.410185269,0,0,0,0,78,78,17,1,18,69274,blockP,180,2022-02-10_09h57.45.857,orientation adjustment blockP,2021.2.3,Win32,60.54734803,,,,,,,
,,,,,,,,,,,,,,,,,,,,,,71.11111111,67,20,75,67.11111111,0.111111111,0.044444444,0.422222261,-0.267592615,1,0,0,0.4664,submitButton,2.488034188,-0.146296274,-0.38240749,0,0,0,0,79,79,141,1,67,69274,blockP,180,2022-02-10_09h57.45.857,orientation adjustment blockP,2021.2.3,Win32,60.54734803,,,,,,,
,,,,,,,,,,,,,,,,,,,,,,55.55555556,-82,20,75,-76.44444444,5.555555556,2.222222222,-0.179629608,-0.394444471,1,0,0,1.7331,submitButton,2.484006734,-0.179629608,-0.394444471,0,0,0,0,80,80,81,1,82,69274,blockP,180,2022-02-10_09h57.45.857,orientation adjustment blockP,2021.2.3,Win32,60.54734803,,,,,,,
,,,,,,,,,,,,,,,,,,,,,,36.66666667,21,20,75,25.66666667,4.666666667,1.866666667,0.375000038,-0.299074154,1,0,0,0.1496,submitButton,2.474792703,-0.141666644,-0.390740824,0,0,0,0,81,81,20,1,21,69274,blockP,180,2022-02-10_09h57.45.857,orientation adjustment blockP,2021.2.3,Win32,60.54734803,,,,,,,
,,,,,,,,,,,,,,,,,,,,,,-27.22222222,-56,20,75,-62.22222222,6.222222222,2.488888889,0.215740774,-0.274074154,1,0,0,0.2299,submitButton,2.475,-0.189814794,-0.412037064,0,0,0,0,82,82,55,1,56,69274,blockP,180,2022-02-10_09h57.45.857,orientation adjustment blockP,2021.2.3,Win32,60.54734803,,,,,,,
,,,,,,,,,,,,,,,,,,,,,,48.33333333,-67,20,75,-77.66666667,10.66666667,4.266666667,0.410185224,-0.293518599,1,0,0,0.1808,submitButton,2.500966184,-0.176851831,-0.39629638,0,0,0,0,83,83,66,1,67,69274,blockP,180,2022-02-10_09h57.45.857,orientation adjustment blockP,2021.2.3,Win32,60.54734803,,,,,,,
,,,,,,,,,,,,,,,,,,,,,,-63.33333333,49,20,75,33.66666667,15.33333333,9.966666667,0.239814848,-0.307407488,1,0,0,0.0669,submitButton,2.607619048,-0.137036958,-0.402777805,0,0,0,0,84,84,123,1,49,69274,blockP,180,2022-02-10_09h57.45.857,orientation adjustment blockP,2021.2.3,Win32,60.54734803,,,,,,,
,,,,,,,,,,,,,,,,,,,,,,35,-7,20,75,-19,12,4.8,0.370370408,-0.296296377,1,0,0,0.216,submitButton,2.638497653,-0.160185163,-0.419444472,0,0,0,0,85,85,6,1,7,69274,blockP,180,2022-02-10_09h57.45.857,orientation adjustment blockP,2021.2.3,Win32,60.54734803,,,,,,,
,,,,,,,,,,,,,,,,,,,,,,-52.77777778,-16,20,75,-22.77777778,6.777777778,2.711111111,0.213888922,-0.293518599,1,0,0,0.1332,submitButton,2.639506173,-0.133333311,-0.418518602,0,0,0,0,86,86,90,1,16,69274,blockP,180,2022-02-10_09h57.45.857,orientation adjustment blockP,2021.2.3,Win32,60.54734803,,,,,,,
,,,,,,,,,,,,,,,,,,,,,,63.88888889,45,20,75,46.88888889,1.888888889,0.755555556,0.424074113,-0.28703706,1,0,0,0.2301,submitButton,2.61369863,-0.156481403,-0.397222249,0,0,0,0,87,87,44,1,45,69274,blockP,180,2022-02-10_09h57.45.857,orientation adjustment blockP,2021.2.3,Win32,60.54734803,,,,,,,
,,,,,,,,,,,,,,,,,,,,,,-58.88888889,78,20,75,63.11111111,14.88888889,5.955555556,0.256481516,-0.29166669,1,0,0,0.1332,submitButton,2.658858859,-0.240740721,-0.400000027,0,0,0,0,88,88,77,1,78,69274,blockP,180,2022-02-10_09h57.45.857,orientation adjustment blockP,2021.2.3,Win32,60.54734803,,,,,,,
,,,,,,,,,,,,,,,,,,,,,,-73.88888889,-81,20,75,-232.8888889,28.11111111,18.27222222,0.407407446,-0.311111135,1,0,0,1.1471,submitButton,2.867037037,0.337963,-0.400925953,1,0,0,0,89,89,80,1,81,69274,blockP,180,2022-02-10_09h57.45.857,orientation adjustment blockP,2021.2.3,Win32,60.54734803,continueButton,,,,,,
,,,,,,,,,,,,,,,,,,,,,,41.11111111,-33,20,75,-37.88888889,4.888888889,1.955555556,0.390740779,-0.296296377,1,0,0,0.1498,submitButton,2.85504386,-0.219444424,-0.418518602,0,0,0,0,90,90,32,1,33,69274,blockP,180,2022-02-10_09h57.45.857,orientation adjustment blockP,2021.2.3,Win32,60.54734803,,,,,,,
,,,,,,,,,,,,,,,,,,,,,,45,-63,20,75,-56,7,2.8,0.397222261,-0.286111135,1,0,0,0.2823,submitButton,2.854329004,0.301851887,-0.244444467,0,0,0,0,91,91,137,1,63,69274,blockP,180,2022-02-10_09h57.45.857,orientation adjustment blockP,2021.2.3,Win32,60.54734803,,,,,,,
,,,,,,,,,,,,,,,,,,,,,,-56.11111111,-24,20,75,-30.11111111,6.111111111,2.444444444,0.189814847,-0.309259283,1,0,0,0.2464,submitButton,2.849074074,0.205555588,-0.302777802,0,0,0,0,92,92,98,1,24,69274,blockP,180,2022-02-10_09h57.45.857,orientation adjustment blockP,2021.2.3,Win32,60.54734803,,,,,,,
,,,,,,,,,,,,,,,,,,,,,,47.77777778,34,20,75,52.77777778,18.77777778,12.20555556,0.398148187,-0.288888912,1,0,0,0.1627,submitButton,2.967510549,-0.17314807,-0.390740824,0,0,0,0,93,93,108,1,34,69274,blockP,180,2022-02-10_09h57.45.857,orientation adjustment blockP,2021.2.3,Win32,60.54734803,,,,,,,
,,,,,,,,,,,,,,,,,,,,,,-37.22222222,-49,20,75,-48.22222222,0.777777778,0.311111111,0.187037069,-0.312963044,1,0,0,0.0665,submitButton,2.934305556,-0.301851834,-0.385185268,0,0,0,0,94,94,48,1,49,69274,blockP,180,2022-02-10_09h57.45.857,orientation adjustment blockP,2021.2.3,Win32,60.54734803,,,,,,,
,,,,,,,,,,,,,,,,,,,,,,-75,52,20,75,41,11,4.4,0.218518552,-0.290740821,1,0,0,0.287,submitButton,2.952400549,-0.136111089,-0.38240749,0,0,0,0,95,95,51,1,52,69274,blockP,180,2022-02-10_09h57.45.857,orientation adjustment blockP,2021.2.3,Win32,60.54734803,,,,,,,
,,,,,,,,,,,,,,,,,,,,,,-66.66666667,10,20,75,23.33333333,13.33333333,5.333333333,0.193518551,-0.312963044,1,0,0,0.1001,submitButton,2.981436314,-0.135185163,-0.381481508,0,0,0,0,96,96,9,1,10,69274,blockP,180,2022-02-10_09h57.45.857,orientation adjustment blockP,2021.2.3,Win32,60.54734803,,,,,,,
,,,,,,,,,,,,,,,,,,,,,,-38.33333333,-28,20,75,-27.33333333,0.666666667,0.266666667,-0.166666645,-0.391666693,1,0,0,1.2494,submitButton,2.948728246,-0.166666645,-0.391666693,0,0,0,0,97,97,27,1,28,69274,blockP,180,2022-02-10_09h57.45.857,orientation adjustment blockP,2021.2.3,Win32,60.54734803,,,,,,,
,,,,,,,,,,,,,,,,,,,,,,33.88888889,71,20,75,61.88888889,9.111111111,3.644444444,0.392592631,-0.299074154,1,0,0,0.1835,submitButton,2.957010582,-0.166666645,-0.391666693,0,0,0,0,98,98,145,1,71,69274,blockP,180,2022-02-10_09h57.45.857,orientation adjustment blockP,2021.2.3,Win32,60.54734803,,,,,,,
,,,,,,,,,,,,,,,,,,,,,,61.11111111,-44,20,75,-37.88888889,6.111111111,2.444444444,0.395370409,-0.294444468,1,0,0,0.1666,submitButton,2.950980392,-0.152777756,-0.412037064,0,0,0,0,99,99,118,1,44,69274,blockP,180,2022-02-10_09h57.45.857,orientation adjustment blockP,2021.2.3,Win32,60.54734803,,,,,,,
,,,,,,,,,,,,,,,,,,,,,,-51.66666667,17,20,75,35.33333333,18.33333333,11.91666667,0.20277781,-0.30555558,1,0,0,0.9333,submitButton,3.055232558,0.019444472,-0.33981484,0,0,0,0,100,100,16,1,17,69274,blockP,180,2022-02-10_09h57.45.857,orientation adjustment blockP,2021.2.3,Win32,60.54734803,,,,,,,
,,,,,,,,,,,,,,,,,,,,,,-43.33333333,-60,20,75,-57.33333333,2.666666667,1.066666667,-0.161111089,-0.414814842,1,0,0,1.5324,submitButton,3.032375479,-0.161111089,-0.414814842,0,0,0,0,101,101,134,1,60,69274,blockP,180,2022-02-10_09h57.45.857,orientation adjustment blockP,2021.2.3,Win32,60.54734803,,,,,,,
,,,,,,,,,,,,,,,,,,,,,,26.66666667,80,20,75,70.66666667,9.333333333,3.733333333,0.375925964,-0.309259283,1,0,0,0.1496,submitButton,3.040340909,-0.159259181,-0.387963046,0,0,0,0,102,102,79,1,80,69274,blockP,180,2022-02-10_09h57.45.857,orientation adjustment blockP,2021.2.3,Win32,60.54734803,,,,,,,
,,,,,,,,,,,,,,,,,,,,,,55.55555556,43,20,75,44.55555556,1.555555556,0.622222222,0.399074112,-0.261111134,1,0,0,0.133,submitButton,3.013171036,0.155555587,-0.227777799,0,0,0,0,103,103,117,1,43,69274,blockP,180,2022-02-10_09h57.45.857,orientation adjustment blockP,2021.2.3,Win32,60.54734803,,,,,,,
,,,,,,,,,,,,,,,,,,,,,,-47.77777778,-48,20,75,-38.77777778,9.222222222,3.688888889,0.210185218,-0.268518598,1,0,0,0.9963,submitButton,3.020679012,0.342592629,-0.39629638,1,0,0,0,104,104,47,1,48,69274,blockP,180,2022-02-10_09h57.45.857,orientation adjustment blockP,2021.2.3,Win32,60.54734803,continueButton,,,,,,
,,,,,,,,,,,,,,,,,,,,,,-63.88888889,64,20,75,45.11111111,18.88888889,12.27777778,0.175925958,-0.312037061,1,0,0,0.5498,submitButton,3.122405372,-0.130555533,-0.397222249,0,0,0,0,105,105,63,1,64,69274,blockP,180,2022-02-10_09h57.45.857,orientation adjustment blockP,2021.2.3,Win32,60.54734803,,,,,,,
,,,,,,,,,,,,,,,,,,,,,,27.22222222,-69,20,75,-64.77777778,4.222222222,1.688888889,-0.164814737,-0.412037064,1,0,0,0.9999,submitButton,3.106823671,-0.164814737,-0.412037064,0,0,0,0,106,106,68,1,69,69274,blockP,180,2022-02-10_09h57.45.857,orientation adjustment blockP,2021.2.3,Win32,60.54734803,,,,,,,
,,,,,,,,,,,,,,,,,,,,,,50.55555556,64,20,75,57.55555556,6.444444444,2.577777778,0.371296334,-0.308333357,1,0,0,0.0998,submitButton,3.101135006,-0.153703625,-0.399074157,0,0,0,0,107,107,138,1,64,69274,blockP,180,2022-02-10_09h57.45.857,orientation adjustment blockP,2021.2.3,Win32,60.54734803,,,,,,,
,,,,,,,,,,,,,,,,,,,,,,-57.77777778,26,20,75,24.22222222,1.777777778,0.711111111,0.178703736,-0.272222245,1,0,0,0.4633,submitButton,3.07570922,-0.120370291,-0.376851934,0,0,0,0,108,108,100,1,26,69274,blockP,180,2022-02-10_09h57.45.857,orientation adjustment blockP,2021.2.3,Win32,60.54734803,,,,,,,
,,,,,,,,,,,,,,,,,,,,,,-66.66666667,-70,20,75,-61.66666667,8.333333333,3.333333333,0.196296329,-0.321296377,1,0,0,0.1328,submitButton,3.078421053,-0.266666648,-0.405555583,0,0,0,0,109,109,144,1,70,69274,blockP,180,2022-02-10_09h57.45.857,orientation adjustment blockP,2021.2.3,Win32,60.54734803,,,,,,,
,,,,,,,,,,,,,,,,,,,,,,-54.44444444,-22,20,75,-25.44444444,3.444444444,1.377777778,0.28981485,-0.312037061,1,0,0,0.3,submitButton,3.060706019,0.240740774,-0.281481505,0,0,0,0,110,110,21,1,22,69274,blockP,180,2022-02-10_09h57.45.857,orientation adjustment blockP,2021.2.3,Win32,60.54734803,,,,,,,
,,,,,,,,,,,,,,,,,,,,,,-67.77777778,-70,20,75,-60.77777778,9.222222222,3.688888889,0.242592626,-0.281481505,1,0,0,0.3176,submitButton,3.067182131,-0.19537035,-0.413888916,0,0,0,0,111,111,69,1,70,69274,blockP,180,2022-02-10_09h57.45.857,orientation adjustment blockP,2021.2.3,Win32,60.54734803,,,,,,,
,,,,,,,,,,,,,,,,,,,,,,65.55555556,-37,20,75,-29.44444444,7.555555556,3.022222222,0.375925964,-0.30555558,1,0,0,0.2802,submitButton,3.066723356,-0.172222201,-0.413888916,0,0,0,0,112,112,111,1,37,69274,blockP,180,2022-02-10_09h57.45.857,orientation adjustment blockP,2021.2.3,Win32,60.54734803,,,,,,,
,,,,,,,,,,,,,,,,,,,,,,-65,32,20,75,33,1,0.4,0.214814848,-0.311111135,1,0,0,0.1165,submitButton,3.039786756,-0.150925847,-0.386111138,0,0,0,0,113,113,31,1,32,69274,blockP,180,2022-02-10_09h57.45.857,orientation adjustment blockP,2021.2.3,Win32,60.54734803,,,,,,,
,,,,,,,,,,,,,,,,,,,,,,-50.55555556,41,20,75,39.44444444,1.555555556,0.622222222,0.17777781,-0.285185265,1,0,0,0.5,submitButton,3.015611111,-0.271296278,-0.387037063,0,0,0,0,114,114,40,1,41,69274,blockP,180,2022-02-10_09h57.45.857,orientation adjustment blockP,2021.2.3,Win32,60.54734803,,,,,,,
,,,,,,,,,,,,,,,,,,,,,,73.33333333,46,20,75,60.33333333,14.33333333,5.733333333,0.225000033,-0.313888913,1,0,0,0.0693,submitButton,3.042519252,0.311111147,-0.326851933,0,0,0,0,115,115,120,1,46,69274,blockP,180,2022-02-10_09h57.45.857,orientation adjustment blockP,2021.2.3,Win32,60.54734803,,,,,,,
,,,,,,,,,,,,,,,,,,,,,,43.33333333,75,20,75,67.33333333,7.666666667,3.066666667,0.375925964,-0.283333357,1,0,0,0.0831,submitButton,3.042755991,0.182407439,-0.350925951,0,0,0,0,116,116,74,1,75,69274,blockP,180,2022-02-10_09h57.45.857,orientation adjustment blockP,2021.2.3,Win32,60.54734803,,,,,,,
,,,,,,,,,,,,,,,,,,,,,,-34.44444444,-26,20,75,-29.44444444,3.444444444,1.377777778,-0.14814807,-0.381481508,1,0,0,1.3151,submitButton,3.026591154,0.114814845,-0.331481506,0,0,0,0,117,117,25,1,26,69274,blockP,180,2022-02-10_09h57.45.857,orientation adjustment blockP,2021.2.3,Win32,60.54734803,,,,,,,
,,,,,,,,,,,,,,,,,,,,,,57.77777778,-31,20,75,-27.22222222,3.777777778,1.511111111,0.357407445,-0.298148172,1,0,0,0.0195,submitButton,3.012019231,-0.149074052,-0.388888915,0,0,0,0,118,118,105,1,31,69274,blockP,180,2022-02-10_09h57.45.857,orientation adjustment blockP,2021.2.3,Win32,60.54734803,,,,,,,
,,,,,,,,,,,,,,,,,,,,,,63.33333333,19,20,75,27.33333333,8.333333333,3.333333333,0.368518556,-0.313888913,1,0,0,0.3144,submitButton,3.015079365,0.301851887,-0.38333336,1,0,0,0,119,119,93,1,19,69274,blockP,180,2022-02-10_09h57.45.857,orientation adjustment blockP,2021.2.3,Win32,60.54734803,continueButton,,,,,,
,,,,,,,,,,,,,,,,,,,,,,-23.33333333,-20,20,75,-13.33333333,6.666666667,2.666666667,-0.200925905,-0.38333336,1,0,0,1.5128,submitButton,3.011792453,0.320370406,-0.337963044,0,0,0,0,120,120,19,1,20,69274,blockP,180,2022-02-10_09h57.45.857,orientation adjustment blockP,2021.2.3,Win32,60.54734803,,,,,,,
,,,,,,,,,,,,,,,,,,,,,,-43.33333333,73,20,75,66.66666667,6.333333333,2.533333333,-0.206481461,-0.392592619,1,0,0,1.449,submitButton,3.007320872,-0.206481461,-0.392592619,0,0,0,0,121,121,147,1,73,69274,blockP,180,2022-02-10_09h57.45.857,orientation adjustment blockP,2021.2.3,Win32,60.54734803,,,,,,,
,,,,,,,,,,,,,,,,,,,,,,-29.44444444,68,20,75,65.55555556,2.444444444,0.977777778,0.186111143,-0.275000023,1,0,0,0.0334,submitButton,2.988528807,-0.232407388,-0.393518602,0,0,0,0,122,122,142,1,68,69274,blockP,180,2022-02-10_09h57.45.857,orientation adjustment blockP,2021.2.3,Win32,60.54734803,,,,,,,
,,,,,,,,,,,,,,,,,,,,,,60,-66,20,75,-74,8,3.2,0.419444483,-0.317592617,1,0,0,0.667,submitButton,2.990468909,-0.122222199,-0.418518602,0,0,0,0,123,123,140,1,66,69274,blockP,180,2022-02-10_09h57.45.857,orientation adjustment blockP,2021.2.3,Win32,60.54734803,,,,,,,
,,,,,,,,,,,,,,,,,,,,,,21.66666667,-17,20,75,-17.33333333,0.333333333,0.133333333,0.397222261,-0.326851933,1,0,0,0.2975,submitButton,2.964494949,-0.17314807,-0.401851935,0,0,0,0,124,124,91,1,17,69274,blockP,180,2022-02-10_09h57.45.857,orientation adjustment blockP,2021.2.3,Win32,60.54734803,,,,,,,
,,,,,,,,,,,,,,,,,,,,,,-23.33333333,-75,20,75,-70.33333333,4.666666667,1.866666667,-0.274999982,-0.367592618,1,0,0,0.9956,submitButton,2.954604605,0.223148181,-0.30462971,0,0,0,0,125,125,149,1,75,69274,blockP,180,2022-02-10_09h57.45.857,orientation adjustment blockP,2021.2.3,Win32,60.54734803,,,,,,,
,,,,,,,,,,,,,,,,,,,,,,60,-11,20,75,-19,8,3.2,0.387963001,-0.308333357,1,0,0,0.7797,submitButton,2.956795635,-0.159259181,-0.38333336,0,0,0,0,126,126,10,1,11,69274,blockP,180,2022-02-10_09h57.45.857,orientation adjustment blockP,2021.2.3,Win32,60.54734803,,,,,,,
,,,,,,,,,,,,,,,,,,,,,,-55.55555556,-36,20,75,-26.55555556,9.444444444,3.777777778,0.21203707,-0.28703706,1,0,0,1.2297,submitButton,2.964060964,0.175000032,-0.363888915,0,0,0,0,127,127,110,1,36,69274,blockP,180,2022-02-10_09h57.45.857,orientation adjustment blockP,2021.2.3,Win32,60.54734803,,,,,,,
,,,,,,,,,,,,,,,,,,,,,,-68.88888889,66,20,75,53.11111111,12.88888889,5.155555556,0.195370403,-0.312037061,1,0,0,0.1969,submitButton,2.9832846,-0.174074053,-0.404629713,0,0,0,0,128,128,65,1,66,69274,blockP,180,2022-02-10_09h57.45.857,orientation adjustment blockP,2021.2.3,Win32,60.54734803,,,,,,,
,,,,,,,,,,,,,,,,,,,,,,46.66666667,-53,20,75,-35.33333333,17.66666667,11.48333333,0.418518557,-0.340740822,1,0,0,0.0994,submitButton,3.057198068,-0.265740722,-0.387963046,0,0,0,0,129,129,52,1,53,69274,blockP,180,2022-02-10_09h57.45.857,orientation adjustment blockP,2021.2.3,Win32,60.54734803,,,,,,,
,,,,,,,,,,,,,,,,,,,,,,-31.11111111,-42,20,75,-29.11111111,12.88888889,5.155555556,0.175925958,-0.334259284,1,0,0,0.6127,submitButton,3.075287356,-0.115740718,-0.412963047,0,0,0,0,130,130,116,1,42,69274,blockP,180,2022-02-10_09h57.45.857,orientation adjustment blockP,2021.2.3,Win32,60.54734803,,,,,,,
,,,,,,,,,,,,,,,,,,,,,,65.55555556,-79,20,75,-60.44444444,18.55555556,12.06111111,0.385185223,-0.313888913,1,0,0,0.1471,submitButton,3.152089269,-0.172222201,-0.387037063,0,0,0,0,131,131,78,1,79,69274,blockP,180,2022-02-10_09h57.45.857,orientation adjustment blockP,2021.2.3,Win32,60.54734803,,,,,,,
,,,,,,,,,,,,,,,,,,,,,,36.66666667,56,20,75,55.66666667,0.333333333,0.133333333,0.360185222,-0.320370395,1,0,0,0.0999,submitButton,3.126506591,-0.137036958,-0.404629713,0,0,0,0,132,132,130,1,56,69274,blockP,180,2022-02-10_09h57.45.857,orientation adjustment blockP,2021.2.3,Win32,60.54734803,,,,,,,
,,,,,,,,,,,,,,,,,,,,,,-48.33333333,65,20,75,53.66666667,11.33333333,4.533333333,-0.196296276,-0.391666693,1,0,0,1.8296,submitButton,3.138328665,-0.196296276,-0.391666693,0,0,0,0,133,133,64,1,65,69274,blockP,180,2022-02-10_09h57.45.857,orientation adjustment blockP,2021.2.3,Win32,60.54734803,,,,,,,
,,,,,,,,,,,,,,,,,,,,,,-55,-27,20,75,-25,2,0.8,-0.19074072,-0.399074157,1,0,0,1.4498,submitButton,3.118842593,0.326851888,-0.394444471,1,0,0,0,134,134,26,1,27,69274,blockP,180,2022-02-10_09h57.45.857,orientation adjustment blockP,2021.2.3,Win32,60.54734803,continueButton,,,,,,
,,,,,,,,,,,,,,,,,,,,,,71.66666667,5,20,75,21.66666667,16.66666667,10.83333333,-0.138888867,-0.38240749,1,0,0,1.7492,submitButton,3.182598714,-0.138888867,-0.38240749,0,0,0,0,135,135,4,1,5,69274,blockP,180,2022-02-10_09h57.45.857,orientation adjustment blockP,2021.2.3,Win32,60.54734803,,,,,,,
,,,,,,,,,,,,,,,,,,,,,,-46.66666667,38,20,75,35.33333333,2.666666667,1.066666667,-0.104629606,-0.384259286,1,0,0,1.2126,submitButton,3.165255009,-0.104629606,-0.384259286,0,0,0,0,136,136,112,1,38,69274,blockP,180,2022-02-10_09h57.45.857,orientation adjustment blockP,2021.2.3,Win32,60.54734803,,,,,,,
,,,,,,,,,,,,,,,,,,,,,,37.77777778,-23,20,75,-34.22222222,11.22222222,4.488888889,-0.17314807,-0.403703731,1,0,0,1.4783,submitButton,3.17601626,-0.17314807,-0.403703731,0,0,0,0,137,137,22,1,23,69274,blockP,180,2022-02-10_09h57.45.857,orientation adjustment blockP,2021.2.3,Win32,60.54734803,,,,,,,
,,,,,,,,,,,,,,,,,,,,,,-58.33333333,-25,20,75,-33.33333333,8.333333333,3.333333333,0.197222255,-0.303703728,1,0,0,0.1331,submitButton,3.177284946,-0.138888867,-0.390740824,0,0,0,0,138,138,24,1,25,69274,blockP,180,2022-02-10_09h57.45.857,orientation adjustment blockP,2021.2.3,Win32,60.54734803,,,,,,,
,,,,,,,,,,,,,,,,,,,,,,22.22222222,74,20,75,59.22222222,14.77777778,5.911111111,0.392592631,-0.287963043,1,0,0,0.2167,submitButton,3.199155556,-0.153703625,-0.37870373,0,0,0,0,139,139,148,1,74,69274,blockP,180,2022-02-10_09h57.45.857,orientation adjustment blockP,2021.2.3,Win32,60.54734803,,,,,,,
,,,,,,,,,,,,,,,,,,,,,,74.44444444,73,20,75,61.44444444,11.55555556,4.622222222,0.365740778,-0.296296377,1,0,0,0.0169,submitButton,3.210449735,-0.145370292,-0.391666693,0,0,0,0,140,140,72,1,73,69274,blockP,180,2022-02-10_09h57.45.857,orientation adjustment blockP,2021.2.3,Win32,60.54734803,,,,,,,
,,,,,,,,,,,,,,,,,,,,,,-25.55555556,19,20,75,15.44444444,3.555555556,1.422222222,-0.152777756,-0.376851934,1,0,0,1.3462,submitButton,3.196369204,-0.152777756,-0.376851934,0,0,0,0,141,141,18,1,19,69274,blockP,180,2022-02-10_09h57.45.857,orientation adjustment blockP,2021.2.3,Win32,60.54734803,,,,,,,
,,,,,,,,,,,,,,,,,,,,,,37.77777778,-38,20,75,-38.22222222,0.222222222,0.088888889,0.381481519,-0.301851932,1,0,0,0.1662,submitButton,3.172092014,-0.278703686,-0.397222249,0,0,0,0,142,142,37,1,38,69274,blockP,180,2022-02-10_09h57.45.857,orientation adjustment blockP,2021.2.3,Win32,60.54734803,,,,,,,
,,,,,,,,,,,,,,,,,,,,,,-32.22222222,-43,20,75,-44.22222222,1.222222222,0.488888889,0.196296329,-0.29166669,1,0,0,0.0158,submitButton,3.15129199,-0.149999978,-0.412037064,0,0,0,0,143,143,42,1,43,69274,blockP,180,2022-02-10_09h57.45.857,orientation adjustment blockP,2021.2.3,Win32,60.54734803,,,,,,,
,,,,,,,,,,,,,,,,,,,,,,-20,29,20,75,29,0,0,0.225925959,-0.314814839,1,0,0,0.1002,submitButton,3.127051282,-0.102777754,-0.323148173,0,0,0,0,144,144,28,1,29,69274,blockP,180,2022-02-10_09h57.45.857,orientation adjustment blockP,2021.2.3,Win32,60.54734803,,,,,,,
,,,,,,,,,,,,,,,,,,,,,,31.11111111,55,20,75,60.11111111,5.111111111,2.044444444,0.405555594,-0.289814838,1,0,0,0.0501,submitButton,3.118787108,-0.099074051,-0.40833336,0,0,0,0,145,145,54,1,55,69274,blockP,180,2022-02-10_09h57.45.857,orientation adjustment blockP,2021.2.3,Win32,60.54734803,,,,,,,
,,,,,,,,,,,,,,,,,,,,,,-71.11111111,-21,20,75,-37.11111111,16.11111111,10.47222222,0.242592626,-0.316666691,1,0,0,0.4498,submitButton,3.174494949,-0.225925906,-0.405555583,0,0,0,0,146,146,95,1,21,69274,blockP,180,2022-02-10_09h57.45.857,orientation adjustment blockP,2021.2.3,Win32,60.54734803,,,,,,,
,,,,,,,,,,,,,,,,,,,,,,-51.11111111,-3,20,75,-22.11111111,19.11111111,12.42222222,-0.149074052,-0.416666694,1,0,0,1.2328,submitButton,3.244026734,0.125925956,-0.377777804,0,0,0,0,147,147,2,1,3,69274,blockP,180,2022-02-10_09h57.45.857,orientation adjustment blockP,2021.2.3,Win32,60.54734803,,,,,,,
,,,,,,,,,,,,,,,,,,,,,,-32.77777778,-61,20,75,-56.77777778,4.222222222,1.688888889,0.192592625,-0.299074154,1,0,0,0.0832,submitButton,3.232421227,-0.213888869,-0.400925953,0,0,0,0,148,148,60,1,61,69274,blockP,180,2022-02-10_09h57.45.857,orientation adjustment blockP,2021.2.3,Win32,60.54734803,,,,,,,
,,,,,,,,,,,,,,,,,,,,,,51.66666667,-30,20,75,21.66666667,51.66666667,43.91666667,-0.167592515,-0.374074157,1,0,0,1.6651,submitButton,3.533786008,0.4842593,-0.40833336,1,0,0,0,149,149,104,1,30,69274,blockP,180,2022-02-10_09h57.45.857,orientation adjustment blockP,2021.2.3,Win32,60.54734803,continueButton,,,,,,
,,,,,,,,,,,,,,,,,,,,,,,,,,,,,,,,,,,,,,,,,,,,,,,,69274,blockP,180,2022-02-10_09h57.45.857,orientation adjustment blockP,2021.2.3,Win32,60.54734803,,0.314814851,-0.406481508,1,0,0,EndButtonTxt
