consentMouse1.x,consentMouse1.y,consentMouse1.leftButton,consentMouse1.midButton,consentMouse1.rightButton,consentMouse1.clicked_name,consent_Mouse.x,consent_Mouse.y,consent_Mouse.leftButton,consent_Mouse.midButton,consent_Mouse.rightButton,consent_Mouse.clicked_name,startMouse.x,startMouse.y,startMouse.leftButton,startMouse.midButton,startMouse.rightButton,startMouse_2.x,startMouse_2.y,startMouse_2.leftButton,startMouse_2.midButton,startMouse_2.rightButton,start_distance,fixedOri,minimalDistance,maxOri,this_ori,accuracy,presented_accuracy,presented_this_ori,submitMouse.x,submitMouse.y,submitMouse.leftButton,submitMouse.midButton,submitMouse.rightButton,submitMouse.time,submitMouse.clicked_name,pauseMouse.x,pauseMouse.y,pauseMouse.leftButton,pauseMouse.midButton,pauseMouse.rightButton,trials.thisRepN,trials.thisTrialN,trials.thisN,trials.thisIndex,trials.ran,startOri,participant,condition,nTrials,date,expName,psychopyVersion,OS,frameRate,pauseMouse.clicked_name,EndButtonMouse.x,EndButtonMouse.y,EndButtonMouse.leftButton,EndButtonMouse.midButton,EndButtonMouse.rightButton,EndButtonMouse.clicked_name
0.361341146,-0.393424479,1,0,0,consent_button1,0.361341146,-0.393424479,1,0,0,consent_button,0.361341146,-0.376210938,1,0,0,-0.19218316,-0.353411458,1,0,0,-20,-31,20,75,-51,20,20,-141,-0.365868056,-0.381640625,1,0,0,3.6828,submitButton,-0.294162326,-0.319991319,0,0,0,0,0,0,15,1,31,69217,1,180,2022-02-24_15h26.02.054,orientation adjustment 1,2021.2.3,MacIntel,59.99880002,,,,,,,
,,,,,,,,,,,,,,,,,,,,,,-74.44444444,-38,20,75,-112.4444444,74.44444444,74.44444444,-202.4444444,-0.144509549,-0.415273438,1,0,0,2.0829,submitButton,-0.14031684,-0.393259549,0,0,0,0,1,1,22,1,38,69217,1,180,2022-02-24_15h26.02.054,orientation adjustment 1,2021.2.3,MacIntel,59.99880002,,,,,,,
,,,,,,,,,,,,,,,,,,,,,,-44.44444444,-30,20,75,-82.44444444,52.44444444,52.44444444,-172.4444444,0.402430556,-0.288116319,1,0,0,1.5505,submitButton,-0.286176215,-0.404053819,0,0,0,0,2,2,14,1,30,69217,1,180,2022-02-24_15h26.02.054,orientation adjustment 1,2021.2.3,MacIntel,59.99880002,,,,,,,
,,,,,,,,,,,,,,,,,,,,,,44.44444444,50,20,75,94.44444444,44.44444444,44.44444444,4.444444444,-0.286176215,-0.404053819,1,0,0,0.4508,submitButton,-0.286176215,-0.404053819,0,0,0,0,3,3,34,1,50,69217,1,180,2022-02-24_15h26.02.054,orientation adjustment 1,2021.2.3,MacIntel,59.99880002,,,,,,,
,,,,,,,,,,,,,,,,,,,,,,-61.11111111,-75,20,75,-136.1111111,61.11111111,61.11111111,-226.1111111,-0.286176215,-0.404053819,1,0,0,0.5156,submitButton,-0.286176215,-0.404053819,0,0,0,0,4,4,59,1,75,69217,1,180,2022-02-24_15h26.02.054,orientation adjustment 1,2021.2.3,MacIntel,59.99880002,,,,,,,
,,,,,,,,,,,,,,,,,,,,,,58.33333333,-39,20,75,19.33333333,58.33333333,58.33333333,-70.66666667,-0.286176215,-0.404053819,1,0,0,0.3167,submitButton,-0.286176215,-0.404053819,0,0,0,0,5,5,23,1,39,69217,1,180,2022-02-24_15h26.02.054,orientation adjustment 1,2021.2.3,MacIntel,59.99880002,,,,,,,
,,,,,,,,,,,,,,,,,,,,,,-30.55555556,-29,20,75,-59.55555556,30.55555556,30.55555556,-149.5555556,0.229917535,-0.27969184,1,0,0,0.9665,submitButton,-0.279257812,-0.374782986,0,0,0,0,6,6,13,1,29,69217,1,180,2022-02-24_15h26.02.054,orientation adjustment 1,2021.2.3,MacIntel,59.99880002,,,,,,,
,,,,,,,,,,,,,,,,,,,,,,-64.44444444,-53,20,75,-51.44444444,1.555555556,1.555555556,-141.4444444,0.19906684,-0.301905382,1,0,0,0.3825,submitButton,0.083832465,-0.243875868,0,0,0,0,7,7,37,1,53,69217,1,180,2022-02-24_15h26.02.054,orientation adjustment 1,2021.2.3,MacIntel,59.99880002,,,,,,,
,,,,,,,,,,,,,,,,,,,,,,35.55555556,25,20,75,152.5555556,52.44444444,52.44444444,62.55555556,0.217365451,-0.261484375,1,0,0,0.0336,submitButton,0.032934028,-0.398090278,0,0,0,0,8,8,9,1,25,69217,1,180,2022-02-24_15h26.02.054,orientation adjustment 1,2021.2.3,MacIntel,59.99880002,,,,,,,
,,,,,,,,,,,,,,,,,,,,,,25,35,20,75,43,8,8,-47,0.345399306,-0.302369792,1,0,0,0.7005,submitButton,-0.013263889,-0.390164931,0,0,0,0,9,9,19,1,35,69217,1,180,2022-02-24_15h26.02.054,orientation adjustment 1,2021.2.3,MacIntel,59.99880002,,,,,,,
,,,,,,,,,,,,,,,,,,,,,,59.44444444,20,20,75,35.44444444,15.44444444,15.44444444,-54.55555556,0.420846354,-0.285655382,1,0,0,0.4332,submitButton,0.322543403,-0.327178819,0,0,0,0,10,10,4,1,20,69217,1,180,2022-02-24_15h26.02.054,orientation adjustment 1,2021.2.3,MacIntel,59.99880002,,,,,,,
,,,,,,,,,,,,,,,,,,,,,,-65,42,20,75,-160,22,22,-250,0.391553819,-0.318845486,1,0,0,1.7339,submitButton,0.158710938,-0.40265191,0,0,0,0,11,11,26,1,42,69217,1,180,2022-02-24_15h26.02.054,orientation adjustment 1,2021.2.3,MacIntel,59.99880002,,,,,,,
,,,,,,,,,,,,,,,,,,,,,,36.11111111,56,20,75,63.11111111,7.111111111,7.111111111,-26.88888889,0.368333333,-0.320251736,1,0,0,0.9162,submitButton,0.181319444,-0.376358507,0,0,0,0,12,12,40,1,56,69217,1,180,2022-02-24_15h26.02.054,orientation adjustment 1,2021.2.3,MacIntel,59.99880002,,,,,,,
,,,,,,,,,,,,,,,,,,,,,,-23.88888889,-74,20,75,-128.8888889,54.88888889,54.88888889,-218.8888889,0.402677951,-0.331106771,1,0,0,0.4834,submitButton,-0.215655382,-0.413294271,0,0,0,0,13,13,58,1,74,69217,1,180,2022-02-24_15h26.02.054,orientation adjustment 1,2021.2.3,MacIntel,59.99880002,,,,,,,
,,,,,,,,,,,,,,,,,,,,,,30.55555556,70,20,75,119.5555556,49.55555556,49.55555556,29.55555556,-0.225611979,-0.399431424,1,0,0,1.7647,submitButton,0.354253472,-0.427196181,1,0,0,0,14,14,54,1,70,69217,1,180,2022-02-24_15h26.02.054,orientation adjustment 1,2021.2.3,MacIntel,59.99880002,pause_continueButton,,,,,,
,,,,,,,,,,,,,,,,,,,,,,-71.66666667,44,20,75,-27.66666667,71.66666667,71.66666667,-117.6666667,-0.182838542,-0.409939236,1,0,0,2.4008,submitButton,0.193576389,-0.294340278,0,0,0,0,15,15,28,1,44,69217,1,180,2022-02-24_15h26.02.054,orientation adjustment 1,2021.2.3,MacIntel,59.99880002,,,,,,,
,,,,,,,,,,,,,,,,,,,,,,75,-19,20,75,39,58,58,-51,-0.304874132,-0.389053819,1,0,0,1.1985,submitButton,-0.062573785,-0.414926215,0,0,0,0,16,16,3,1,19,69217,1,180,2022-02-24_15h26.02.054,orientation adjustment 1,2021.2.3,MacIntel,59.99880002,,,,,,,
,,,,,,,,,,,,,,,,,,,,,,65,55,20,75,141,86,86,51,-0.388953993,-0.377834201,1,0,0,0.4995,submitButton,-0.018880208,-0.365078125,0,0,0,0,17,17,39,1,55,69217,1,180,2022-02-24_15h26.02.054,orientation adjustment 1,2021.2.3,MacIntel,59.99880002,,,,,,,
,,,,,,,,,,,,,,,,,,,,,,-67.77777778,-60,20,75,-127.7777778,67.77777778,67.77777778,-217.7777778,-0.535707465,-0.422921007,1,0,0,0.4995,submitButton,-0.109557292,-0.427912326,0,0,0,0,18,18,44,1,60,69217,1,180,2022-02-24_15h26.02.054,orientation adjustment 1,2021.2.3,MacIntel,59.99880002,,,,,,,
,,,,,,,,,,,,,,,,,,,,,,23.88888889,-22,20,75,125.8888889,32.11111111,32.11111111,35.88888889,0.220954861,-0.300898438,1,0,0,2.0804,submitButton,0.02125,-0.316449653,0,0,0,0,19,19,6,1,22,69217,1,180,2022-02-24_15h26.02.054,orientation adjustment 1,2021.2.3,MacIntel,59.99880002,,,,,,,
,,,,,,,,,,,,,,,,,,,,,,29.44444444,-18,20,75,-17.55555556,0.444444444,0.444444444,-107.5555556,0.383550347,-0.285963542,1,0,0,1.2506,submitButton,0.256124132,-0.361519097,0,0,0,0,20,20,2,1,18,69217,1,180,2022-02-24_15h26.02.054,orientation adjustment 1,2021.2.3,MacIntel,59.99880002,,,,,,,
,,,,,,,,,,,,,,,,,,,,,,68.88888889,-27,20,75,-16.11111111,10.88888889,10.88888889,-106.1111111,0.393333333,-0.281996528,1,0,0,0.6005,submitButton,-0.184778646,-0.407361111,0,0,0,0,21,21,11,1,27,69217,1,180,2022-02-24_15h26.02.054,orientation adjustment 1,2021.2.3,MacIntel,59.99880002,,,,,,,
,,,,,,,,,,,,,,,,,,,,,,28.33333333,-43,20,75,-14.66666667,28.33333333,28.33333333,-104.6666667,-0.369891493,-0.452960069,1,0,0,0.5495,submitButton,-0.020659722,-0.437326389,0,0,0,0,22,22,27,1,43,69217,1,180,2022-02-24_15h26.02.054,orientation adjustment 1,2021.2.3,MacIntel,59.99880002,,,,,,,
,,,,,,,,,,,,,,,,,,,,,,-66.66666667,-33,20,75,-26.66666667,6.333333333,6.333333333,-116.6666667,0.228697917,-0.300737847,1,0,0,0.6835,submitButton,0.335338542,-0.236644965,0,0,0,0,23,23,17,1,33,69217,1,180,2022-02-24_15h26.02.054,orientation adjustment 1,2021.2.3,MacIntel,59.99880002,,,,,,,
,,,,,,,,,,,,,,,,,,,,,,-55.55555556,-59,20,75,-20.55555556,38.44444444,38.44444444,-110.5555556,0.240421007,-0.304171007,1,0,0,0.121,submitButton,0.285625,-0.261510417,0,0,0,0,24,24,43,1,59,69217,1,180,2022-02-24_15h26.02.054,orientation adjustment 1,2021.2.3,MacIntel,59.99880002,,,,,,,
,,,,,,,,,,,,,,,,,,,,,,-20.55555556,-68,20,75,-66.55555556,1.444444444,1.444444444,-156.5555556,-0.448702257,-0.395820312,1,0,0,0.6498,submitButton,0.097204861,-0.383272569,0,0,0,0,25,25,52,1,68,69217,1,180,2022-02-24_15h26.02.054,orientation adjustment 1,2021.2.3,MacIntel,59.99880002,,,,,,,
,,,,,,,,,,,,,,,,,,,,,,-40,-24,20,75,-44,20,20,-134,-0.340724826,-0.380104167,1,0,0,0.6005,submitButton,0.036957465,-0.341588542,0,0,0,0,26,26,8,1,24,69217,1,180,2022-02-24_15h26.02.054,orientation adjustment 1,2021.2.3,MacIntel,59.99880002,,,,,,,
,,,,,,,,,,,,,,,,,,,,,,48.33333333,-45,20,75,-14.66666667,30.33333333,30.33333333,-104.6666667,0.415963542,-0.304618056,1,0,0,0.7174,submitButton,0.07937934,-0.369578993,0,0,0,0,27,27,29,1,45,69217,1,180,2022-02-24_15h26.02.054,orientation adjustment 1,2021.2.3,MacIntel,59.99880002,,,,,,,
,,,,,,,,,,,,,,,,,,,,,,53.33333333,-26,20,75,-27.66666667,1.666666667,1.666666667,-117.6666667,0.400525174,-0.305651042,1,0,0,0.4661,submitButton,0.146054688,-0.395013021,0,0,0,0,28,28,10,1,26,69217,1,180,2022-02-24_15h26.02.054,orientation adjustment 1,2021.2.3,MacIntel,59.99880002,,,,,,,
,,,,,,,,,,,,,,,,,,,,,,56.11111111,-71,20,75,-14.88888889,56.11111111,56.11111111,-104.8888889,-0.378368056,-0.388051215,1,0,0,0.4664,submitButton,0.215881076,-0.421080729,1,0,0,0,29,29,55,1,71,69217,1,180,2022-02-24_15h26.02.054,orientation adjustment 1,2021.2.3,MacIntel,59.99880002,pause_continueButton,,,,,,
,,,,,,,,,,,,,,,,,,,,,,-42.22222222,49,20,75,6.777777778,42.22222222,42.22222222,-83.22222222,-0.264084201,-0.410286458,1,0,0,0.7007,submitButton,0.118411458,-0.372113715,0,0,0,0,30,30,33,1,49,69217,1,180,2022-02-24_15h26.02.054,orientation adjustment 1,2021.2.3,MacIntel,59.99880002,,,,,,,
,,,,,,,,,,,,,,,,,,,,,,-35.55555556,17,20,75,43.44444444,26.44444444,26.44444444,-46.55555556,-0.314934896,-0.439644097,1,0,0,1.4822,submitButton,0.164986979,-0.331857639,0,0,0,0,31,31,1,1,17,69217,1,180,2022-02-24_15h26.02.054,orientation adjustment 1,2021.2.3,MacIntel,59.99880002,,,,,,,
,,,,,,,,,,,,,,,,,,,,,,-33.88888889,57,20,75,23.11111111,33.88888889,33.88888889,-66.88888889,-0.206853299,-0.399809028,1,0,0,0.4674,submitButton,-0.120355903,-0.346901042,0,0,0,0,32,32,41,1,57,69217,1,180,2022-02-24_15h26.02.054,orientation adjustment 1,2021.2.3,MacIntel,59.99880002,,,,,,,
,,,,,,,,,,,,,,,,,,,,,,-25.55555556,46,20,75,52.44444444,6.444444444,6.444444444,-37.55555556,-0.32078559,-0.392365451,1,0,0,0.9326,submitButton,0.091006944,-0.350633681,0,0,0,0,33,33,30,1,46,69217,1,180,2022-02-24_15h26.02.054,orientation adjustment 1,2021.2.3,MacIntel,59.99880002,,,,,,,
,,,,,,,,,,,,,,,,,,,,,,44.44444444,66,20,75,227.4444444,18.55555556,18.55555556,137.4444444,0.237239583,-0.302521701,1,0,0,0.1985,submitButton,0.132565104,-0.306835937,0,0,0,0,34,34,50,1,66,69217,1,180,2022-02-24_15h26.02.054,orientation adjustment 1,2021.2.3,MacIntel,59.99880002,,,,,,,
,,,,,,,,,,,,,,,,,,,,,,28.88888889,28,20,75,56.88888889,28.88888889,28.88888889,-33.11111111,-0.322829861,-0.476614583,1,0,0,0.7326,submitButton,-0.078554687,-0.2,0,0,0,0,35,35,12,1,28,69217,1,180,2022-02-24_15h26.02.054,orientation adjustment 1,2021.2.3,MacIntel,59.99880002,,,,,,,
,,,,,,,,,,,,,,,,,,,,,,-59.44444444,-16,20,75,49.55555556,65.55555556,65.55555556,-40.44444444,-0.22952691,-0.381992188,1,0,0,2.5502,submitButton,0.372734375,-0.238997396,0,0,0,0,36,36,0,1,16,69217,1,180,2022-02-24_15h26.02.054,orientation adjustment 1,2021.2.3,MacIntel,59.99880002,,,,,,,
,,,,,,,,,,,,,,,,,,,,,,72.22222222,21,20,75,165.2222222,35.77777778,35.77777778,75.22222222,0.189665799,-0.270321181,1,0,0,1.4836,submitButton,0.159305556,-0.409882813,0,0,0,0,37,37,5,1,21,69217,1,180,2022-02-24_15h26.02.054,orientation adjustment 1,2021.2.3,MacIntel,59.99880002,,,,,,,
,,,,,,,,,,,,,,,,,,,,,,36.66666667,-72,20,75,32.66666667,75.33333333,75.33333333,-57.33333333,-0.248676215,-0.413667535,1,0,0,1.9173,submitButton,0.250720486,-0.299561632,0,0,0,0,38,38,56,1,72,69217,1,180,2022-02-24_15h26.02.054,orientation adjustment 1,2021.2.3,MacIntel,59.99880002,,,,,,,
,,,,,,,,,,,,,,,,,,,,,,48.33333333,-64,20,75,-60.66666667,3.333333333,3.333333333,-150.6666667,0.372152778,-0.304357639,1,0,0,0.0503,submitButton,0.156805556,-0.410972222,0,0,0,0,39,39,48,1,64,69217,1,180,2022-02-24_15h26.02.054,orientation adjustment 1,2021.2.3,MacIntel,59.99880002,,,,,,,
,,,,,,,,,,,,,,,,,,,,,,-65.55555556,-62,20,75,-241.5555556,0.444444444,0.444444444,-331.5555556,0.375585938,-0.332881944,1,0,0,0.1,submitButton,0.001193576,-0.361271701,0,0,0,0,40,40,46,1,62,69217,1,180,2022-02-24_15h26.02.054,orientation adjustment 1,2021.2.3,MacIntel,59.99880002,,,,,,,
,,,,,,,,,,,,,,,,,,,,,,66.66666667,69,20,75,112.6666667,43.66666667,43.66666667,22.66666667,0.361371528,-0.315885417,1,0,0,0.3328,submitButton,-0.117009549,-0.389314236,0,0,0,0,41,41,53,1,69,69217,1,180,2022-02-24_15h26.02.054,orientation adjustment 1,2021.2.3,MacIntel,59.99880002,,,,,,,
,,,,,,,,,,,,,,,,,,,,,,-62.22222222,-23,20,75,-115.2222222,87.77777778,87.77777778,-205.2222222,0.388363715,-0.308854167,1,0,0,1.6997,submitButton,0.070959201,-0.171653646,0,0,0,0,42,42,7,1,23,69217,1,180,2022-02-24_15h26.02.054,orientation adjustment 1,2021.2.3,MacIntel,59.99880002,,,,,,,
,,,,,,,,,,,,,,,,,,,,,,-23.33333333,36,20,75,-17.33333333,53.33333333,53.33333333,-107.3333333,0.397916667,-0.293893229,1,0,0,0.8499,submitButton,-0.202165799,-0.405082465,0,0,0,0,43,43,20,1,36,69217,1,180,2022-02-24_15h26.02.054,orientation adjustment 1,2021.2.3,MacIntel,59.99880002,,,,,,,
,,,,,,,,,,,,,,,,,,,,,,-25.55555556,58,20,75,32.44444444,25.55555556,25.55555556,-57.55555556,-0.276158854,-0.417868924,1,0,0,8.117,submitButton,0.248402778,-0.387890625,1,0,0,0,44,44,42,1,58,69217,1,180,2022-02-24_15h26.02.054,orientation adjustment 1,2021.2.3,MacIntel,59.99880002,pause_continueButton,,,,,,
,,,,,,,,,,,,,,,,,,,,,,37.22222222,41,20,75,78.22222222,37.22222222,37.22222222,-11.77777778,-0.183068576,-0.388420139,1,0,0,1.333,submitButton,-0.183081597,-0.38312934,0,0,0,0,45,45,25,1,41,69217,1,180,2022-02-24_15h26.02.054,orientation adjustment 1,2021.2.3,MacIntel,59.99880002,,,,,,,
,,,,,,,,,,,,,,,,,,,,,,22.22222222,54,20,75,76.22222222,22.22222222,22.22222222,-13.77777778,-0.103085938,-0.408476562,1,0,0,0.7168,submitButton,0.032322049,-0.394283854,0,0,0,0,46,46,38,1,54,69217,1,180,2022-02-24_15h26.02.054,orientation adjustment 1,2021.2.3,MacIntel,59.99880002,,,,,,,
,,,,,,,,,,,,,,,,,,,,,,51.66666667,61,20,75,65.66666667,4.666666667,4.666666667,-24.33333333,0.433611111,-0.267252604,1,0,0,0.1007,submitButton,0.173324653,-0.248945312,0,0,0,0,47,47,45,1,61,69217,1,180,2022-02-24_15h26.02.054,orientation adjustment 1,2021.2.3,MacIntel,59.99880002,,,,,,,
,,,,,,,,,,,,,,,,,,,,,,-58.33333333,-34,20,75,-130.3333333,83.66666667,83.66666667,-220.3333333,-0.158298611,-0.394457465,1,0,0,1.6172,submitButton,0.1775,-0.264296875,0,0,0,0,48,48,18,1,34,69217,1,180,2022-02-24_15h26.02.054,orientation adjustment 1,2021.2.3,MacIntel,59.99880002,,,,,,,
,,,,,,,,,,,,,,,,,,,,,,30.55555556,-73,20,75,-42.44444444,30.55555556,30.55555556,-132.4444444,-0.189561632,-0.407282986,1,0,0,0.7498,submitButton,0.157517361,-0.348467882,0,0,0,0,49,49,57,1,73,69217,1,180,2022-02-24_15h26.02.054,orientation adjustment 1,2021.2.3,MacIntel,59.99880002,,,,,,,
,,,,,,,,,,,,,,,,,,,,,,-38.88888889,-32,20,75,-70.88888889,38.88888889,38.88888889,-160.8888889,-0.186145833,-0.384340278,1,0,0,0.5667,submitButton,-0.165390625,-0.386688368,0,0,0,0,50,50,16,1,32,69217,1,180,2022-02-24_15h26.02.054,orientation adjustment 1,2021.2.3,MacIntel,59.99880002,,,,,,,
,,,,,,,,,,,,,,,,,,,,,,-42.22222222,-37,20,75,-46.22222222,9.222222222,9.222222222,-136.2222222,0.202643229,-0.293546007,1,0,0,0.3501,submitButton,-0.170082465,-0.41093316,0,0,0,0,51,51,21,1,37,69217,1,180,2022-02-24_15h26.02.054,orientation adjustment 1,2021.2.3,MacIntel,59.99880002,,,,,,,
,,,,,,,,,,,,,,,,,,,,,,22.77777778,52,20,75,74.77777778,22.77777778,22.77777778,-15.22222222,-0.219331597,-0.41516059,1,0,0,2.0491,submitButton,-0.219331597,-0.41516059,0,0,0,0,52,52,36,1,52,69217,1,180,2022-02-24_15h26.02.054,orientation adjustment 1,2021.2.3,MacIntel,59.99880002,,,,,,,
,,,,,,,,,,,,,,,,,,,,,,28.88888889,67,20,75,58.88888889,8.111111111,8.111111111,-31.11111111,0.165885417,-0.282994792,1,0,0,0.1841,submitButton,-0.062465278,-0.315655382,0,0,0,0,53,53,51,1,67,69217,1,180,2022-02-24_15h26.02.054,orientation adjustment 1,2021.2.3,MacIntel,59.99880002,,,,,,,
,,,,,,,,,,,,,,,,,,,,,,-33.33333333,-63,20,75,-63.33333333,0.333333333,0.333333333,-153.3333333,0.183975694,-0.266349826,1,0,0,0.1499,submitButton,0.061762153,-0.333051215,0,0,0,0,54,54,47,1,63,69217,1,180,2022-02-24_15h26.02.054,orientation adjustment 1,2021.2.3,MacIntel,59.99880002,,,,,,,
,,,,,,,,,,,,,,,,,,,,,,-30.55555556,48,20,75,-52.55555556,79.44444444,79.44444444,-142.5555556,0.411072049,-0.289283854,1,0,0,0.7518,submitButton,-0.156927083,-0.414036458,0,0,0,0,55,55,32,1,48,69217,1,180,2022-02-24_15h26.02.054,orientation adjustment 1,2021.2.3,MacIntel,59.99880002,,,,,,,
,,,,,,,,,,,,,,,,,,,,,,-56.66666667,-40,20,75,-114.6666667,74.66666667,74.66666667,-204.6666667,0.21578125,-0.279709201,1,0,0,0.1345,submitButton,0.078177083,-0.354900174,0,0,0,0,56,56,24,1,40,69217,1,180,2022-02-24_15h26.02.054,orientation adjustment 1,2021.2.3,MacIntel,59.99880002,,,,,,,
,,,,,,,,,,,,,,,,,,,,,,-53.88888889,47,20,75,-38.88888889,85.88888889,85.88888889,-128.8888889,0.197469618,-0.309700521,1,0,0,0.1499,submitButton,0.183793403,-0.336210937,0,0,0,0,57,57,31,1,47,69217,1,180,2022-02-24_15h26.02.054,orientation adjustment 1,2021.2.3,MacIntel,59.99880002,,,,,,,
,,,,,,,,,,,,,,,,,,,,,,46.11111111,65,20,75,215.1111111,29.88888889,29.88888889,125.1111111,0.225885417,-0.290169271,1,0,0,0.2347,submitButton,-0.221688368,-0.385186632,0,0,0,0,58,58,49,1,65,69217,1,180,2022-02-24_15h26.02.054,orientation adjustment 1,2021.2.3,MacIntel,59.99880002,,,,,,,
,,,,,,,,,,,,,,,,,,,,,,55,-51,20,75,35,86,86,-55,0.241002604,-0.330108507,1,0,0,0.917,submitButton,0.249314236,-0.410651042,1,0,0,0,59,59,35,1,51,69217,1,180,2022-02-24_15h26.02.054,orientation adjustment 1,2021.2.3,MacIntel,59.99880002,pause_continueButton,,,,,,
,,,,,,,,,,,,,,,,,,,,,,-62.77777778,29,20,75,-40.77777778,69.77777778,69.77777778,-130.7777778,0.221328125,-0.314813368,1,0,0,0.4666,submitButton,-0.137899306,-0.417408854,0,0,0,1,0,60,13,1,29,69217,1,180,2022-02-24_15h26.02.054,orientation adjustment 1,2021.2.3,MacIntel,59.99880002,,,,,,,
,,,,,,,,,,,,,,,,,,,,,,-26.66666667,-27,20,75,-53.66666667,26.66666667,26.66666667,-143.6666667,-0.160269097,-0.382113715,1,0,0,0.7337,submitButton,0.253723958,-0.336644965,0,0,0,1,1,61,11,1,27,69217,1,180,2022-02-24_15h26.02.054,orientation adjustment 1,2021.2.3,MacIntel,59.99880002,,,,,,,
,,,,,,,,,,,,,,,,,,,,,,56.11111111,50,20,75,148.1111111,81.88888889,81.88888889,58.11111111,-0.229952257,-0.380564236,1,0,0,1.0502,submitButton,-0.229952257,-0.380564236,0,0,0,1,2,62,34,1,50,69217,1,180,2022-02-24_15h26.02.054,orientation adjustment 1,2021.2.3,MacIntel,59.99880002,,,,,,,
,,,,,,,,,,,,,,,,,,,,,,-27.77777778,-35,20,75,-26.77777778,8.222222222,8.222222222,-116.7777778,-0.29703559,-0.394479167,1,0,0,0.8666,submitButton,-0.010794271,-0.324678819,0,0,0,1,3,63,19,1,35,69217,1,180,2022-02-24_15h26.02.054,orientation adjustment 1,2021.2.3,MacIntel,59.99880002,,,,,,,
,,,,,,,,,,,,,,,,,,,,,,-27.22222222,34,20,75,-36.22222222,70.22222222,70.22222222,-126.2222222,-0.174652778,-0.384765625,1,0,0,1.4671,submitButton,-0.170069444,-0.384765625,0,0,0,1,4,64,18,1,34,69217,1,180,2022-02-24_15h26.02.054,orientation adjustment 1,2021.2.3,MacIntel,59.99880002,,,,,,,
,,,,,,,,,,,,,,,,,,,,,,73.33333333,26,20,75,215.3333333,9.333333333,9.333333333,125.3333333,-0.223880208,-0.401041667,1,0,0,2.9677,submitButton,-0.129852431,-0.32531684,0,0,0,1,5,65,10,1,26,69217,1,180,2022-02-24_15h26.02.054,orientation adjustment 1,2021.2.3,MacIntel,59.99880002,,,,,,,
,,,,,,,,,,,,,,,,,,,,,,54.44444444,43,20,75,211.4444444,11.55555556,11.55555556,121.4444444,0.205972222,-0.305759549,1,0,0,2.084,submitButton,0.295750868,-0.327070313,0,0,0,1,6,66,27,1,43,69217,1,180,2022-02-24_15h26.02.054,orientation adjustment 1,2021.2.3,MacIntel,59.99880002,,,,,,,
,,,,,,,,,,,,,,,,,,,,,,33.88888889,33,20,75,220.8888889,7.888888889,7.888888889,130.8888889,0.255603299,-0.329565972,1,0,0,2.4162,submitButton,-0.143923611,-0.393185764,0,0,0,1,7,67,17,1,33,69217,1,180,2022-02-24_15h26.02.054,orientation adjustment 1,2021.2.3,MacIntel,59.99880002,,,,,,,
,,,,,,,,,,,,,,,,,,,,,,-37.77777778,-47,20,75,-84.77777778,37.77777778,37.77777778,-174.7777778,-0.214309896,-0.415577257,1,0,0,1.6505,submitButton,-0.214309896,-0.415577257,0,0,0,1,8,68,31,1,47,69217,1,180,2022-02-24_15h26.02.054,orientation adjustment 1,2021.2.3,MacIntel,59.99880002,,,,,,,
,,,,,,,,,,,,,,,,,,,,,,-56.11111111,52,20,75,35.88888889,16.11111111,16.11111111,-54.11111111,0.223519965,-0.293368056,1,0,0,0.4146,submitButton,-0.045833333,-0.408268229,0,0,0,1,9,69,36,1,52,69217,1,180,2022-02-24_15h26.02.054,orientation adjustment 1,2021.2.3,MacIntel,59.99880002,,,,,,,
,,,,,,,,,,,,,,,,,,,,,,-58.33333333,18,20,75,26.66666667,8.666666667,8.666666667,-63.33333333,-0.274427083,-0.416106771,1,0,0,1.2659,submitButton,0.138845486,-0.326384549,0,0,0,1,10,70,2,1,18,69217,1,180,2022-02-24_15h26.02.054,orientation adjustment 1,2021.2.3,MacIntel,59.99880002,,,,,,,
,,,,,,,,,,,,,,,,,,,,,,-38.88888889,-28,20,75,22.11111111,50.11111111,50.11111111,-67.88888889,-0.104622396,-0.413259549,1,0,0,2.3818,submitButton,0.169605035,-0.363103299,0,0,0,1,11,71,12,1,28,69217,1,180,2022-02-24_15h26.02.054,orientation adjustment 1,2021.2.3,MacIntel,59.99880002,,,,,,,
,,,,,,,,,,,,,,,,,,,,,,35,54,20,75,151,83,83,61,0.182217882,-0.291957465,1,0,0,0.7498,submitButton,0.276354167,-0.280338542,0,0,0,1,12,72,38,1,54,69217,1,180,2022-02-24_15h26.02.054,orientation adjustment 1,2021.2.3,MacIntel,59.99880002,,,,,,,
,,,,,,,,,,,,,,,,,,,,,,-66.11111111,69,20,75,47.88888889,21.11111111,21.11111111,-42.11111111,-0.151284722,-0.422052951,1,0,0,1.1328,submitButton,0.268272569,-0.351449653,0,0,0,1,13,73,53,1,69,69217,1,180,2022-02-24_15h26.02.054,orientation adjustment 1,2021.2.3,MacIntel,59.99880002,,,,,,,
,,,,,,,,,,,,,,,,,,,,,,71.11111111,-65,20,75,32.11111111,82.88888889,82.88888889,-57.88888889,0.226150174,-0.335225694,1,0,0,1.2,submitButton,0.318394097,-0.41062934,1,0,0,1,14,74,49,1,65,69217,1,180,2022-02-24_15h26.02.054,orientation adjustment 1,2021.2.3,MacIntel,59.99880002,pause_continueButton,,,,,,
,,,,,,,,,,,,,,,,,,,,,,-30,-46,20,75,-47,1,1,-137,0.232400174,-0.306501736,1,0,0,0.0819,submitButton,0.160759549,-0.266197917,0,0,0,1,15,75,30,1,46,69217,1,180,2022-02-24_15h26.02.054,orientation adjustment 1,2021.2.3,MacIntel,59.99880002,,,,,,,
,,,,,,,,,,,,,,,,,,,,,,-57.77777778,39,20,75,-18.77777778,57.77777778,57.77777778,-108.7777778,-0.271284722,-0.403307292,1,0,0,0.5825,submitButton,0.146970486,-0.352473958,0,0,0,1,16,76,23,1,39,69217,1,180,2022-02-24_15h26.02.054,orientation adjustment 1,2021.2.3,MacIntel,59.99880002,,,,,,,
,,,,,,,,,,,,,,,,,,,,,,71.11111111,63,20,75,219.1111111,23.88888889,23.88888889,129.1111111,0.193676215,-0.306853299,1,0,0,1.566,submitButton,0.284266493,-0.341150174,0,0,0,1,17,77,47,1,63,69217,1,180,2022-02-24_15h26.02.054,orientation adjustment 1,2021.2.3,MacIntel,59.99880002,,,,,,,
,,,,,,,,,,,,,,,,,,,,,,-58.33333333,58,20,75,56.66666667,1.333333333,1.333333333,-33.33333333,-0.223407118,-0.38266059,1,0,0,1.3159,submitButton,0.185633681,-0.334904514,0,0,0,1,18,78,42,1,58,69217,1,180,2022-02-24_15h26.02.054,orientation adjustment 1,2021.2.3,MacIntel,59.99880002,,,,,,,
,,,,,,,,,,,,,,,,,,,,,,75,31,20,75,237,26,26,147,-0.197161458,-0.373502604,1,0,0,2.7509,submitButton,0.074817708,-0.231901042,0,0,0,1,19,79,15,1,31,69217,1,180,2022-02-24_15h26.02.054,orientation adjustment 1,2021.2.3,MacIntel,59.99880002,,,,,,,
,,,,,,,,,,,,,,,,,,,,,,-53.33333333,20,20,75,39.66666667,19.66666667,19.66666667,-50.33333333,0.262165799,-0.317790799,1,0,0,0.6321,submitButton,0.21500434,-0.271167535,0,0,0,1,20,80,4,1,20,69217,1,180,2022-02-24_15h26.02.054,orientation adjustment 1,2021.2.3,MacIntel,59.99880002,,,,,,,
,,,,,,,,,,,,,,,,,,,,,,-25.55555556,30,20,75,25.44444444,4.555555556,4.555555556,-64.55555556,-0.145060764,-0.418815104,1,0,0,1.3152,submitButton,-0.093172743,-0.370264757,0,0,0,1,21,81,14,1,30,69217,1,180,2022-02-24_15h26.02.054,orientation adjustment 1,2021.2.3,MacIntel,59.99880002,,,,,,,
,,,,,,,,,,,,,,,,,,,,,,57.77777778,-51,20,75,20.77777778,71.77777778,71.77777778,-69.22222222,-0.216280382,-0.364097222,1,0,0,0.6328,submitButton,0.045269097,-0.349665799,0,0,0,1,22,82,35,1,51,69217,1,180,2022-02-24_15h26.02.054,orientation adjustment 1,2021.2.3,MacIntel,59.99880002,,,,,,,
,,,,,,,,,,,,,,,,,,,,,,73.33333333,-67,20,75,-35.66666667,31.33333333,31.33333333,-125.6666667,0.383007812,-0.297986111,1,0,0,0.568,submitButton,0.297309028,-0.250425347,0,0,0,1,23,83,51,1,67,69217,1,180,2022-02-24_15h26.02.054,orientation adjustment 1,2021.2.3,MacIntel,59.99880002,,,,,,,
,,,,,,,,,,,,,,,,,,,,,,-68.88888889,72,20,75,-46.88888889,61.11111111,61.11111111,-136.8888889,-0.186671007,-0.411514757,1,0,0,2.1667,submitButton,0.085824653,-0.302834201,0,0,0,1,24,84,56,1,72,69217,1,180,2022-02-24_15h26.02.054,orientation adjustment 1,2021.2.3,MacIntel,59.99880002,,,,,,,
,,,,,,,,,,,,,,,,,,,,,,-36.11111111,-64,20,75,-115.1111111,51.11111111,51.11111111,-205.1111111,0.398567708,-0.267209201,1,0,0,0.415,submitButton,-0.115394965,-0.402452257,0,0,0,1,25,85,48,1,64,69217,1,180,2022-02-24_15h26.02.054,orientation adjustment 1,2021.2.3,MacIntel,59.99880002,,,,,,,
,,,,,,,,,,,,,,,,,,,,,,57.77777778,49,20,75,122.7777778,73.77777778,73.77777778,32.77777778,0.181019965,-0.309348958,1,0,0,0.3158,submitButton,-0.136028646,-0.372178819,0,0,0,1,26,86,33,1,49,69217,1,180,2022-02-24_15h26.02.054,orientation adjustment 1,2021.2.3,MacIntel,59.99880002,,,,,,,
,,,,,,,,,,,,,,,,,,,,,,-20.55555556,71,20,75,50.44444444,20.55555556,20.55555556,-39.55555556,-0.16078125,-0.438342014,1,0,0,0.6844,submitButton,-0.206809896,-0.427721354,0,0,0,1,27,87,55,1,71,69217,1,180,2022-02-24_15h26.02.054,orientation adjustment 1,2021.2.3,MacIntel,59.99880002,,,,,,,
,,,,,,,,,,,,,,,,,,,,,,-31.11111111,-75,20,75,-106.1111111,31.11111111,31.11111111,-196.1111111,-0.142482639,-0.417122396,1,0,0,1.4322,submitButton,0.111345486,-0.391145833,0,0,0,1,28,88,59,1,75,69217,1,180,2022-02-24_15h26.02.054,orientation adjustment 1,2021.2.3,MacIntel,59.99880002,,,,,,,
,,,,,,,,,,,,,,,,,,,,,,-71.66666667,-44,20,75,-78.66666667,34.66666667,34.66666667,-168.6666667,-0.16391059,-0.373554687,1,0,0,1.5327,submitButton,0.235564236,-0.395177951,1,0,0,1,29,89,28,1,44,69217,1,180,2022-02-24_15h26.02.054,orientation adjustment 1,2021.2.3,MacIntel,59.99880002,pause_continueButton,,,,,,
,,,,,,,,,,,,,,,,,,,,,,-46.11111111,-66,20,75,-112.1111111,46.11111111,46.11111111,-202.1111111,-0.401184896,-0.407105035,1,0,0,0.7336,submitButton,0.318237847,-0.359939236,0,0,0,1,30,90,50,1,66,69217,1,180,2022-02-24_15h26.02.054,orientation adjustment 1,2021.2.3,MacIntel,59.99880002,,,,,,,
,,,,,,,,,,,,,,,,,,,,,,-41.66666667,55,20,75,109.3333333,54.33333333,54.33333333,19.33333333,-0.216757813,-0.371332465,1,0,0,2.3836,submitButton,-0.228489583,-0.414878472,0,0,0,1,31,91,39,1,55,69217,1,180,2022-02-24_15h26.02.054,orientation adjustment 1,2021.2.3,MacIntel,59.99880002,,,,,,,
,,,,,,,,,,,,,,,,,,,,,,35.55555556,16,20,75,-29.44444444,45.44444444,45.44444444,-119.4444444,0.443415799,-0.314188368,1,0,0,0.6662,submitButton,0.23483941,-0.345039062,0,0,0,1,32,92,0,1,16,69217,1,180,2022-02-24_15h26.02.054,orientation adjustment 1,2021.2.3,MacIntel,59.99880002,,,,,,,
,,,,,,,,,,,,,,,,,,,,,,-53.88888889,-61,20,75,-151.8888889,89.11111111,89.11111111,-241.8888889,0.378667535,-0.265598958,1,0,0,0.4151,submitButton,0.184574653,-0.269513889,0,0,0,1,33,93,45,1,61,69217,1,180,2022-02-24_15h26.02.054,orientation adjustment 1,2021.2.3,MacIntel,59.99880002,,,,,,,
,,,,,,,,,,,,,,,,,,,,,,-70.55555556,-23,20,75,-58.55555556,35.55555556,35.55555556,-148.5555556,0.223602431,-0.31141059,1,0,0,0.4012,submitButton,0.270052083,-0.307309028,0,0,0,1,34,94,7,1,23,69217,1,180,2022-02-24_15h26.02.054,orientation adjustment 1,2021.2.3,MacIntel,59.99880002,,,,,,,
,,,,,,,,,,,,,,,,,,,,,,57.22222222,-73,20,75,-15.77777778,57.22222222,57.22222222,-105.7777778,-0.311627604,-0.376440972,1,0,0,0.5996,submitButton,0.0153125,-0.280490451,0,0,0,1,35,95,57,1,73,69217,1,180,2022-02-24_15h26.02.054,orientation adjustment 1,2021.2.3,MacIntel,59.99880002,,,,,,,
,,,,,,,,,,,,,,,,,,,,,,-66.11111111,-24,20,75,-59.11111111,35.11111111,35.11111111,-149.1111111,-0.432960069,-0.387725694,1,0,0,1.1495,submitButton,0.217951389,-0.332217882,0,0,0,1,36,96,8,1,24,69217,1,180,2022-02-24_15h26.02.054,orientation adjustment 1,2021.2.3,MacIntel,59.99880002,,,,,,,
,,,,,,,,,,,,,,,,,,,,,,-58.33333333,-48,20,75,-38.33333333,9.666666667,9.666666667,-128.3333333,-0.263003472,-0.406979167,1,0,0,1.6512,submitButton,0.073229167,-0.354461806,0,0,0,1,37,97,32,1,48,69217,1,180,2022-02-24_15h26.02.054,orientation adjustment 1,2021.2.3,MacIntel,59.99880002,,,,,,,
,,,,,,,,,,,,,,,,,,,,,,66.66666667,-68,20,75,-30.33333333,37.66666667,37.66666667,-120.3333333,0.37421441,-0.263550347,1,0,0,0.4166,submitButton,0.184565972,-0.376549479,0,0,0,1,38,98,52,1,68,69217,1,180,2022-02-24_15h26.02.054,orientation adjustment 1,2021.2.3,MacIntel,59.99880002,,,,,,,
,,,,,,,,,,,,,,,,,,,,,,-57.77777778,22,20,75,-68.77777778,89.22222222,89.22222222,-158.7777778,-0.282916667,-0.369904514,1,0,0,1.0161,submitButton,-0.003680556,-0.395047743,0,0,0,1,39,99,6,1,22,69217,1,180,2022-02-24_15h26.02.054,orientation adjustment 1,2021.2.3,MacIntel,59.99880002,,,,,,,
,,,,,,,,,,,,,,,,,,,,,,-29.44444444,17,20,75,20.55555556,3.555555556,3.555555556,-69.44444444,-0.294140625,-0.406853299,1,0,0,1.1988,submitButton,-0.124913194,-0.431271701,0,0,0,1,40,100,1,1,17,69217,1,180,2022-02-24_15h26.02.054,orientation adjustment 1,2021.2.3,MacIntel,59.99880002,,,,,,,
,,,,,,,,,,,,,,,,,,,,,,-60.55555556,-45,20,75,-161.5555556,63.44444444,63.44444444,-251.5555556,0.358611111,-0.292378472,1,0,0,0.2325,submitButton,0.296553819,-0.364835069,0,0,0,1,41,101,29,1,45,69217,1,180,2022-02-24_15h26.02.054,orientation adjustment 1,2021.2.3,MacIntel,59.99880002,,,,,,,
,,,,,,,,,,,,,,,,,,,,,,43.88888889,59,20,75,135.8888889,76.88888889,76.88888889,45.88888889,0.168606771,-0.30875434,1,0,0,0.4148,submitButton,0.358059896,-0.254618056,0,0,0,1,42,102,43,1,59,69217,1,180,2022-02-24_15h26.02.054,orientation adjustment 1,2021.2.3,MacIntel,59.99880002,,,,,,,
,,,,,,,,,,,,,,,,,,,,,,-55,-56,20,75,-111,55,55,-201,-0.224366319,-0.39375434,1,0,0,0.5499,submitButton,0.196614583,-0.336961806,0,0,0,1,43,103,40,1,56,69217,1,180,2022-02-24_15h26.02.054,orientation adjustment 1,2021.2.3,MacIntel,59.99880002,,,,,,,
,,,,,,,,,,,,,,,,,,,,,,-45.55555556,70,20,75,-45.55555556,64.44444444,64.44444444,-135.5555556,0.34874566,-0.277521701,1,0,0,0.8515,submitButton,0.547087674,-0.417712674,1,0,0,1,44,104,54,1,70,69217,1,180,2022-02-24_15h26.02.054,orientation adjustment 1,2021.2.3,MacIntel,59.99880002,pause_continueButton,,,,,,
,,,,,,,,,,,,,,,,,,,,,,-63.88888889,74,20,75,39.11111111,34.88888889,34.88888889,-50.88888889,0.206306424,-0.314322917,1,0,0,0.5171,submitButton,0.188233507,-0.316423611,0,0,0,1,45,105,58,1,74,69217,1,180,2022-02-24_15h26.02.054,orientation adjustment 1,2021.2.3,MacIntel,59.99880002,,,,,,,
,,,,,,,,,,,,,,,,,,,,,,-27.22222222,40,20,75,50.77777778,10.77777778,10.77777778,-39.22222222,0.218585069,-0.308971354,1,0,0,0.5834,submitButton,-0.247126736,-0.400060764,0,0,0,1,46,106,24,1,40,69217,1,180,2022-02-24_15h26.02.054,orientation adjustment 1,2021.2.3,MacIntel,59.99880002,,,,,,,
,,,,,,,,,,,,,,,,,,,,,,-66.66666667,-62,20,75,-128.6666667,66.66666667,66.66666667,-218.6666667,-0.239431424,-0.404700521,1,0,0,0.6174,submitButton,0.367243924,-0.330438368,0,0,0,1,47,107,46,1,62,69217,1,180,2022-02-24_15h26.02.054,orientation adjustment 1,2021.2.3,MacIntel,59.99880002,,,,,,,
,,,,,,,,,,,,,,,,,,,,,,-65.55555556,-41,20,75,-227.5555556,6.555555556,6.555555556,-317.5555556,-0.280342882,-0.418038194,1,0,0,2.7663,submitButton,0.122291667,-0.361536458,0,0,0,1,48,108,25,1,41,69217,1,180,2022-02-24_15h26.02.054,orientation adjustment 1,2021.2.3,MacIntel,59.99880002,,,,,,,
,,,,,,,,,,,,,,,,,,,,,,-60,21,20,75,-39,60,60,-129,-0.278932292,-0.390416667,1,0,0,0.4834,submitButton,0.020399306,-0.275486111,0,0,0,1,49,109,5,1,21,69217,1,180,2022-02-24_15h26.02.054,orientation adjustment 1,2021.2.3,MacIntel,59.99880002,,,,,,,
,,,,,,,,,,,,,,,,,,,,,,-73.88888889,-60,20,75,-149.8888889,89.88888889,89.88888889,-239.8888889,0.346380208,-0.300863715,1,0,0,0.5494,submitButton,-0.038194444,-0.293819444,0,0,0,1,50,110,44,1,60,69217,1,180,2022-02-24_15h26.02.054,orientation adjustment 1,2021.2.3,MacIntel,59.99880002,,,,,,,
,,,,,,,,,,,,,,,,,,,,,,51.66666667,-36,20,75,71.66666667,72.33333333,72.33333333,-18.33333333,0.223502604,-0.311553819,1,0,0,0.0315,submitButton,0.046367187,-0.229748264,0,0,0,1,51,111,20,1,36,69217,1,180,2022-02-24_15h26.02.054,orientation adjustment 1,2021.2.3,MacIntel,59.99880002,,,,,,,
,,,,,,,,,,,,,,,,,,,,,,-69.44444444,19,20,75,-30.44444444,49.44444444,49.44444444,-120.4444444,0.164409722,-0.309474826,1,0,0,0.1985,submitButton,0.538424479,-0.337664931,0,0,0,1,52,112,3,1,19,69217,1,180,2022-02-24_15h26.02.054,orientation adjustment 1,2021.2.3,MacIntel,59.99880002,,,,,,,
,,,,,,,,,,,,,,,,,,,,,,-25.55555556,-32,20,75,33.44444444,65.44444444,65.44444444,-56.55555556,-0.227925347,-0.405603299,1,0,0,1.8672,submitButton,0.481571181,-0.307743056,0,0,0,1,53,113,16,1,32,69217,1,180,2022-02-24_15h26.02.054,orientation adjustment 1,2021.2.3,MacIntel,59.99880002,,,,,,,
,,,,,,,,,,,,,,,,,,,,,,26.66666667,53,20,75,-17.33333333,70.33333333,70.33333333,-107.3333333,-0.228411458,-0.392730035,1,0,0,2.1171,submitButton,0.23484375,-0.287092014,0,0,0,1,54,114,37,1,53,69217,1,180,2022-02-24_15h26.02.054,orientation adjustment 1,2021.2.3,MacIntel,59.99880002,,,,,,,
,,,,,,,,,,,,,,,,,,,,,,22.77777778,57,20,75,81.77777778,24.77777778,24.77777778,-8.222222222,0.220607639,-0.297335069,1,0,0,0.0166,submitButton,0.074040799,-0.270073785,0,0,0,1,55,115,41,1,57,69217,1,180,2022-02-24_15h26.02.054,orientation adjustment 1,2021.2.3,MacIntel,59.99880002,,,,,,,
,,,,,,,,,,,,,,,,,,,,,,-45,42,20,75,50,8,8,-40,-0.225894097,-0.426319444,1,0,0,1.6666,submitButton,0.069791667,-0.306571181,0,0,0,1,56,116,26,1,42,69217,1,180,2022-02-24_15h26.02.054,orientation adjustment 1,2021.2.3,MacIntel,59.99880002,,,,,,,
,,,,,,,,,,,,,,,,,,,,,,-25,25,20,75,44,19,19,-46,0.219136285,-0.283967014,1,0,0,0.0657,submitButton,-0.193802083,-0.381232639,0,0,0,1,57,117,9,1,25,69217,1,180,2022-02-24_15h26.02.054,orientation adjustment 1,2021.2.3,MacIntel,59.99880002,,,,,,,
,,,,,,,,,,,,,,,,,,,,,,-21.66666667,-37,20,75,24.33333333,61.33333333,61.33333333,-65.66666667,0.177734375,-0.278324653,1,0,0,0.1664,submitButton,0.427855903,-0.32530816,0,0,0,1,58,118,21,1,37,69217,1,180,2022-02-24_15h26.02.054,orientation adjustment 1,2021.2.3,MacIntel,59.99880002,,,,,,,
,,,,,,,,,,,,,,,,,,,,,,58.88888889,-38,20,75,-31.11111111,6.888888889,6.888888889,-121.1111111,-0.262960069,-0.349565972,1,0,0,1.784,submitButton,0.410217014,-0.412907986,1,0,0,1,59,119,22,1,38,69217,1,180,2022-02-24_15h26.02.054,orientation adjustment 1,2021.2.3,MacIntel,59.99880002,pause_continueButton,,,,,,
,,,,,,,,,,,,,,,,,,,,,,67.77777778,-38,20,75,29.77777778,67.77777778,67.77777778,-60.22222222,-0.143849826,-0.383077257,1,0,0,1.5336,submitButton,0.431640625,-0.311111111,0,0,0,2,0,120,22,1,38,69217,1,180,2022-02-24_15h26.02.054,orientation adjustment 1,2021.2.3,MacIntel,59.99880002,,,,,,,
,,,,,,,,,,,,,,,,,,,,,,-30.55555556,28,20,75,-30.55555556,58.55555556,58.55555556,-120.5555556,-0.287356771,-0.444947917,1,0,0,0.7156,submitButton,0.183394097,-0.226284722,0,0,0,2,1,121,12,1,28,69217,1,180,2022-02-24_15h26.02.054,orientation adjustment 1,2021.2.3,MacIntel,59.99880002,,,,,,,
,,,,,,,,,,,,,,,,,,,,,,41.66666667,30,20,75,34.66666667,4.666666667,4.666666667,-55.33333333,0.385186632,-0.290086806,1,0,0,0.3322,submitButton,0.214835069,-0.254171007,0,0,0,2,2,122,14,1,30,69217,1,180,2022-02-24_15h26.02.054,orientation adjustment 1,2021.2.3,MacIntel,59.99880002,,,,,,,
,,,,,,,,,,,,,,,,,,,,,,38.88888889,73,20,75,215.8888889,37.11111111,37.11111111,125.8888889,0.205755208,-0.292113715,1,0,0,0.1832,submitButton,0.257204861,-0.30765625,0,0,0,2,3,123,57,1,73,69217,1,180,2022-02-24_15h26.02.054,orientation adjustment 1,2021.2.3,MacIntel,59.99880002,,,,,,,
,,,,,,,,,,,,,,,,,,,,,,-63.88888889,59,20,75,68.11111111,9.111111111,9.111111111,-21.88888889,-0.294492188,-0.404157986,1,0,0,1.8683,submitButton,-0.040386285,-0.24046441,0,0,0,2,4,124,43,1,59,69217,1,180,2022-02-24_15h26.02.054,orientation adjustment 1,2021.2.3,MacIntel,59.99880002,,,,,,,
,,,,,,,,,,,,,,,,,,,,,,37.77777778,-72,20,75,46.77777778,61.22222222,61.22222222,-43.22222222,0.198407118,-0.285915799,1,0,0,0.9008,submitButton,0.368229167,-0.32531684,0,0,0,2,5,125,56,1,72,69217,1,180,2022-02-24_15h26.02.054,orientation adjustment 1,2021.2.3,MacIntel,59.99880002,,,,,,,
,,,,,,,,,,,,,,,,,,,,,,-63.88888889,68,20,75,-69.88888889,42.11111111,42.11111111,-159.8888889,0.364084201,-0.305902778,1,0,0,1.1837,submitButton,-0.17734809,-0.329926215,0,0,0,2,6,126,52,1,68,69217,1,180,2022-02-24_15h26.02.054,orientation adjustment 1,2021.2.3,MacIntel,59.99880002,,,,,,,
,,,,,,,,,,,,,,,,,,,,,,-71.11111111,-26,20,75,-97.11111111,71.11111111,71.11111111,-187.1111111,-0.208194444,-0.389726562,1,0,0,0.9004,submitButton,0.294127604,-0.334401042,0,0,0,2,7,127,10,1,26,69217,1,180,2022-02-24_15h26.02.054,orientation adjustment 1,2021.2.3,MacIntel,59.99880002,,,,,,,
,,,,,,,,,,,,,,,,,,,,,,-23.88888889,74,20,75,144.1111111,70.11111111,70.11111111,54.11111111,0.200967882,-0.309991319,1,0,0,0.0339,submitButton,0.387734375,-0.291631944,0,0,0,2,8,128,58,1,74,69217,1,180,2022-02-24_15h26.02.054,orientation adjustment 1,2021.2.3,MacIntel,59.99880002,,,,,,,
,,,,,,,,,,,,,,,,,,,,,,-66.11111111,32,20,75,-119.1111111,28.88888889,28.88888889,-209.1111111,-0.258615451,-0.388532986,1,0,0,2.7344,submitButton,0.202547743,-0.34141059,0,0,0,2,9,129,16,1,32,69217,1,180,2022-02-24_15h26.02.054,orientation adjustment 1,2021.2.3,MacIntel,59.99880002,,,,,,,
,,,,,,,,,,,,,,,,,,,,,,-63.88888889,-67,20,75,-130.8888889,63.88888889,63.88888889,-220.8888889,-0.280438368,-0.409500868,1,0,0,0.6323,submitButton,0.218038194,-0.244717882,0,0,0,2,10,130,51,1,67,69217,1,180,2022-02-24_15h26.02.054,orientation adjustment 1,2021.2.3,MacIntel,59.99880002,,,,,,,
,,,,,,,,,,,,,,,,,,,,,,36.66666667,41,20,75,129.6666667,88.66666667,88.66666667,39.66666667,-0.170646701,-0.420073785,1,0,0,1.6169,submitButton,0.209657118,-0.263849826,0,0,0,2,11,131,25,1,41,69217,1,180,2022-02-24_15h26.02.054,orientation adjustment 1,2021.2.3,MacIntel,59.99880002,,,,,,,
,,,,,,,,,,,,,,,,,,,,,,38.33333333,58,20,75,36.33333333,21.66666667,21.66666667,-53.66666667,0.416349826,-0.295429687,1,0,0,0.0485,submitButton,0.316210938,-0.276371528,0,0,0,2,12,132,42,1,58,69217,1,180,2022-02-24_15h26.02.054,orientation adjustment 1,2021.2.3,MacIntel,59.99880002,,,,,,,
,,,,,,,,,,,,,,,,,,,,,,-38.88888889,24,20,75,34.11111111,10.11111111,10.11111111,-55.88888889,0.364913194,-0.306206597,1,0,0,1.1819,submitButton,0.146306424,-0.304544271,0,0,0,2,13,133,8,1,24,69217,1,180,2022-02-24_15h26.02.054,orientation adjustment 1,2021.2.3,MacIntel,59.99880002,,,,,,,
,,,,,,,,,,,,,,,,,,,,,,37.77777778,34,20,75,28.77777778,5.222222222,5.222222222,-61.22222222,0.404318576,-0.310555556,1,0,0,0.9672,submitButton,0.494826389,-0.419796007,1,0,0,2,14,134,18,1,34,69217,1,180,2022-02-24_15h26.02.054,orientation adjustment 1,2021.2.3,MacIntel,59.99880002,pause_continueButton,,,,,,
,,,,,,,,,,,,,,,,,,,,,,47.22222222,63,20,75,208.2222222,34.77777778,34.77777778,118.2222222,0.390798611,-0.281019965,1,0,0,0.6326,submitButton,-0.014162326,-0.324583333,0,0,0,2,15,135,47,1,63,69217,1,180,2022-02-24_15h26.02.054,orientation adjustment 1,2021.2.3,MacIntel,59.99880002,,,,,,,
,,,,,,,,,,,,,,,,,,,,,,-26.11111111,19,20,75,52.88888889,33.88888889,33.88888889,-37.11111111,-0.296905382,-0.417591146,1,0,0,2.3993,submitButton,0.206263021,-0.239301215,0,0,0,2,16,136,3,1,19,69217,1,180,2022-02-24_15h26.02.054,orientation adjustment 1,2021.2.3,MacIntel,59.99880002,,,,,,,
,,,,,,,,,,,,,,,,,,,,,,52.22222222,-42,20,75,10.22222222,52.22222222,52.22222222,-79.77777778,-0.21672309,-0.408697917,1,0,0,0.833,submitButton,0.08671875,-0.325998264,0,0,0,2,17,137,26,1,42,69217,1,180,2022-02-24_15h26.02.054,orientation adjustment 1,2021.2.3,MacIntel,59.99880002,,,,,,,
,,,,,,,,,,,,,,,,,,,,,,-63.33333333,75,20,75,-37.33333333,67.66666667,67.66666667,-127.3333333,0.222951389,-0.299492188,1,0,0,2.0664,submitButton,0.406384549,-0.22562066,0,0,0,2,18,138,59,1,75,69217,1,180,2022-02-24_15h26.02.054,orientation adjustment 1,2021.2.3,MacIntel,59.99880002,,,,,,,
,,,,,,,,,,,,,,,,,,,,,,30,55,20,75,66,11,11,-24,0.416896701,-0.304887153,1,0,0,0.1337,submitButton,-0.151831597,-0.415768229,0,0,0,2,19,139,39,1,55,69217,1,180,2022-02-24_15h26.02.054,orientation adjustment 1,2021.2.3,MacIntel,59.99880002,,,,,,,
,,,,,,,,,,,,,,,,,,,,,,40,-45,20,75,-5,40,40,-95,-0.25765191,-0.369644097,1,0,0,1.4668,submitButton,-0.263246528,-0.41500434,0,0,0,2,20,140,29,1,45,69217,1,180,2022-02-24_15h26.02.054,orientation adjustment 1,2021.2.3,MacIntel,59.99880002,,,,,,,
,,,,,,,,,,,,,,,,,,,,,,-55,21,20,75,-34,55,55,-124,-0.197547743,-0.416480035,1,0,0,0.7315,submitButton,-0.177821181,-0.403524306,0,0,0,2,21,141,5,1,21,69217,1,180,2022-02-24_15h26.02.054,orientation adjustment 1,2021.2.3,MacIntel,59.99880002,,,,,,,
,,,,,,,,,,,,,,,,,,,,,,-47.22222222,47,20,75,29.77777778,17.22222222,17.22222222,-60.22222222,0.233632813,-0.315138889,1,0,0,0.3499,submitButton,0.263133681,-0.331961806,0,0,0,2,22,142,31,1,47,69217,1,180,2022-02-24_15h26.02.054,orientation adjustment 1,2021.2.3,MacIntel,59.99880002,,,,,,,
,,,,,,,,,,,,,,,,,,,,,,-37.77777778,-43,20,75,33.22222222,76.22222222,76.22222222,-56.77777778,0.176085069,-0.300529514,1,0,0,0.933,submitButton,0.098272569,-0.33437934,0,0,0,2,23,143,27,1,43,69217,1,180,2022-02-24_15h26.02.054,orientation adjustment 1,2021.2.3,MacIntel,59.99880002,,,,,,,
,,,,,,,,,,,,,,,,,,,,,,-57.77777778,-64,20,75,-214.7777778,29.22222222,29.22222222,-304.7777778,-0.20671875,-0.390998264,1,0,0,2.1992,submitButton,0.411323785,-0.276345486,0,0,0,2,24,144,48,1,64,69217,1,180,2022-02-24_15h26.02.054,orientation adjustment 1,2021.2.3,MacIntel,59.99880002,,,,,,,
,,,,,,,,,,,,,,,,,,,,,,-47.77777778,29,20,75,-61.77777778,89.22222222,89.22222222,-151.7777778,-0.181289062,-0.425907118,1,0,0,1.5,submitButton,0.208450521,-0.336432292,0,0,0,2,25,145,13,1,29,69217,1,180,2022-02-24_15h26.02.054,orientation adjustment 1,2021.2.3,MacIntel,59.99880002,,,,,,,
,,,,,,,,,,,,,,,,,,,,,,-74.44444444,-39,20,75,27.55555556,66.55555556,66.55555556,-62.44444444,-0.214461806,-0.404166667,1,0,0,2.8326,submitButton,0.431284722,-0.271623264,0,0,0,2,26,146,23,1,39,69217,1,180,2022-02-24_15h26.02.054,orientation adjustment 1,2021.2.3,MacIntel,59.99880002,,,,,,,
,,,,,,,,,,,,,,,,,,,,,,51.66666667,71,20,75,122.6666667,51.66666667,51.66666667,32.66666667,-0.175403646,-0.40875,1,0,0,0.7659,submitButton,-0.038168403,-0.393498264,0,0,0,2,27,147,55,1,71,69217,1,180,2022-02-24_15h26.02.054,orientation adjustment 1,2021.2.3,MacIntel,59.99880002,,,,,,,
,,,,,,,,,,,,,,,,,,,,,,68.88888889,-33,20,75,42.88888889,75.88888889,75.88888889,-47.11111111,0.219244792,-0.329496528,1,0,0,0.5661,submitButton,-0.067751736,-0.356931424,0,0,0,2,28,148,17,1,33,69217,1,180,2022-02-24_15h26.02.054,orientation adjustment 1,2021.2.3,MacIntel,59.99880002,,,,,,,
,,,,,,,,,,,,,,,,,,,,,,-42.22222222,-22,20,75,-64.22222222,42.22222222,42.22222222,-154.2222222,-0.129657118,-0.432222222,1,0,0,0.9333,submitButton,0.338381076,-0.396341146,1,0,0,2,29,149,6,1,22,69217,1,180,2022-02-24_15h26.02.054,orientation adjustment 1,2021.2.3,MacIntel,59.99880002,pause_continueButton,,,,,,
,,,,,,,,,,,,,,,,,,,,,,-50,20,20,75,-30,50,50,-120,-0.285447049,-0.405256076,1,0,0,0.9167,submitButton,0.267330729,-0.38984375,0,0,0,2,30,150,4,1,20,69217,1,180,2022-02-24_15h26.02.054,orientation adjustment 1,2021.2.3,MacIntel,59.99880002,,,,,,,
,,,,,,,,,,,,,,,,,,,,,,-55,69,20,75,14,55,55,-76,-0.242330729,-0.415269097,1,0,0,0.4501,submitButton,-0.111371528,-0.417296007,0,0,0,2,31,151,53,1,69,69217,1,180,2022-02-24_15h26.02.054,orientation adjustment 1,2021.2.3,MacIntel,59.99880002,,,,,,,
,,,,,,,,,,,,,,,,,,,,,,38.88888889,46,20,75,84.88888889,38.88888889,38.88888889,-5.111111111,-0.235828993,-0.431770833,1,0,0,0.7317,submitButton,-0.210221354,-0.392795139,0,0,0,2,32,152,30,1,46,69217,1,180,2022-02-24_15h26.02.054,orientation adjustment 1,2021.2.3,MacIntel,59.99880002,,,,,,,
,,,,,,,,,,,,,,,,,,,,,,-54.44444444,40,20,75,35.55555556,4.444444444,4.444444444,-54.44444444,0.371753472,-0.270525174,1,0,0,0.5503,submitButton,0.145342882,-0.434192708,0,0,0,2,33,153,24,1,40,69217,1,180,2022-02-24_15h26.02.054,orientation adjustment 1,2021.2.3,MacIntel,59.99880002,,,,,,,
,,,,,,,,,,,,,,,,,,,,,,-68.88888889,57,20,75,35.11111111,21.88888889,21.88888889,-54.88888889,0.23359809,-0.322356771,1,0,0,0.8826,submitButton,-0.0275,-0.346909722,0,0,0,2,34,154,41,1,57,69217,1,180,2022-02-24_15h26.02.054,orientation adjustment 1,2021.2.3,MacIntel,59.99880002,,,,,,,
,,,,,,,,,,,,,,,,,,,,,,62.77777778,70,20,75,219.7777778,30.22222222,30.22222222,129.7777778,0.221375868,-0.29062066,1,0,0,0.8835,submitButton,-0.140225694,-0.370277778,0,0,0,2,35,155,54,1,70,69217,1,180,2022-02-24_15h26.02.054,orientation adjustment 1,2021.2.3,MacIntel,59.99880002,,,,,,,
,,,,,,,,,,,,,,,,,,,,,,67.77777778,-44,20,75,53.77777778,82.22222222,82.22222222,-36.22222222,-0.181384549,-0.396649306,1,0,0,1.0339,submitButton,0.158077257,-0.309648437,0,0,0,2,36,156,28,1,44,69217,1,180,2022-02-24_15h26.02.054,orientation adjustment 1,2021.2.3,MacIntel,59.99880002,,,,,,,
,,,,,,,,,,,,,,,,,,,,,,26.66666667,62,20,75,-37.33333333,80.66666667,80.66666667,-127.3333333,-0.104552951,-0.39656684,1,0,0,2.4659,submitButton,0.271905382,-0.36265191,0,0,0,2,37,157,46,1,62,69217,1,180,2022-02-24_15h26.02.054,orientation adjustment 1,2021.2.3,MacIntel,59.99880002,,,,,,,
,,,,,,,,,,,,,,,,,,,,,,37.22222222,-17,20,75,59.22222222,76.22222222,76.22222222,-30.77777778,0.235881076,-0.316111111,1,0,0,0.1669,submitButton,0.153346354,-0.410282118,0,0,0,2,38,158,1,1,17,69217,1,180,2022-02-24_15h26.02.054,orientation adjustment 1,2021.2.3,MacIntel,59.99880002,,,,,,,
,,,,,,,,,,,,,,,,,,,,,,-69.44444444,-25,20,75,-197.4444444,7.555555556,7.555555556,-287.4444444,0.406657986,-0.292899306,1,0,0,0.0148,submitButton,0.052526042,-0.376831597,0,0,0,2,39,159,9,1,25,69217,1,180,2022-02-24_15h26.02.054,orientation adjustment 1,2021.2.3,MacIntel,59.99880002,,,,,,,
,,,,,,,,,,,,,,,,,,,,,,-54.44444444,56,20,75,-29.44444444,85.44444444,85.44444444,-119.4444444,-0.220321181,-0.396835938,1,0,0,0.8673,submitButton,0.225377604,-0.376601562,0,0,0,2,40,160,40,1,56,69217,1,180,2022-02-24_15h26.02.054,orientation adjustment 1,2021.2.3,MacIntel,59.99880002,,,,,,,
,,,,,,,,,,,,,,,,,,,,,,-56.11111111,23,20,75,52.88888889,29.88888889,29.88888889,-37.11111111,0.169952257,-0.334635417,1,0,0,0.1334,submitButton,-0.130021701,-0.421488715,0,0,0,2,41,161,7,1,23,69217,1,180,2022-02-24_15h26.02.054,orientation adjustment 1,2021.2.3,MacIntel,59.99880002,,,,,,,
,,,,,,,,,,,,,,,,,,,,,,52.77777778,36,20,75,204.7777778,11.22222222,11.22222222,114.7777778,0.220373264,-0.323263889,1,0,0,0.2495,submitButton,0.026328125,-0.262782118,0,0,0,2,42,162,20,1,36,69217,1,180,2022-02-24_15h26.02.054,orientation adjustment 1,2021.2.3,MacIntel,59.99880002,,,,,,,
,,,,,,,,,,,,,,,,,,,,,,50,-61,20,75,36,83,83,-54,-0.332799479,-0.4059375,1,0,0,1.2333,submitButton,-0.32765191,-0.408498264,0,0,0,2,43,163,45,1,61,69217,1,180,2022-02-24_15h26.02.054,orientation adjustment 1,2021.2.3,MacIntel,59.99880002,,,,,,,
,,,,,,,,,,,,,,,,,,,,,,-60,-53,20,75,-130,77,77,-220,0.168836806,-0.306940104,1,0,0,0.8991,submitButton,0.536948785,-0.403424479,1,0,0,2,44,164,37,1,53,69217,1,180,2022-02-24_15h26.02.054,orientation adjustment 1,2021.2.3,MacIntel,59.99880002,pause_continueButton,,,,,,
,,,,,,,,,,,,,,,,,,,,,,29.44444444,37,20,75,66.44444444,29.44444444,29.44444444,-23.55555556,-0.322608507,-0.397378472,1,0,0,1.2003,submitButton,0.167256944,-0.355876736,0,0,0,2,45,165,21,1,37,69217,1,180,2022-02-24_15h26.02.054,orientation adjustment 1,2021.2.3,MacIntel,59.99880002,,,,,,,
,,,,,,,,,,,,,,,,,,,,,,-26.66666667,60,20,75,33.33333333,26.66666667,26.66666667,-56.66666667,-0.255065104,-0.424361979,1,0,0,0.4171,submitButton,-0.227118056,-0.383190104,0,0,0,2,46,166,44,1,60,69217,1,180,2022-02-24_15h26.02.054,orientation adjustment 1,2021.2.3,MacIntel,59.99880002,,,,,,,
,,,,,,,,,,,,,,,,,,,,,,45.55555556,-35,20,75,37.55555556,72.55555556,72.55555556,-52.44444444,-0.145243056,-0.384071181,1,0,0,1.2001,submitButton,0.415559896,-0.351888021,0,0,0,2,47,167,19,1,35,69217,1,180,2022-02-24_15h26.02.054,orientation adjustment 1,2021.2.3,MacIntel,59.99880002,,,,,,,
,,,,,,,,,,,,,,,,,,,,,,-43.88888889,-27,20,75,-70.88888889,43.88888889,43.88888889,-160.8888889,-0.215030382,-0.417669271,1,0,0,0.7328,submitButton,-0.215030382,-0.417669271,0,0,0,2,48,168,11,1,27,69217,1,180,2022-02-24_15h26.02.054,orientation adjustment 1,2021.2.3,MacIntel,59.99880002,,,,,,,
,,,,,,,,,,,,,,,,,,,,,,58.33333333,-65,20,75,-6.666666667,58.33333333,58.33333333,-96.66666667,-0.22312066,-0.423420139,1,0,0,0.4828,submitButton,-0.201592882,-0.426271701,0,0,0,2,49,169,49,1,65,69217,1,180,2022-02-24_15h26.02.054,orientation adjustment 1,2021.2.3,MacIntel,59.99880002,,,,,,,
,,,,,,,,,,,,,,,,,,,,,,-35.55555556,18,20,75,-29.55555556,47.55555556,47.55555556,-119.5555556,0.351349826,-0.276475694,1,0,0,0.9501,submitButton,-0.252144097,-0.426197917,0,0,0,2,50,170,2,1,18,69217,1,180,2022-02-24_15h26.02.054,orientation adjustment 1,2021.2.3,MacIntel,59.99880002,,,,,,,
,,,,,,,,,,,,,,,,,,,,,,-31.11111111,-52,20,75,22.88888889,74.88888889,74.88888889,-67.11111111,-0.201540799,-0.393680556,1,0,0,2.4324,submitButton,-0.083532986,-0.302161458,0,0,0,2,51,171,36,1,52,69217,1,180,2022-02-24_15h26.02.054,orientation adjustment 1,2021.2.3,MacIntel,59.99880002,,,,,,,
,,,,,,,,,,,,,,,,,,,,,,36.11111111,51,20,75,-44.88888889,84.11111111,84.11111111,-134.8888889,0.381197917,-0.276731771,1,0,0,0.0489,submitButton,0.344210069,-0.387087674,0,0,0,2,52,172,35,1,51,69217,1,180,2022-02-24_15h26.02.054,orientation adjustment 1,2021.2.3,MacIntel,59.99880002,,,,,,,
,,,,,,,,,,,,,,,,,,,,,,-43.88888889,16,20,75,39.11111111,23.11111111,23.11111111,-50.88888889,-0.148289931,-0.424357639,1,0,0,1.5669,submitButton,-0.146584201,-0.427508681,0,0,0,2,53,173,0,1,16,69217,1,180,2022-02-24_15h26.02.054,orientation adjustment 1,2021.2.3,MacIntel,59.99880002,,,,,,,
,,,,,,,,,,,,,,,,,,,,,,60.55555556,54,20,75,114.5555556,60.55555556,60.55555556,24.55555556,-0.186106771,-0.445321181,1,0,0,1.55,submitButton,0.172552083,-0.346445312,0,0,0,2,54,174,38,1,54,69217,1,180,2022-02-24_15h26.02.054,orientation adjustment 1,2021.2.3,MacIntel,59.99880002,,,,,,,
,,,,,,,,,,,,,,,,,,,,,,-74.44444444,49,20,75,44.55555556,4.444444444,4.444444444,-45.44444444,-0.096267361,-0.407361111,1,0,0,1.7838,submitButton,0.094049479,-0.371024306,0,0,0,2,55,175,33,1,49,69217,1,180,2022-02-24_15h26.02.054,orientation adjustment 1,2021.2.3,MacIntel,59.99880002,,,,,,,
,,,,,,,,,,,,,,,,,,,,,,-33.33333333,50,20,75,36.66666667,13.33333333,13.33333333,-53.33333333,0.189166667,-0.317278646,1,0,0,0.3153,submitButton,-0.062439236,-0.41687934,0,0,0,2,56,176,34,1,50,69217,1,180,2022-02-24_15h26.02.054,orientation adjustment 1,2021.2.3,MacIntel,59.99880002,,,,,,,
,,,,,,,,,,,,,,,,,,,,,,-25.55555556,66,20,75,40.44444444,25.55555556,25.55555556,-49.55555556,-0.277569444,-0.399943576,1,0,0,0.3325,submitButton,-0.004001736,-0.287131076,0,0,0,2,57,177,50,1,66,69217,1,180,2022-02-24_15h26.02.054,orientation adjustment 1,2021.2.3,MacIntel,59.99880002,,,,,,,
,,,,,,,,,,,,,,,,,,,,,,-62.77777778,31,20,75,64.22222222,33.22222222,33.22222222,-25.77777778,-0.337690972,-0.375091146,1,0,0,3.0169,submitButton,-0.234557292,-0.329609375,0,0,0,2,58,178,15,1,31,69217,1,180,2022-02-24_15h26.02.054,orientation adjustment 1,2021.2.3,MacIntel,59.99880002,,,,,,,
,,,,,,,,,,,,,,,,,,,,,,54.44444444,48,20,75,127.4444444,79.44444444,79.44444444,37.44444444,0.209804688,-0.303359375,1,0,0,0.216,submitButton,-0.184722222,-0.416484375,0,0,0,2,59,179,32,1,48,69217,1,180,2022-02-24_15h26.02.054,orientation adjustment 1,2021.2.3,MacIntel,59.99880002,,,,,,,
,,,,,,,,,,,,,,,,,,,,,,,,,,,,,,,,,,,,,,,,,,,,,,,,69217,1,180,2022-02-24_15h26.02.054,orientation adjustment 1,2021.2.3,MacIntel,59.99880002,,0.317708333,-0.403676215,1,0,0,EndButtonTxt
