consentMouse1.x,consentMouse1.y,consentMouse1.leftButton,consentMouse1.midButton,consentMouse1.rightButton,consentMouse1.clicked_name,consent_Mouse.x,consent_Mouse.y,consent_Mouse.leftButton,consent_Mouse.midButton,consent_Mouse.rightButton,consent_Mouse.clicked_name,startMouse.x,startMouse.y,startMouse.leftButton,startMouse.midButton,startMouse.rightButton,startMouse_2.x,startMouse_2.y,startMouse_2.leftButton,startMouse_2.midButton,startMouse_2.rightButton,start_distance,fixedOri,minimalDistance,maxOri,this_ori,accuracy,presented_accuracy,presented_this_ori,submitMouse.x,submitMouse.y,submitMouse.leftButton,submitMouse.midButton,submitMouse.rightButton,submitMouse.time,submitMouse.clicked_name,pauseMouse.x,pauseMouse.y,pauseMouse.leftButton,pauseMouse.midButton,pauseMouse.rightButton,trials.thisRepN,trials.thisTrialN,trials.thisN,trials.thisIndex,trials.ran,startOri,participant,condition,nTrials,date,expName,psychopyVersion,OS,frameRate,pauseMouse.clicked_name,EndButtonMouse.x,EndButtonMouse.y,EndButtonMouse.leftButton,EndButtonMouse.midButton,EndButtonMouse.rightButton,EndButtonMouse.clicked_name
0.356481519,-0.403703731,1,0,0,consent_button1,0.400925964,-0.400925953,1,0,0,consent_button,0.226851885,-0.250925948,1,0,0,0.176851884,-0.357407489,1,0,0,-68.88888889,-47,20,75,-115.8888889,68.88888889,68.88888889,-205.8888889,-0.332407391,-0.416666694,1,0,0,7.5191,submitButton,-0.332407391,-0.416666694,0,0,0,0,0,0,31,1,47,67060,1,180,2022-02-11_15h07.55.815,orientation adjustment 1,2021.2.3,Win32,59.89099838,,,,,,,
,,,,,,,,,,,,,,,,,,,,,,-37.22222222,-55,20,75,-92.22222222,37.22222222,37.22222222,-182.2222222,-0.332407391,-0.416666694,1,0,0,4.7339,submitButton,-0.332407391,-0.416666694,0,0,0,0,1,1,39,1,55,67060,1,180,2022-02-11_15h07.55.815,orientation adjustment 1,2021.2.3,Win32,59.89099838,,,,,,,
,,,,,,,,,,,,,,,,,,,,,,-45,-61,20,75,-106,45,45,-196,-0.332407391,-0.416666694,1,0,0,2.7449,submitButton,-0.332407391,-0.416666694,0,0,0,0,2,2,45,1,61,67060,1,180,2022-02-11_15h07.55.815,orientation adjustment 1,2021.2.3,Win32,59.89099838,,,,,,,
,,,,,,,,,,,,,,,,,,,,,,-20.55555556,-30,20,75,-50.55555556,20.55555556,20.55555556,-140.5555556,-0.332407391,-0.416666694,1,0,0,2.3691,submitButton,-0.332407391,-0.416666694,0,0,0,0,3,3,14,1,30,67060,1,180,2022-02-11_15h07.55.815,orientation adjustment 1,2021.2.3,Win32,59.89099838,,,,,,,
,,,,,,,,,,,,,,,,,,,,,,28.88888889,-34,20,75,-5.111111111,28.88888889,28.88888889,-95.11111111,-0.332407391,-0.416666694,1,0,0,2.4365,submitButton,-0.332407391,-0.416666694,0,0,0,0,4,4,18,1,34,67060,1,180,2022-02-11_15h07.55.815,orientation adjustment 1,2021.2.3,Win32,59.89099838,,,,,,,
,,,,,,,,,,,,,,,,,,,,,,37.77777778,-29,20,75,8.777777778,37.77777778,37.77777778,-81.22222222,-0.332407391,-0.416666694,1,0,0,0.6203,submitButton,-0.332407391,-0.416666694,0,0,0,0,5,5,13,1,29,67060,1,180,2022-02-11_15h07.55.815,orientation adjustment 1,2021.2.3,Win32,59.89099838,,,,,,,
,,,,,,,,,,,,,,,,,,,,,,-28.88888889,-75,20,75,-103.8888889,28.88888889,28.88888889,-193.8888889,-0.332407391,-0.416666694,1,0,0,1.7573,submitButton,-0.332407391,-0.416666694,0,0,0,0,6,6,59,1,75,67060,1,180,2022-02-11_15h07.55.815,orientation adjustment 1,2021.2.3,Win32,59.89099838,,,,,,,
,,,,,,,,,,,,,,,,,,,,,,74.44444444,-43,20,75,31.44444444,74.44444444,74.44444444,-58.55555556,-0.332407391,-0.416666694,1,0,0,2.6341,submitButton,-0.332407391,-0.416666694,0,0,0,0,7,7,27,1,43,67060,1,180,2022-02-11_15h07.55.815,orientation adjustment 1,2021.2.3,Win32,59.89099838,,,,,,,
,,,,,,,,,,,,,,,,,,,,,,29.44444444,70,20,75,99.44444444,29.44444444,29.44444444,9.444444444,-0.332407391,-0.416666694,1,0,0,1.708,submitButton,-0.332407391,-0.416666694,0,0,0,0,8,8,54,1,70,67060,1,180,2022-02-11_15h07.55.815,orientation adjustment 1,2021.2.3,Win32,59.89099838,,,,,,,
,,,,,,,,,,,,,,,,,,,,,,38.33333333,20,20,75,58.33333333,38.33333333,38.33333333,-31.66666667,-0.332407391,-0.416666694,1,0,0,0.5328,submitButton,-0.332407391,-0.416666694,0,0,0,0,9,9,4,1,20,67060,1,180,2022-02-11_15h07.55.815,orientation adjustment 1,2021.2.3,Win32,59.89099838,,,,,,,
,,,,,,,,,,,,,,,,,,,,,,55.55555556,41,20,75,143.5555556,77.44444444,77.44444444,53.55555556,0.212962996,-0.281481505,1,0,0,3.8524,submitButton,0.375000038,-0.311111135,0,0,0,0,10,10,25,1,41,67060,1,180,2022-02-11_15h07.55.815,orientation adjustment 1,2021.2.3,Win32,59.89099838,,,,,,,
,,,,,,,,,,,,,,,,,,,,,,-55.55555556,68,20,75,54.44444444,13.55555556,13.55555556,-35.55555556,0.199074106,-0.307407488,1,0,0,0.2104,submitButton,0.293518554,-0.29166669,0,0,0,0,11,11,52,1,68,67060,1,180,2022-02-11_15h07.55.815,orientation adjustment 1,2021.2.3,Win32,59.89099838,,,,,,,
,,,,,,,,,,,,,,,,,,,,,,-52.77777778,-42,20,75,-62.77777778,20.77777778,20.77777778,-152.7777778,0.222222255,-0.30092595,1,0,0,4.2434,submitButton,0.425000039,-0.325000025,0,0,0,0,12,12,26,1,42,67060,1,180,2022-02-11_15h07.55.815,orientation adjustment 1,2021.2.3,Win32,59.89099838,,,,,,,
,,,,,,,,,,,,,,,,,,,,,,-28.33333333,-39,20,75,-107.3333333,68.33333333,68.33333333,-197.3333333,0.387037075,-0.310185266,1,0,0,1.0902,submitButton,0.28518522,-0.356481507,0,0,0,0,13,13,23,1,39,67060,1,180,2022-02-11_15h07.55.815,orientation adjustment 1,2021.2.3,Win32,59.89099838,,,,,,,
,,,,,,,,,,,,,,,,,,,,,,33.33333333,-53,20,75,-4.666666667,48.33333333,48.33333333,-94.66666667,0.203703736,-0.296296377,1,0,0,0.5171,submitButton,0.310185221,-0.412963047,1,0,0,0,14,14,37,1,53,67060,1,180,2022-02-11_15h07.55.815,orientation adjustment 1,2021.2.3,Win32,59.89099838,pause_continueButton,,,,,,
,,,,,,,,,,,,,,,,,,,,,,24.44444444,35,20,75,32.44444444,2.555555556,2.555555556,-57.55555556,0.223148181,-0.297222246,1,0,0,0.25,submitButton,0.156481513,-0.289814838,0,0,0,0,15,15,19,1,35,67060,1,180,2022-02-11_15h07.55.815,orientation adjustment 1,2021.2.3,Win32,59.89099838,,,,,,,
,,,,,,,,,,,,,,,,,,,,,,-66.11111111,71,20,75,52.88888889,18.11111111,18.11111111,-37.11111111,0.41574078,-0.297222246,1,0,0,0.0245,submitButton,0.213888922,-0.307407488,0,0,0,0,16,16,55,1,71,67060,1,180,2022-02-11_15h07.55.815,orientation adjustment 1,2021.2.3,Win32,59.89099838,,,,,,,
,,,,,,,,,,,,,,,,,,,,,,-22.77777778,-27,20,75,-27.77777778,0.777777778,0.777777778,-117.7777778,0.209259292,-0.292592616,1,0,0,0.0654,submitButton,0.397222261,-0.2527778,0,0,0,0,17,17,11,1,27,67060,1,180,2022-02-11_15h07.55.815,orientation adjustment 1,2021.2.3,Win32,59.89099838,,,,,,,
,,,,,,,,,,,,,,,,,,,,,,21.66666667,-26,20,75,-25.33333333,0.666666667,0.666666667,-115.3333333,0.185185217,-0.28703706,1,0,0,0.4668,submitButton,0.178703736,-0.189814835,0,0,0,0,18,18,10,1,26,67060,1,180,2022-02-11_15h07.55.815,orientation adjustment 1,2021.2.3,Win32,59.89099838,,,,,,,
,,,,,,,,,,,,,,,,,,,,,,-53.88888889,69,20,75,56.11111111,12.88888889,12.88888889,-33.88888889,-0.303703686,-0.411111138,1,0,0,1.1834,submitButton,0.24629633,-0.29166669,0,0,0,0,19,19,53,1,69,67060,1,180,2022-02-11_15h07.55.815,orientation adjustment 1,2021.2.3,Win32,59.89099838,,,,,,,
,,,,,,,,,,,,,,,,,,,,,,52.22222222,31,20,75,221.2222222,10.22222222,10.22222222,131.2222222,0.206481514,-0.298148172,1,0,0,2.3225,submitButton,0.165740772,-0.300000024,0,0,0,0,20,20,15,1,31,67060,1,180,2022-02-11_15h07.55.815,orientation adjustment 1,2021.2.3,Win32,59.89099838,,,,,,,
,,,,,,,,,,,,,,,,,,,,,,-29.44444444,22,20,75,19.55555556,2.444444444,2.444444444,-70.44444444,-0.251851833,-0.391666693,1,0,0,1.1667,submitButton,0.230555589,-0.285185265,0,0,0,0,21,21,6,1,22,67060,1,180,2022-02-11_15h07.55.815,orientation adjustment 1,2021.2.3,Win32,59.89099838,,,,,,,
,,,,,,,,,,,,,,,,,,,,,,-26.66666667,23,20,75,19.33333333,3.666666667,3.666666667,-70.66666667,-0.326851835,-0.404629713,1,0,0,0.8903,submitButton,0.172222254,-0.323148173,0,0,0,0,22,22,7,1,23,67060,1,180,2022-02-11_15h07.55.815,orientation adjustment 1,2021.2.3,Win32,59.89099838,,,,,,,
,,,,,,,,,,,,,,,,,,,,,,51.11111111,50,20,75,138.1111111,88.11111111,88.11111111,48.11111111,0.210185218,-0.294444468,1,0,0,0.1952,submitButton,0.322222258,-0.253703726,0,0,0,0,23,23,34,1,50,67060,1,180,2022-02-11_15h07.55.815,orientation adjustment 1,2021.2.3,Win32,59.89099838,,,,,,,
,,,,,,,,,,,,,,,,,,,,,,-20.55555556,-54,20,75,-33.55555556,20.44444444,20.44444444,-123.5555556,-0.212037017,-0.403703731,1,0,0,0.967,submitButton,0.278703739,-0.340740822,0,0,0,0,24,24,38,1,54,67060,1,180,2022-02-11_15h07.55.815,orientation adjustment 1,2021.2.3,Win32,59.89099838,,,,,,,
,,,,,,,,,,,,,,,,,,,,,,-70.55555556,-56,20,75,-214.5555556,21.44444444,21.44444444,-304.5555556,-0.14814807,-0.387963046,1,0,0,1.755,submitButton,0.218518552,-0.332407489,0,0,0,0,25,25,40,1,56,67060,1,180,2022-02-11_15h07.55.815,orientation adjustment 1,2021.2.3,Win32,59.89099838,,,,,,,
,,,,,,,,,,,,,,,,,,,,,,53.88888889,-48,20,75,-27.11111111,20.88888889,20.88888889,-117.1111111,0.187962995,-0.320370395,1,0,0,0.2397,submitButton,-0.141666644,-0.400925953,0,0,0,0,26,26,32,1,48,67060,1,180,2022-02-11_15h07.55.815,orientation adjustment 1,2021.2.3,Win32,59.89099838,,,,,,,
,,,,,,,,,,,,,,,,,,,,,,26.11111111,-64,20,75,-23.88888889,40.11111111,40.11111111,-113.8888889,0.203703736,-0.284259283,1,0,0,0.1684,submitButton,-0.163888867,-0.406481508,0,0,0,0,27,27,48,1,64,67060,1,180,2022-02-11_15h07.55.815,orientation adjustment 1,2021.2.3,Win32,59.89099838,,,,,,,
,,,,,,,,,,,,,,,,,,,,,,28.33333333,-67,20,75,-61.66666667,5.333333333,5.333333333,-151.6666667,0.421296335,-0.313888913,1,0,0,0.232,submitButton,-0.260185166,-0.414814842,0,0,0,0,28,28,51,1,67,67060,1,180,2022-02-11_15h07.55.815,orientation adjustment 1,2021.2.3,Win32,59.89099838,,,,,,,
,,,,,,,,,,,,,,,,,,,,,,-27.22222222,-65,20,75,-51.22222222,13.77777778,13.77777778,-141.2222222,0.199074106,-0.312037061,1,0,0,0.2091,submitButton,0.256481516,-0.38240749,1,0,0,0,29,29,49,1,65,67060,1,180,2022-02-11_15h07.55.815,orientation adjustment 1,2021.2.3,Win32,59.89099838,pause_continueButton,,,,,,
,,,,,,,,,,,,,,,,,,,,,,67.22222222,58,20,75,226.2222222,11.77777778,11.77777778,136.2222222,-0.284259241,-0.39629638,1,0,0,1.866,submitButton,-0.284259241,-0.39629638,0,0,0,0,30,30,42,1,58,67060,1,180,2022-02-11_15h07.55.815,orientation adjustment 1,2021.2.3,Win32,59.89099838,,,,,,,
,,,,,,,,,,,,,,,,,,,,,,-75,-16,20,75,-27,11,11,-117,-0.261111092,-0.39629638,1,0,0,1.1514,submitButton,0.249074108,-0.225000022,0,0,0,0,31,31,0,1,16,67060,1,180,2022-02-11_15h07.55.815,orientation adjustment 1,2021.2.3,Win32,59.89099838,,,,,,,
,,,,,,,,,,,,,,,,,,,,,,50.55555556,38,20,75,53.55555556,15.55555556,15.55555556,-36.44444444,-0.194444424,-0.404629713,1,0,0,0.9347,submitButton,0.150925957,-0.349074156,0,0,0,0,32,32,22,1,38,67060,1,180,2022-02-11_15h07.55.815,orientation adjustment 1,2021.2.3,Win32,59.89099838,,,,,,,
,,,,,,,,,,,,,,,,,,,,,,57.77777778,24,20,75,31.77777778,7.777777778,7.777777778,-58.22222222,-0.188888868,-0.420370398,1,0,0,1.2342,submitButton,0.17777781,-0.338888914,0,0,0,0,33,33,8,1,24,67060,1,180,2022-02-11_15h07.55.815,orientation adjustment 1,2021.2.3,Win32,59.89099838,,,,,,,
,,,,,,,,,,,,,,,,,,,,,,48.88888889,-19,20,75,-34.11111111,15.11111111,15.11111111,-124.1111111,0.413888928,-0.306481506,1,0,0,0.0309,submitButton,-0.22962961,-0.398148175,0,0,0,0,34,34,3,1,19,67060,1,180,2022-02-11_15h07.55.815,orientation adjustment 1,2021.2.3,Win32,59.89099838,,,,,,,
,,,,,,,,,,,,,,,,,,,,,,-58.33333333,59,20,75,46.66666667,12.33333333,12.33333333,-43.33333333,-0.224074054,-0.406481508,1,0,0,1.0841,submitButton,-0.224074054,-0.406481508,0,0,0,0,35,35,43,1,59,67060,1,180,2022-02-11_15h07.55.815,orientation adjustment 1,2021.2.3,Win32,59.89099838,,,,,,,
,,,,,,,,,,,,,,,,,,,,,,-40.55555556,-72,20,75,-50.55555556,21.44444444,21.44444444,-140.5555556,0.205555588,-0.288888912,1,0,0,0.6008,submitButton,0.2416667,-0.322222247,0,0,0,0,36,36,56,1,72,67060,1,180,2022-02-11_15h07.55.815,orientation adjustment 1,2021.2.3,Win32,59.89099838,,,,,,,
,,,,,,,,,,,,,,,,,,,,,,-30,-44,20,75,-36,8,8,-126,0.210185218,-0.310185266,1,0,0,0.467,submitButton,0.005555582,-0.39629638,0,0,0,0,37,37,28,1,44,67060,1,180,2022-02-11_15h07.55.815,orientation adjustment 1,2021.2.3,Win32,59.89099838,,,,,,,
,,,,,,,,,,,,,,,,,,,,,,28.33333333,28,20,75,24.33333333,3.666666667,3.666666667,-65.66666667,0.400000038,-0.28703706,1,0,0,0.2053,submitButton,-0.204629609,-0.397222249,0,0,0,0,38,38,12,1,28,67060,1,180,2022-02-11_15h07.55.815,orientation adjustment 1,2021.2.3,Win32,59.89099838,,,,,,,
,,,,,,,,,,,,,,,,,,,,,,-28.88888889,40,20,75,34.11111111,5.888888889,5.888888889,-55.88888889,0.151851883,-0.302777802,1,0,0,0.3663,submitButton,-0.224074054,-0.36944447,0,0,0,0,39,39,24,1,40,67060,1,180,2022-02-11_15h07.55.815,orientation adjustment 1,2021.2.3,Win32,59.89099838,,,,,,,
,,,,,,,,,,,,,,,,,,,,,,20,46,20,75,33,13,13,-57,0.200000032,-0.300000024,1,0,0,0.853,submitButton,-0.150925847,-0.399074157,0,0,0,0,40,40,30,1,46,67060,1,180,2022-02-11_15h07.55.815,orientation adjustment 1,2021.2.3,Win32,59.89099838,,,,,,,
,,,,,,,,,,,,,,,,,,,,,,-32.22222222,-33,20,75,-29.22222222,3.777777778,3.777777778,-119.2222222,0.400925964,-0.271296376,1,0,0,0.4835,submitButton,-0.172222201,-0.398148175,0,0,0,0,41,41,17,1,33,67060,1,180,2022-02-11_15h07.55.815,orientation adjustment 1,2021.2.3,Win32,59.89099838,,,,,,,
,,,,,,,,,,,,,,,,,,,,,,38.33333333,-52,20,75,-42.66666667,9.333333333,9.333333333,-132.6666667,0.446296336,-0.28703706,1,0,0,0.5817,submitButton,-0.170370292,-0.400925953,0,0,0,0,42,42,36,1,52,67060,1,180,2022-02-11_15h07.55.815,orientation adjustment 1,2021.2.3,Win32,59.89099838,,,,,,,
,,,,,,,,,,,,,,,,,,,,,,43.88888889,18,20,75,20.88888889,2.888888889,2.888888889,-69.11111111,0.223148181,-0.290740821,1,0,0,0.0419,submitButton,-0.188888868,-0.418518602,0,0,0,0,43,43,2,1,18,67060,1,180,2022-02-11_15h07.55.815,orientation adjustment 1,2021.2.3,Win32,59.89099838,,,,,,,
,,,,,,,,,,,,,,,,,,,,,,-39.44444444,49,20,75,66.55555556,17.55555556,17.55555556,-23.44444444,0.2166667,-0.312963044,1,0,0,0.0914,submitButton,0.338888925,-0.409259286,1,0,0,0,44,44,33,1,49,67060,1,180,2022-02-11_15h07.55.815,orientation adjustment 1,2021.2.3,Win32,59.89099838,pause_continueButton,,,,,,
,,,,,,,,,,,,,,,,,,,,,,52.22222222,-57,20,75,22.22222222,79.22222222,79.22222222,-67.77777778,0.205555588,-0.290740821,1,0,0,1.767,submitButton,0.275000035,-0.293518599,0,0,0,0,45,45,41,1,57,67060,1,180,2022-02-11_15h07.55.815,orientation adjustment 1,2021.2.3,Win32,59.89099838,,,,,,,
,,,,,,,,,,,,,,,,,,,,,,41.66666667,25,20,75,23.66666667,1.333333333,1.333333333,-66.33333333,0.405555594,-0.307407488,1,0,0,0.5168,submitButton,-0.240740721,-0.388888915,0,0,0,0,46,46,9,1,25,67060,1,180,2022-02-11_15h07.55.815,orientation adjustment 1,2021.2.3,Win32,59.89099838,,,,,,,
,,,,,,,,,,,,,,,,,,,,,,-49.44444444,-73,20,75,-46.44444444,26.55555556,26.55555556,-136.4444444,0.208333366,-0.293518599,1,0,0,0.3862,submitButton,-0.024074048,-0.374074157,0,0,0,0,47,47,57,1,73,67060,1,180,2022-02-11_15h07.55.815,orientation adjustment 1,2021.2.3,Win32,59.89099838,,,,,,,
,,,,,,,,,,,,,,,,,,,,,,-48.33333333,36,20,75,33.66666667,2.333333333,2.333333333,-56.33333333,0.194444477,-0.308333357,1,0,0,0.2509,submitButton,0.131481512,-0.30092595,0,0,0,0,48,48,20,1,36,67060,1,180,2022-02-11_15h07.55.815,orientation adjustment 1,2021.2.3,Win32,59.89099838,,,,,,,
,,,,,,,,,,,,,,,,,,,,,,-47.22222222,21,20,75,34.77777778,13.77777778,13.77777778,-55.22222222,-0.243518499,-0.409259286,1,0,0,1.1512,submitButton,0.218518552,-0.286111135,0,0,0,0,49,49,5,1,21,67060,1,180,2022-02-11_15h07.55.815,orientation adjustment 1,2021.2.3,Win32,59.89099838,,,,,,,
,,,,,,,,,,,,,,,,,,,,,,40,51,20,75,126,75,75,36,-0.248148129,-0.389814841,1,0,0,0.834,submitButton,0.155555587,-0.312037061,0,0,0,0,50,50,35,1,51,67060,1,180,2022-02-11_15h07.55.815,orientation adjustment 1,2021.2.3,Win32,59.89099838,,,,,,,
,,,,,,,,,,,,,,,,,,,,,,-21.11111111,74,20,75,91.88888889,17.88888889,17.88888889,1.888888889,-0.226851832,-0.415740825,1,0,0,0.6022,submitButton,0.218518552,-0.295370394,0,0,0,0,51,51,58,1,74,67060,1,180,2022-02-11_15h07.55.815,orientation adjustment 1,2021.2.3,Win32,59.89099838,,,,,,,
,,,,,,,,,,,,,,,,,,,,,,-32.22222222,-66,20,75,-56.22222222,9.777777778,9.777777778,-146.2222222,-0.182407386,-0.401851935,1,0,0,0.634,submitButton,0.322222258,-0.242592615,0,0,0,0,52,52,50,1,66,67060,1,180,2022-02-11_15h07.55.815,orientation adjustment 1,2021.2.3,Win32,59.89099838,,,,,,,
,,,,,,,,,,,,,,,,,,,,,,-54.44444444,60,20,75,46.55555556,13.44444444,13.44444444,-43.44444444,-0.271296278,-0.412963047,1,0,0,0.6013,submitButton,0.100925955,-0.341666692,0,0,0,0,53,53,44,1,60,67060,1,180,2022-02-11_15h07.55.815,orientation adjustment 1,2021.2.3,Win32,59.89099838,,,,,,,
,,,,,,,,,,,,,,,,,,,,,,-38.33333333,37,20,75,40.66666667,3.666666667,3.666666667,-49.33333333,-0.253703685,-0.400925953,1,0,0,0.6065,submitButton,-0.001851825,-0.412037064,0,0,0,0,54,54,21,1,37,67060,1,180,2022-02-11_15h07.55.815,orientation adjustment 1,2021.2.3,Win32,59.89099838,,,,,,,
,,,,,,,,,,,,,,,,,,,,,,74.44444444,32,20,75,209.4444444,2.555555556,2.555555556,119.4444444,-0.226851832,-0.389814841,1,0,0,1.7604,submitButton,0.115740771,-0.333333358,0,0,0,0,55,55,16,1,32,67060,1,180,2022-02-11_15h07.55.815,orientation adjustment 1,2021.2.3,Win32,59.89099838,,,,,,,
,,,,,,,,,,,,,,,,,,,,,,25.55555556,62,20,75,226.5555556,15.44444444,15.44444444,136.5555556,-0.308333316,-0.37870373,1,0,0,1.9921,submitButton,0.254629664,-0.210185206,0,0,0,0,56,56,46,1,62,67060,1,180,2022-02-11_15h07.55.815,orientation adjustment 1,2021.2.3,Win32,59.89099838,,,,,,,
,,,,,,,,,,,,,,,,,,,,,,51.11111111,45,20,75,216.1111111,8.888888889,8.888888889,126.1111111,-0.251851833,-0.412037064,1,0,0,1.9335,submitButton,0.2166667,-0.307407488,0,0,0,0,57,57,29,1,45,67060,1,180,2022-02-11_15h07.55.815,orientation adjustment 1,2021.2.3,Win32,59.89099838,,,,,,,
,,,,,,,,,,,,,,,,,,,,,,-53.88888889,-17,20,75,-16.88888889,0.111111111,0.111111111,-106.8888889,-0.305555538,-0.361111137,1,0,0,0.8416,submitButton,0.00833336,-0.057407424,0,0,0,0,58,58,1,1,17,67060,1,180,2022-02-11_15h07.55.815,orientation adjustment 1,2021.2.3,Win32,59.89099838,,,,,,,
,,,,,,,,,,,,,,,,,,,,,,27.22222222,63,20,75,135.2222222,72.22222222,72.22222222,45.22222222,-0.169444423,-0.409259286,1,0,0,0.8173,submitButton,0.295370406,-0.387963046,1,0,0,0,59,59,47,1,63,67060,1,180,2022-02-11_15h07.55.815,orientation adjustment 1,2021.2.3,Win32,59.89099838,pause_continueButton,,,,,,
,,,,,,,,,,,,,,,,,,,,,,-32.77777778,-40,20,75,-42.77777778,2.777777778,2.777777778,-132.7777778,-0.23425924,-0.39629638,1,0,0,0.7317,submitButton,0.265740775,-0.308333357,0,0,0,1,0,60,24,1,40,67060,1,180,2022-02-11_15h07.55.815,orientation adjustment 1,2021.2.3,Win32,59.89099838,,,,,,,
,,,,,,,,,,,,,,,,,,,,,,59.44444444,30,20,75,34.44444444,4.444444444,4.444444444,-55.55555556,-0.136111089,-0.403703731,1,0,0,1.267,submitButton,0.146296327,-0.376851934,0,0,0,1,1,61,14,1,30,67060,1,180,2022-02-11_15h07.55.815,orientation adjustment 1,2021.2.3,Win32,59.89099838,,,,,,,
,,,,,,,,,,,,,,,,,,,,,,46.11111111,-48,20,75,-25.88888889,22.11111111,22.11111111,-115.8888889,0.379629667,-0.312963044,1,0,0,0.3502,submitButton,0.537963005,-0.386111138,0,0,0,1,2,62,32,1,48,67060,1,180,2022-02-11_15h07.55.815,orientation adjustment 1,2021.2.3,Win32,59.89099838,,,,,,,
,,,,,,,,,,,,,,,,,,,,,,-35,-22,20,75,-21,1,1,-111,0.235185219,-0.325925951,1,0,0,0.1497,submitButton,-0.167592515,-0.404629713,0,0,0,1,3,63,6,1,22,67060,1,180,2022-02-11_15h07.55.815,orientation adjustment 1,2021.2.3,Win32,59.89099838,,,,,,,
,,,,,,,,,,,,,,,,,,,,,,-57.77777778,55,20,75,45.22222222,9.777777778,9.777777778,-44.77777778,-0.139814736,-0.393518602,1,0,0,0.7667,submitButton,0.222222255,-0.328703728,0,0,0,1,4,64,39,1,55,67060,1,180,2022-02-11_15h07.55.815,orientation adjustment 1,2021.2.3,Win32,59.89099838,,,,,,,
,,,,,,,,,,,,,,,,,,,,,,34.44444444,-51,20,75,-28.55555556,22.44444444,22.44444444,-118.5555556,0.386111149,-0.275925949,1,0,0,0.1443,submitButton,0.312962999,-0.367592618,0,0,0,1,5,65,35,1,51,67060,1,180,2022-02-11_15h07.55.815,orientation adjustment 1,2021.2.3,Win32,59.89099838,,,,,,,
,,,,,,,,,,,,,,,,,,,,,,-25,61,20,75,71,10,10,-19,-0.225925906,-0.388888915,1,0,0,0.4346,submitButton,-0.222222202,-0.388888915,0,0,0,1,6,66,45,1,61,67060,1,180,2022-02-11_15h07.55.815,orientation adjustment 1,2021.2.3,Win32,59.89099838,,,,,,,
,,,,,,,,,,,,,,,,,,,,,,-27.22222222,37,20,75,51.77777778,14.77777778,14.77777778,-38.22222222,-0.157407386,-0.406481508,1,0,0,1.8171,submitButton,-0.157407386,-0.406481508,0,0,0,1,7,67,21,1,37,67060,1,180,2022-02-11_15h07.55.815,orientation adjustment 1,2021.2.3,Win32,59.89099838,,,,,,,
,,,,,,,,,,,,,,,,,,,,,,-70.55555556,43,20,75,4.444444444,38.55555556,38.55555556,-85.55555556,0.201851884,-0.303703728,1,0,0,0.1928,submitButton,-0.185185164,-0.385185268,0,0,0,1,8,68,27,1,43,67060,1,180,2022-02-11_15h07.55.815,orientation adjustment 1,2021.2.3,Win32,59.89099838,,,,,,,
,,,,,,,,,,,,,,,,,,,,,,61.11111111,-20,20,75,-14.88888889,5.111111111,5.111111111,-104.8888889,0.425000039,-0.292592616,1,0,0,0.4331,submitButton,-0.171296275,-0.393518602,0,0,0,1,9,69,4,1,20,67060,1,180,2022-02-11_15h07.55.815,orientation adjustment 1,2021.2.3,Win32,59.89099838,,,,,,,
,,,,,,,,,,,,,,,,,,,,,,-31.66666667,75,20,75,69.33333333,5.666666667,5.666666667,-20.66666667,-0.202777757,-0.400000027,1,0,0,0.7682,submitButton,-0.192592572,-0.400000027,0,0,0,1,10,70,59,1,75,67060,1,180,2022-02-11_15h07.55.815,orientation adjustment 1,2021.2.3,Win32,59.89099838,,,,,,,
,,,,,,,,,,,,,,,,,,,,,,55,60,20,75,228,12,12,138,0.185185217,-0.292592616,1,0,0,0.2852,submitButton,-0.130555533,-0.387963046,0,0,0,1,11,71,44,1,60,67060,1,180,2022-02-11_15h07.55.815,orientation adjustment 1,2021.2.3,Win32,59.89099838,,,,,,,
,,,,,,,,,,,,,,,,,,,,,,40,33,20,75,28,5,5,-62,0.388888927,-0.289814838,1,0,0,0.0341,submitButton,-0.167592515,-0.381481508,0,0,0,1,12,72,17,1,33,67060,1,180,2022-02-11_15h07.55.815,orientation adjustment 1,2021.2.3,Win32,59.89099838,,,,,,,
,,,,,,,,,,,,,,,,,,,,,,-39.44444444,47,20,75,40.55555556,6.444444444,6.444444444,-49.44444444,-0.197222202,-0.394444471,1,0,0,0.7852,submitButton,-0.197222202,-0.394444471,0,0,0,1,13,73,31,1,47,67060,1,180,2022-02-11_15h07.55.815,orientation adjustment 1,2021.2.3,Win32,59.89099838,,,,,,,
,,,,,,,,,,,,,,,,,,,,,,-53.88888889,-17,20,75,-18.88888889,1.888888889,1.888888889,-108.8888889,-0.167592515,-0.392592619,1,0,0,1.2238,submitButton,0.305555591,-0.38240749,1,0,0,1,14,74,1,1,17,67060,1,180,2022-02-11_15h07.55.815,orientation adjustment 1,2021.2.3,Win32,59.89099838,pause_continueButton,,,,,,
,,,,,,,,,,,,,,,,,,,,,,50,64,20,75,58,6,6,-32,-0.291666649,-0.437037065,1,0,0,1.4994,submitButton,0.225925959,-0.275000023,0,0,0,1,15,75,48,1,64,67060,1,180,2022-02-11_15h07.55.815,orientation adjustment 1,2021.2.3,Win32,59.89099838,,,,,,,
,,,,,,,,,,,,,,,,,,,,,,23.88888889,44,20,75,29.88888889,14.11111111,14.11111111,-60.11111111,-0.209259239,-0.395370397,1,0,0,0.9832,submitButton,0.200000032,-0.332407489,0,0,0,1,16,76,28,1,44,67060,1,180,2022-02-11_15h07.55.815,orientation adjustment 1,2021.2.3,Win32,59.89099838,,,,,,,
,,,,,,,,,,,,,,,,,,,,,,-50,67,20,75,63,4,4,-27,-0.204629609,-0.398148175,1,0,0,0.7622,submitButton,0.325000036,-0.314814839,0,0,0,1,17,77,51,1,67,67060,1,180,2022-02-11_15h07.55.815,orientation adjustment 1,2021.2.3,Win32,59.89099838,,,,,,,
,,,,,,,,,,,,,,,,,,,,,,47.77777778,62,20,75,61.77777778,0.222222222,0.222222222,-28.22222222,0.391666705,-0.318518599,1,0,0,0.3067,submitButton,-0.205555535,-0.381481508,0,0,0,1,18,78,46,1,62,67060,1,180,2022-02-11_15h07.55.815,orientation adjustment 1,2021.2.3,Win32,59.89099838,,,,,,,
,,,,,,,,,,,,,,,,,,,,,,-54.44444444,46,20,75,51.55555556,5.555555556,5.555555556,-38.44444444,0.209259292,-0.286111135,1,0,0,0.3828,submitButton,0.038888917,-0.329629711,0,0,0,1,19,79,30,1,46,67060,1,180,2022-02-11_15h07.55.815,orientation adjustment 1,2021.2.3,Win32,59.89099838,,,,,,,
,,,,,,,,,,,,,,,,,,,,,,32.77777778,50,20,75,49.77777778,0.222222222,0.222222222,-40.22222222,0.391666705,-0.319444469,1,0,0,0.0266,submitButton,-0.099999976,-0.415740825,0,0,0,1,20,80,34,1,50,67060,1,180,2022-02-11_15h07.55.815,orientation adjustment 1,2021.2.3,Win32,59.89099838,,,,,,,
,,,,,,,,,,,,,,,,,,,,,,-40,-57,20,75,-44,13,13,-134,-0.208333313,-0.390740824,1,0,0,0.9756,submitButton,0.2416667,-0.247222244,0,0,0,1,21,81,41,1,57,67060,1,180,2022-02-11_15h07.55.815,orientation adjustment 1,2021.2.3,Win32,59.89099838,,,,,,,
,,,,,,,,,,,,,,,,,,,,,,28.33333333,28,20,75,12.33333333,15.66666667,15.66666667,-77.66666667,-0.160185163,-0.405555583,1,0,0,1.3014,submitButton,0.258333368,-0.232407486,0,0,0,1,22,82,12,1,28,67060,1,180,2022-02-11_15h07.55.815,orientation adjustment 1,2021.2.3,Win32,59.89099838,,,,,,,
,,,,,,,,,,,,,,,,,,,,,,-50.55555556,-53,20,75,-43.55555556,9.444444444,9.444444444,-133.5555556,-0.161111089,-0.397222249,1,0,0,0.9236,submitButton,0.224074107,-0.298148172,0,0,0,1,23,83,37,1,53,67060,1,180,2022-02-11_15h07.55.815,orientation adjustment 1,2021.2.3,Win32,59.89099838,,,,,,,
,,,,,,,,,,,,,,,,,,,,,,-23.33333333,-29,20,75,-11.33333333,17.66666667,17.66666667,-101.3333333,0.224074107,-0.298148172,1,0,0,0.2749,submitButton,0.351851889,-0.243518597,0,0,0,1,24,84,13,1,29,67060,1,180,2022-02-11_15h07.55.815,orientation adjustment 1,2021.2.3,Win32,59.89099838,,,,,,,
,,,,,,,,,,,,,,,,,,,,,,-34.44444444,-35,20,75,-26.44444444,8.555555556,8.555555556,-116.4444444,-0.10925918,-0.42129638,1,0,0,0.9416,submitButton,0.237962997,-0.216666688,0,0,0,1,25,85,19,1,35,67060,1,180,2022-02-11_15h07.55.815,orientation adjustment 1,2021.2.3,Win32,59.89099838,,,,,,,
,,,,,,,,,,,,,,,,,,,,,,53.33333333,-69,20,75,-53.66666667,15.33333333,15.33333333,-143.6666667,0.397222261,-0.30462971,1,0,0,0.0843,submitButton,0.180555587,-0.332407489,0,0,0,1,26,86,53,1,69,67060,1,180,2022-02-11_15h07.55.815,orientation adjustment 1,2021.2.3,Win32,59.89099838,,,,,,,
,,,,,,,,,,,,,,,,,,,,,,-46.11111111,-59,20,75,-63.11111111,4.111111111,4.111111111,-153.1111111,-0.160185163,-0.404629713,1,0,0,0.6509,submitButton,0.043518603,-0.316666691,0,0,0,1,27,87,43,1,59,67060,1,180,2022-02-11_15h07.55.815,orientation adjustment 1,2021.2.3,Win32,59.89099838,,,,,,,
,,,,,,,,,,,,,,,,,,,,,,31.66666667,-71,20,75,-66.33333333,4.666666667,4.666666667,-156.3333333,0.447222262,-0.296296377,1,0,0,0.1641,submitButton,0.317592629,-0.269444467,0,0,0,1,28,88,55,1,71,67060,1,180,2022-02-11_15h07.55.815,orientation adjustment 1,2021.2.3,Win32,59.89099838,,,,,,,
,,,,,,,,,,,,,,,,,,,,,,65,34,20,75,41,7,7,-49,0.366666704,-0.298148172,1,0,0,0.0264,submitButton,0.317592629,-0.411111138,1,0,0,1,29,89,18,1,34,67060,1,180,2022-02-11_15h07.55.815,orientation adjustment 1,2021.2.3,Win32,59.89099838,pause_continueButton,,,,,,
,,,,,,,,,,,,,,,,,,,,,,22.77777778,-26,20,75,33.77777778,59.77777778,59.77777778,-56.22222222,0.205555588,-0.294444468,1,0,0,1.597,submitButton,0.358333371,-0.317592617,0,0,0,1,30,90,10,1,26,67060,1,180,2022-02-11_15h07.55.815,orientation adjustment 1,2021.2.3,Win32,59.89099838,,,,,,,
,,,,,,,,,,,,,,,,,,,,,,42.22222222,32,20,75,27.22222222,4.777777778,4.777777778,-62.77777778,-0.210185165,-0.400000027,1,0,0,0.8074,submitButton,0.262962997,-0.285185265,0,0,0,1,31,91,16,1,32,67060,1,180,2022-02-11_15h07.55.815,orientation adjustment 1,2021.2.3,Win32,59.89099838,,,,,,,
,,,,,,,,,,,,,,,,,,,,,,-60.55555556,36,20,75,34.44444444,1.555555556,1.555555556,-55.55555556,-0.251851833,-0.413888916,1,0,0,1.0498,submitButton,-0.122222199,-0.232407486,0,0,0,1,32,92,20,1,36,67060,1,180,2022-02-11_15h07.55.815,orientation adjustment 1,2021.2.3,Win32,59.89099838,,,,,,,
,,,,,,,,,,,,,,,,,,,,,,64.44444444,-68,20,75,60.44444444,51.55555556,51.55555556,-29.55555556,-0.297222205,-0.426851936,1,0,0,1.2875,submitButton,0.17777781,-0.276851932,0,0,0,1,33,93,52,1,68,67060,1,180,2022-02-11_15h07.55.815,orientation adjustment 1,2021.2.3,Win32,59.89099838,,,,,,,
,,,,,,,,,,,,,,,,,,,,,,47.22222222,52,20,75,39.22222222,12.77777778,12.77777778,-50.77777778,0.36759263,-0.296296377,1,0,0,0.1465,submitButton,-0.143518496,-0.387037063,0,0,0,1,34,94,36,1,52,67060,1,180,2022-02-11_15h07.55.815,orientation adjustment 1,2021.2.3,Win32,59.89099838,,,,,,,
,,,,,,,,,,,,,,,,,,,,,,41.11111111,-65,20,75,-49.88888889,15.11111111,15.11111111,-139.8888889,0.412963002,-0.342592618,1,0,0,0.181,submitButton,-0.246296277,-0.425000028,0,0,0,1,35,95,49,1,65,67060,1,180,2022-02-11_15h07.55.815,orientation adjustment 1,2021.2.3,Win32,59.89099838,,,,,,,
,,,,,,,,,,,,,,,,,,,,,,-48.33333333,49,20,75,44.66666667,4.333333333,4.333333333,-45.33333333,-0.227777758,-0.387037063,1,0,0,0.6574,submitButton,-0.22499998,-0.384259286,0,0,0,1,36,96,33,1,49,67060,1,180,2022-02-11_15h07.55.815,orientation adjustment 1,2021.2.3,Win32,59.89099838,,,,,,,
,,,,,,,,,,,,,,,,,,,,,,-47.22222222,-38,20,75,-39.22222222,1.222222222,1.222222222,-129.2222222,-0.179629608,-0.416666694,1,0,0,0.9166,submitButton,-0.179629608,-0.416666694,0,0,0,1,37,97,22,1,38,67060,1,180,2022-02-11_15h07.55.815,orientation adjustment 1,2021.2.3,Win32,59.89099838,,,,,,,
,,,,,,,,,,,,,,,,,,,,,,38.88888889,58,20,75,45.88888889,12.11111111,12.11111111,-44.11111111,-0.174074053,-0.42129638,1,0,0,1.6236,submitButton,-0.174074053,-0.412037064,0,0,0,1,38,98,42,1,58,67060,1,180,2022-02-11_15h07.55.815,orientation adjustment 1,2021.2.3,Win32,59.89099838,,,,,,,
,,,,,,,,,,,,,,,,,,,,,,-21.66666667,18,20,75,26.33333333,8.333333333,8.333333333,-63.66666667,0.149074105,-0.302777802,1,0,0,0.383,submitButton,-0.213888869,-0.401851935,0,0,0,1,39,99,2,1,18,67060,1,180,2022-02-11_15h07.55.815,orientation adjustment 1,2021.2.3,Win32,59.89099838,,,,,,,
,,,,,,,,,,,,,,,,,,,,,,75,-27,20,75,139,14,14,49,-0.242592573,-0.414814842,1,0,0,1.8436,submitButton,0.239814848,-0.201851873,0,0,0,1,40,100,11,1,27,67060,1,180,2022-02-11_15h07.55.815,orientation adjustment 1,2021.2.3,Win32,59.89099838,,,,,,,
,,,,,,,,,,,,,,,,,,,,,,60,-45,20,75,-33,12,12,-123,0.420370409,-0.284259283,1,0,0,0.6163,submitButton,-0.002777751,-0.385185268,0,0,0,1,41,101,29,1,45,67060,1,180,2022-02-11_15h07.55.815,orientation adjustment 1,2021.2.3,Win32,59.89099838,,,,,,,
,,,,,,,,,,,,,,,,,,,,,,-35.55555556,54,20,75,53.44444444,0.555555556,0.555555556,-36.55555556,0.180555587,-0.306481506,1,0,0,0.4407,submitButton,-0.203703683,-0.389814841,0,0,0,1,42,102,38,1,54,67060,1,180,2022-02-11_15h07.55.815,orientation adjustment 1,2021.2.3,Win32,59.89099838,,,,,,,
,,,,,,,,,,,,,,,,,,,,,,-48.33333333,-39,20,75,-29.33333333,9.666666667,9.666666667,-119.3333333,-0.280555537,-0.432407492,1,0,0,1.0847,submitButton,0.211111144,-0.332407489,0,0,0,1,43,103,23,1,39,67060,1,180,2022-02-11_15h07.55.815,orientation adjustment 1,2021.2.3,Win32,59.89099838,,,,,,,
,,,,,,,,,,,,,,,,,,,,,,74.44444444,41,20,75,40.44444444,0.555555556,0.555555556,-49.55555556,-0.179629608,-0.424074158,1,0,0,1.4004,submitButton,0.293518554,-0.392592619,1,0,0,1,44,104,25,1,41,67060,1,180,2022-02-11_15h07.55.815,orientation adjustment 1,2021.2.3,Win32,59.89099838,pause_continueButton,,,,,,
,,,,,,,,,,,,,,,,,,,,,,-55.55555556,73,20,75,44.44444444,28.55555556,28.55555556,-45.55555556,0.214814848,-0.30555558,1,0,0,0.6002,submitButton,-0.211111091,-0.394444471,0,0,0,1,45,105,57,1,73,67060,1,180,2022-02-11_15h07.55.815,orientation adjustment 1,2021.2.3,Win32,59.89099838,,,,,,,
,,,,,,,,,,,,,,,,,,,,,,49.44444444,42,20,75,47.44444444,5.444444444,5.444444444,-42.55555556,0.384259297,-0.279629709,1,0,0,0.1145,submitButton,0.179629661,-0.325000025,0,0,0,1,46,106,26,1,42,67060,1,180,2022-02-11_15h07.55.815,orientation adjustment 1,2021.2.3,Win32,59.89099838,,,,,,,
,,,,,,,,,,,,,,,,,,,,,,-21.11111111,-56,20,75,-22.11111111,33.88888889,33.88888889,-112.1111111,-0.239814795,-0.416666694,1,0,0,0.8012,submitButton,0.162962994,-0.499074104,0,0,0,1,47,107,40,1,56,67060,1,180,2022-02-11_15h07.55.815,orientation adjustment 1,2021.2.3,Win32,59.89099838,,,,,,,
,,,,,,,,,,,,,,,,,,,,,,-43.88888889,70,20,75,62.11111111,7.888888889,7.888888889,-27.88888889,0.199074106,-0.286111135,1,0,0,3.1685,submitButton,-0.232407388,-0.412037064,0,0,0,1,48,108,54,1,70,67060,1,180,2022-02-11_15h07.55.815,orientation adjustment 1,2021.2.3,Win32,59.89099838,,,,,,,
,,,,,,,,,,,,,,,,,,,,,,-22.77777778,-21,20,75,-12.77777778,8.222222222,8.222222222,-102.7777778,-0.2685185,-0.389814841,1,0,0,0.8737,submitButton,-0.2685185,-0.389814841,0,0,0,1,49,109,5,1,21,67060,1,180,2022-02-11_15h07.55.815,orientation adjustment 1,2021.2.3,Win32,59.89099838,,,,,,,
,,,,,,,,,,,,,,,,,,,,,,-51.66666667,-63,20,75,-215.6666667,27.33333333,27.33333333,-305.6666667,-0.219444424,-0.399074157,1,0,0,2.2991,submitButton,0.135185216,-0.380555582,0,0,0,1,50,110,47,1,63,67060,1,180,2022-02-11_15h07.55.815,orientation adjustment 1,2021.2.3,Win32,59.89099838,,,,,,,
,,,,,,,,,,,,,,,,,,,,,,-36.66666667,25,20,75,32.33333333,7.333333333,7.333333333,-57.66666667,0.187962995,-0.30092595,1,0,0,0.3066,submitButton,0.234259293,-0.30092595,0,0,0,1,51,111,9,1,25,67060,1,180,2022-02-11_15h07.55.815,orientation adjustment 1,2021.2.3,Win32,59.89099838,,,,,,,
,,,,,,,,,,,,,,,,,,,,,,-28.88888889,31,20,75,32.11111111,1.111111111,1.111111111,-57.88888889,-0.22499998,-0.385185268,1,0,0,0.818,submitButton,0.023148175,-0.427777805,0,0,0,1,52,112,15,1,31,67060,1,180,2022-02-11_15h07.55.815,orientation adjustment 1,2021.2.3,Win32,59.89099838,,,,,,,
,,,,,,,,,,,,,,,,,,,,,,-38.88888889,-24,20,75,-10.88888889,13.11111111,13.11111111,-100.8888889,0.264814849,-0.306481506,1,0,0,0.5213,submitButton,0.080555584,-0.312963044,0,0,0,1,53,113,8,1,24,67060,1,180,2022-02-11_15h07.55.815,orientation adjustment 1,2021.2.3,Win32,59.89099838,,,,,,,
,,,,,,,,,,,,,,,,,,,,,,-50,-16,20,75,-17,1,1,-107,-0.27314813,-0.412963047,1,0,0,1.0168,submitButton,0.179629661,-0.290740821,0,0,0,1,54,114,0,1,16,67060,1,180,2022-02-11_15h07.55.815,orientation adjustment 1,2021.2.3,Win32,59.89099838,,,,,,,
,,,,,,,,,,,,,,,,,,,,,,-46.11111111,74,20,75,71.88888889,2.111111111,2.111111111,-18.11111111,-0.247222203,-0.424074158,1,0,0,0.8841,submitButton,-0.247222203,-0.424074158,0,0,0,1,55,115,58,1,74,67060,1,180,2022-02-11_15h07.55.815,orientation adjustment 1,2021.2.3,Win32,59.89099838,,,,,,,
,,,,,,,,,,,,,,,,,,,,,,-68.88888889,19,20,75,29.11111111,10.11111111,10.11111111,-60.88888889,-0.292592575,-0.398148175,1,0,0,1.2677,submitButton,-0.243518499,-0.362037063,0,0,0,1,56,116,3,1,19,67060,1,180,2022-02-11_15h07.55.815,orientation adjustment 1,2021.2.3,Win32,59.89099838,,,,,,,
,,,,,,,,,,,,,,,,,,,,,,-39.44444444,23,20,75,61.55555556,38.55555556,38.55555556,-28.44444444,0.185185217,-0.292592616,1,0,0,1.1935,submitButton,0.309259295,-0.242592615,0,0,0,1,57,117,7,1,23,67060,1,180,2022-02-11_15h07.55.815,orientation adjustment 1,2021.2.3,Win32,59.89099838,,,,,,,
,,,,,,,,,,,,,,,,,,,,,,71.66666667,-72,20,75,108.6666667,0.666666667,0.666666667,18.66666667,-0.254629611,-0.416666694,1,0,0,3.2231,submitButton,-0.254629611,-0.414814842,0,0,0,1,58,118,56,1,72,67060,1,180,2022-02-11_15h07.55.815,orientation adjustment 1,2021.2.3,Win32,59.89099838,,,,,,,
,,,,,,,,,,,,,,,,,,,,,,-21.11111111,66,20,75,79.88888889,13.88888889,13.88888889,-10.11111111,-0.320370353,-0.410185269,1,0,0,0.823,submitButton,0.233333367,-0.399074157,1,0,0,1,59,119,50,1,66,67060,1,180,2022-02-11_15h07.55.815,orientation adjustment 1,2021.2.3,Win32,59.89099838,pause_continueButton,,,,,,
,,,,,,,,,,,,,,,,,,,,,,-55.55555556,-21,20,75,-9.555555556,11.44444444,11.44444444,-99.55555556,0.167592624,-0.301851932,1,0,0,1.8601,submitButton,0.358333371,-0.263888912,0,0,0,2,0,120,5,1,21,67060,1,180,2022-02-11_15h07.55.815,orientation adjustment 1,2021.2.3,Win32,59.89099838,,,,,,,
,,,,,,,,,,,,,,,,,,,,,,53.88888889,38,20,75,130.8888889,87.11111111,87.11111111,40.88888889,0.379629667,-0.283333357,1,0,0,8.0846,submitButton,-0.129629607,-0.476851881,0,0,0,2,1,121,22,1,38,67060,1,180,2022-02-11_15h07.55.815,orientation adjustment 1,2021.2.3,Win32,59.89099838,,,,,,,
,,,,,,,,,,,,,,,,,,,,,,58.88888889,54,20,75,58.88888889,4.888888889,4.888888889,-31.11111111,-0.14814807,-0.371296379,1,0,0,1.784,submitButton,0.370370408,-0.33055558,0,0,0,2,2,122,38,1,54,67060,1,180,2022-02-11_15h07.55.815,orientation adjustment 1,2021.2.3,Win32,59.89099838,,,,,,,
,,,,,,,,,,,,,,,,,,,,,,58.33333333,-16,20,75,135.3333333,28.66666667,28.66666667,45.33333333,-0.23888887,-0.414814842,1,0,0,1.5168,submitButton,0.267592627,-0.295370394,0,0,0,2,3,123,0,1,16,67060,1,180,2022-02-11_15h07.55.815,orientation adjustment 1,2021.2.3,Win32,59.89099838,,,,,,,
,,,,,,,,,,,,,,,,,,,,,,25,-41,20,75,-8,33,33,-98,-0.324074057,-0.399074157,1,0,0,0.6334,submitButton,0.250000034,-0.407407491,0,0,0,2,4,124,25,1,41,67060,1,180,2022-02-11_15h07.55.815,orientation adjustment 1,2021.2.3,Win32,59.89099838,,,,,,,
,,,,,,,,,,,,,,,,,,,,,,56.66666667,-75,20,75,-52.33333333,22.66666667,22.66666667,-142.3333333,-0.170370292,-0.410185269,1,0,0,0.9996,submitButton,0.45462967,-0.349074156,0,0,0,2,5,125,59,1,75,67060,1,180,2022-02-11_15h07.55.815,orientation adjustment 1,2021.2.3,Win32,59.89099838,,,,,,,
,,,,,,,,,,,,,,,,,,,,,,68.33333333,46,20,75,43.33333333,2.666666667,2.666666667,-46.66666667,-0.202777757,-0.410185269,1,0,0,1.7646,submitButton,-0.202777757,-0.410185269,0,0,0,2,6,126,30,1,46,67060,1,180,2022-02-11_15h07.55.815,orientation adjustment 1,2021.2.3,Win32,59.89099838,,,,,,,
,,,,,,,,,,,,,,,,,,,,,,-67.22222222,67,20,75,63.77777778,3.222222222,3.222222222,-26.22222222,0.146296327,-0.335185267,1,0,0,0.4707,submitButton,-0.235185166,-0.386111138,0,0,0,2,7,127,51,1,67,67060,1,180,2022-02-11_15h07.55.815,orientation adjustment 1,2021.2.3,Win32,59.89099838,,,,,,,
,,,,,,,,,,,,,,,,,,,,,,62.22222222,-26,20,75,-37.77777778,11.77777778,11.77777778,-127.7777778,0.416666706,-0.325925951,1,0,0,0.6672,submitButton,-0.034259177,-0.335185267,0,0,0,2,8,128,10,1,26,67060,1,180,2022-02-11_15h07.55.815,orientation adjustment 1,2021.2.3,Win32,59.89099838,,,,,,,
,,,,,,,,,,,,,,,,,,,,,,-58.88888889,62,20,75,54.11111111,7.888888889,7.888888889,-35.88888889,-0.207407387,-0.419444472,1,0,0,0.9566,submitButton,-0.206481461,-0.412963047,0,0,0,2,9,129,46,1,62,67060,1,180,2022-02-11_15h07.55.815,orientation adjustment 1,2021.2.3,Win32,59.89099838,,,,,,,
,,,,,,,,,,,,,,,,,,,,,,50.55555556,-18,20,75,-15.44444444,2.555555556,2.555555556,-105.4444444,0.434259299,-0.267592615,1,0,0,0.336,submitButton,-0.201851831,-0.395370397,0,0,0,2,10,130,2,1,18,67060,1,180,2022-02-11_15h07.55.815,orientation adjustment 1,2021.2.3,Win32,59.89099838,,,,,,,
,,,,,,,,,,,,,,,,,,,,,,38.88888889,-40,20,75,-29.11111111,10.88888889,10.88888889,-119.1111111,0.20740744,-0.308333357,1,0,0,1.017,submitButton,-0.244444425,-0.395370397,0,0,0,2,11,131,24,1,40,67060,1,180,2022-02-11_15h07.55.815,orientation adjustment 1,2021.2.3,Win32,59.89099838,,,,,,,
,,,,,,,,,,,,,,,,,,,,,,-61.11111111,32,20,75,30.88888889,1.111111111,1.111111111,-59.11111111,-0.208333313,-0.402777805,1,0,0,1.3525,submitButton,-0.208333313,-0.402777805,0,0,0,2,12,132,16,1,32,67060,1,180,2022-02-11_15h07.55.815,orientation adjustment 1,2021.2.3,Win32,59.89099838,,,,,,,
,,,,,,,,,,,,,,,,,,,,,,68.88888889,-66,20,75,-43.11111111,22.88888889,22.88888889,-133.1111111,0.388888927,-0.299074154,1,0,0,0.1944,submitButton,-0.155555534,-0.402777805,0,0,0,2,13,133,50,1,66,67060,1,180,2022-02-11_15h07.55.815,orientation adjustment 1,2021.2.3,Win32,59.89099838,,,,,,,
,,,,,,,,,,,,,,,,,,,,,,-37.77777778,35,20,75,42.22222222,7.222222222,7.222222222,-47.77777778,-0.297222205,-0.419444472,1,0,0,1.3389,submitButton,0.273148183,-0.403703731,1,0,0,2,14,134,19,1,35,67060,1,180,2022-02-11_15h07.55.815,orientation adjustment 1,2021.2.3,Win32,59.89099838,pause_continueButton,,,,,,
,,,,,,,,,,,,,,,,,,,,,,-61.66666667,-63,20,75,-47.66666667,15.33333333,15.33333333,-137.6666667,-0.212037017,-0.40833336,1,0,0,1.1664,submitButton,-0.041666641,-0.371296379,0,0,0,2,15,135,47,1,63,67060,1,180,2022-02-11_15h07.55.815,orientation adjustment 1,2021.2.3,Win32,59.89099838,,,,,,,
,,,,,,,,,,,,,,,,,,,,,,68.33333333,-74,20,75,-59.66666667,14.33333333,14.33333333,-149.6666667,-0.219444424,-0.406481508,1,0,0,1.6333,submitButton,0.260185219,-0.292592616,0,0,0,2,16,136,58,1,74,67060,1,180,2022-02-11_15h07.55.815,orientation adjustment 1,2021.2.3,Win32,59.89099838,,,,,,,
,,,,,,,,,,,,,,,,,,,,,,-65,19,20,75,26,7,7,-64,-0.139814736,-0.412963047,1,0,0,1.4839,submitButton,-0.139814736,-0.412963047,0,0,0,2,17,137,3,1,19,67060,1,180,2022-02-11_15h07.55.815,orientation adjustment 1,2021.2.3,Win32,59.89099838,,,,,,,
,,,,,,,,,,,,,,,,,,,,,,-50.55555556,17,20,75,28.44444444,11.44444444,11.44444444,-61.55555556,0.214814848,-0.307407488,1,0,0,0.3836,submitButton,-0.146296274,-0.412037064,0,0,0,2,18,138,1,1,17,67060,1,180,2022-02-11_15h07.55.815,orientation adjustment 1,2021.2.3,Win32,59.89099838,,,,,,,
,,,,,,,,,,,,,,,,,,,,,,-32.22222222,-28,20,75,-16.22222222,11.77777778,11.77777778,-106.2222222,-0.208333313,-0.415740825,1,0,0,1.1568,submitButton,-0.208333313,-0.415740825,0,0,0,2,19,139,12,1,28,67060,1,180,2022-02-11_15h07.55.815,orientation adjustment 1,2021.2.3,Win32,59.89099838,,,,,,,
,,,,,,,,,,,,,,,,,,,,,,-68.33333333,-51,20,75,-47.33333333,3.666666667,3.666666667,-137.3333333,0.181481513,-0.310185266,1,0,0,0.5181,submitButton,-0.23425924,-0.42129638,0,0,0,2,20,140,35,1,51,67060,1,180,2022-02-11_15h07.55.815,orientation adjustment 1,2021.2.3,Win32,59.89099838,,,,,,,
,,,,,,,,,,,,,,,,,,,,,,72.22222222,58,20,75,216.2222222,21.77777778,21.77777778,126.2222222,-0.17314807,-0.39629638,1,0,0,1.6329,submitButton,-0.161111089,-0.393518602,0,0,0,2,21,141,42,1,58,67060,1,180,2022-02-11_15h07.55.815,orientation adjustment 1,2021.2.3,Win32,59.89099838,,,,,,,
,,,,,,,,,,,,,,,,,,,,,,-59.44444444,65,20,75,55.55555556,9.444444444,9.444444444,-34.44444444,-0.158333312,-0.394444471,1,0,0,1.0509,submitButton,-0.158333312,-0.394444471,0,0,0,2,22,142,49,1,65,67060,1,180,2022-02-11_15h07.55.815,orientation adjustment 1,2021.2.3,Win32,59.89099838,,,,,,,
,,,,,,,,,,,,,,,,,,,,,,50.55555556,-72,20,75,-52.44444444,19.55555556,19.55555556,-142.4444444,-0.250925907,-0.373148174,1,0,0,2.0344,submitButton,-0.224074054,-0.377777804,0,0,0,2,23,143,56,1,72,67060,1,180,2022-02-11_15h07.55.815,orientation adjustment 1,2021.2.3,Win32,59.89099838,,,,,,,
,,,,,,,,,,,,,,,,,,,,,,-55,-68,20,75,-61,7,7,-151,-0.149074052,-0.40833336,1,0,0,0.9938,submitButton,-0.149074052,-0.40833336,0,0,0,2,24,144,52,1,68,67060,1,180,2022-02-11_15h07.55.815,orientation adjustment 1,2021.2.3,Win32,59.89099838,,,,,,,
,,,,,,,,,,,,,,,,,,,,,,21.66666667,-56,20,75,-59.33333333,3.333333333,3.333333333,-149.3333333,-0.312962946,-0.390740824,1,0,0,0.5829,submitButton,-0.312962946,-0.390740824,0,0,0,2,25,145,40,1,56,67060,1,180,2022-02-11_15h07.55.815,orientation adjustment 1,2021.2.3,Win32,59.89099838,,,,,,,
,,,,,,,,,,,,,,,,,,,,,,37.22222222,57,20,75,46.22222222,10.77777778,10.77777778,-43.77777778,-0.196296276,-0.376851934,1,0,0,1.8248,submitButton,0.210185218,-0.34444447,0,0,0,2,26,146,41,1,57,67060,1,180,2022-02-11_15h07.55.815,orientation adjustment 1,2021.2.3,Win32,59.89099838,,,,,,,
,,,,,,,,,,,,,,,,,,,,,,23.88888889,-27,20,75,44.88888889,71.88888889,71.88888889,-45.11111111,-0.206481461,-0.412963047,1,0,0,1.7663,submitButton,-0.003703621,-0.400000027,0,0,0,2,27,147,11,1,27,67060,1,180,2022-02-11_15h07.55.815,orientation adjustment 1,2021.2.3,Win32,59.89099838,,,,,,,
,,,,,,,,,,,,,,,,,,,,,,42.22222222,-70,20,75,35.22222222,74.77777778,74.77777778,-54.77777778,-0.198148128,-0.389814841,1,0,0,1.9171,submitButton,0.345370407,-0.299074154,0,0,0,2,28,148,54,1,70,67060,1,180,2022-02-11_15h07.55.815,orientation adjustment 1,2021.2.3,Win32,59.89099838,,,,,,,
,,,,,,,,,,,,,,,,,,,,,,62.77777778,31,20,75,31.77777778,0.777777778,0.777777778,-58.22222222,-0.137036958,-0.391666693,1,0,0,0.9848,submitButton,0.272222257,-0.393518602,1,0,0,2,29,149,15,1,31,67060,1,180,2022-02-11_15h07.55.815,orientation adjustment 1,2021.2.3,Win32,59.89099838,pause_continueButton,,,,,,
,,,,,,,,,,,,,,,,,,,,,,30.55555556,-60,20,75,-41.44444444,18.55555556,18.55555556,-131.4444444,0.381481519,-0.327777802,1,0,0,0.1995,submitButton,-0.17314807,-0.392592619,0,0,0,2,30,150,44,1,60,67060,1,180,2022-02-11_15h07.55.815,orientation adjustment 1,2021.2.3,Win32,59.89099838,,,,,,,
,,,,,,,,,,,,,,,,,,,,,,33.33333333,-20,20,75,-22.66666667,2.666666667,2.666666667,-112.6666667,0.398148187,-0.327777802,1,0,0,0.2702,submitButton,-0.227777758,-0.400925953,0,0,0,2,31,151,4,1,20,67060,1,180,2022-02-11_15h07.55.815,orientation adjustment 1,2021.2.3,Win32,59.89099838,,,,,,,
,,,,,,,,,,,,,,,,,,,,,,-60,-45,20,75,-203,22,22,-293,-0.246296277,-0.394444471,1,0,0,2.2511,submitButton,0.17314818,-0.38333336,0,0,0,2,32,152,29,1,45,67060,1,180,2022-02-11_15h07.55.815,orientation adjustment 1,2021.2.3,Win32,59.89099838,,,,,,,
,,,,,,,,,,,,,,,,,,,,,,65,44,20,75,43,1,1,-47,0.387963001,-0.360185267,1,0,0,0.3331,submitButton,0.161111142,-0.063888906,0,0,0,2,33,153,28,1,44,67060,1,180,2022-02-11_15h07.55.815,orientation adjustment 1,2021.2.3,Win32,59.89099838,,,,,,,
,,,,,,,,,,,,,,,,,,,,,,51.11111111,-23,20,75,-22.88888889,0.111111111,0.111111111,-112.8888889,0.513888931,-0.312037061,1,0,0,0.0848,submitButton,-0.007407381,-0.389814841,0,0,0,2,34,154,7,1,23,67060,1,180,2022-02-11_15h07.55.815,orientation adjustment 1,2021.2.3,Win32,59.89099838,,,,,,,
,,,,,,,,,,,,,,,,,,,,,,-34.44444444,24,20,75,27.55555556,3.555555556,3.555555556,-62.44444444,-0.207407387,-0.42222225,1,0,0,0.6831,submitButton,-0.013888863,-0.350925951,0,0,0,2,35,155,8,1,24,67060,1,180,2022-02-11_15h07.55.815,orientation adjustment 1,2021.2.3,Win32,59.89099838,,,,,,,
,,,,,,,,,,,,,,,,,,,,,,-46.11111111,71,20,75,67.88888889,3.111111111,3.111111111,-22.11111111,-0.235185166,-0.395370397,1,0,0,4.6963,submitButton,0.321296332,-0.337037062,0,0,0,2,36,156,55,1,71,67060,1,180,2022-02-11_15h07.55.815,orientation adjustment 1,2021.2.3,Win32,59.89099838,,,,,,,
,,,,,,,,,,,,,,,,,,,,,,-45,-53,20,75,-47,6,6,-137,-0.223148128,-0.404629713,1,0,0,0.95,submitButton,0.410185224,-0.358333359,0,0,0,2,37,157,37,1,53,67060,1,180,2022-02-11_15h07.55.815,orientation adjustment 1,2021.2.3,Win32,59.89099838,,,,,,,
,,,,,,,,,,,,,,,,,,,,,,62.22222222,34,20,75,32.22222222,1.777777778,1.777777778,-57.77777778,-0.207407387,-0.410185269,1,0,0,1.1561,submitButton,-0.207407387,-0.410185269,0,0,0,2,38,158,18,1,34,67060,1,180,2022-02-11_15h07.55.815,orientation adjustment 1,2021.2.3,Win32,59.89099838,,,,,,,
,,,,,,,,,,,,,,,,,,,,,,43.88888889,22,20,75,23.88888889,1.888888889,1.888888889,-66.11111111,-0.167592515,-0.392592619,1,0,0,1.3671,submitButton,-0.167592515,-0.392592619,0,0,0,2,39,159,6,1,22,67060,1,180,2022-02-11_15h07.55.815,orientation adjustment 1,2021.2.3,Win32,59.89099838,,,,,,,
,,,,,,,,,,,,,,,,,,,,,,39.44444444,-64,20,75,-48.55555556,15.44444444,15.44444444,-138.5555556,0.431481521,-0.307407488,1,0,0,0.3669,submitButton,0.238888922,-0.313888913,0,0,0,2,40,160,48,1,64,67060,1,180,2022-02-11_15h07.55.815,orientation adjustment 1,2021.2.3,Win32,59.89099838,,,,,,,
,,,,,,,,,,,,,,,,,,,,,,45,-30,20,75,-31,1,1,-121,0.393518557,-0.29166669,1,0,0,0.0112,submitButton,0.043518603,-0.351851934,0,0,0,2,41,161,14,1,30,67060,1,180,2022-02-11_15h07.55.815,orientation adjustment 1,2021.2.3,Win32,59.89099838,,,,,,,
,,,,,,,,,,,,,,,,,,,,,,-56.66666667,-43,20,75,-221.6666667,1.333333333,1.333333333,-311.6666667,-0.22499998,-0.398148175,1,0,0,2.398,submitButton,0.297222258,-0.268518598,0,0,0,2,42,162,27,1,43,67060,1,180,2022-02-11_15h07.55.815,orientation adjustment 1,2021.2.3,Win32,59.89099838,,,,,,,
,,,,,,,,,,,,,,,,,,,,,,57.22222222,-52,20,75,-52.77777778,0.777777778,0.777777778,-142.7777778,-0.161111089,-0.416666694,1,0,0,1.2734,submitButton,0.258333368,-0.258333356,0,0,0,2,43,163,36,1,52,67060,1,180,2022-02-11_15h07.55.815,orientation adjustment 1,2021.2.3,Win32,59.89099838,,,,,,,
,,,,,,,,,,,,,,,,,,,,,,73.33333333,-61,20,75,-63.66666667,2.666666667,2.666666667,-153.6666667,-0.294444427,-0.395370397,1,0,0,1.6182,submitButton,0.282407442,-0.401851935,1,0,0,2,44,164,45,1,61,67060,1,180,2022-02-11_15h07.55.815,orientation adjustment 1,2021.2.3,Win32,59.89099838,pause_continueButton,,,,,,
,,,,,,,,,,,,,,,,,,,,,,63.88888889,69,20,75,185.8888889,63.11111111,63.11111111,95.88888889,0.20277781,-0.307407488,1,0,0,0.8494,submitButton,0.233333367,-0.256481504,0,0,0,2,45,165,53,1,69,67060,1,180,2022-02-11_15h07.55.815,orientation adjustment 1,2021.2.3,Win32,59.89099838,,,,,,,
,,,,,,,,,,,,,,,,,,,,,,33.88888889,-37,20,75,-30.11111111,6.888888889,6.888888889,-120.1111111,0.44537041,-0.277777801,1,0,0,0.2175,submitButton,0.260185219,-0.312963044,0,0,0,2,46,166,21,1,37,67060,1,180,2022-02-11_15h07.55.815,orientation adjustment 1,2021.2.3,Win32,59.89099838,,,,,,,
,,,,,,,,,,,,,,,,,,,,,,30.55555556,-49,20,75,-4.444444444,44.55555556,44.55555556,-94.44444444,0.169444476,-0.300000024,1,0,0,0.0673,submitButton,0.329629666,-0.320370395,0,0,0,2,47,167,33,1,49,67060,1,180,2022-02-11_15h07.55.815,orientation adjustment 1,2021.2.3,Win32,59.89099838,,,,,,,
,,,,,,,,,,,,,,,,,,,,,,38.33333333,39,20,75,36.33333333,2.666666667,2.666666667,-53.66666667,-0.284259241,-0.419444472,0,0,1,1.5627,submitButton,0.157407439,-0.290740821,0,0,0,2,48,168,23,1,39,67060,1,180,2022-02-11_15h07.55.815,orientation adjustment 1,2021.2.3,Win32,59.89099838,,,,,,,
,,,,,,,,,,,,,,,,,,,,,,-27.77777778,-50,20,75,-35.77777778,14.22222222,14.22222222,-125.7777778,-0.225925906,-0.403703731,1,0,0,0.9693,submitButton,0.187962995,-0.346296378,0,0,0,2,49,169,34,1,50,67060,1,180,2022-02-11_15h07.55.815,orientation adjustment 1,2021.2.3,Win32,59.89099838,,,,,,,
,,,,,,,,,,,,,,,,,,,,,,62.22222222,73,20,75,221.2222222,31.77777778,31.77777778,131.2222222,-0.140740718,-0.397222249,1,0,0,1.3405,submitButton,0.282407442,-0.283333357,0,0,0,2,50,170,57,1,73,67060,1,180,2022-02-11_15h07.55.815,orientation adjustment 1,2021.2.3,Win32,59.89099838,,,,,,,
,,,,,,,,,,,,,,,,,,,,,,-23.33333333,25,20,75,49.66666667,24.66666667,24.66666667,-40.33333333,-0.210185165,-0.393518602,1,0,0,0.9726,submitButton,0.336111148,-0.309259283,0,0,0,2,51,171,9,1,25,67060,1,180,2022-02-11_15h07.55.815,orientation adjustment 1,2021.2.3,Win32,59.89099838,,,,,,,
,,,,,,,,,,,,,,,,,,,,,,-56.11111111,-42,20,75,-216.1111111,5.888888889,5.888888889,-306.1111111,-0.176851831,-0.410185269,1,0,0,2.0096,submitButton,-0.176851831,-0.409259286,0,0,0,2,52,172,26,1,42,67060,1,180,2022-02-11_15h07.55.815,orientation adjustment 1,2021.2.3,Win32,59.89099838,,,,,,,
,,,,,,,,,,,,,,,,,,,,,,-62.22222222,-55,20,75,-201.2222222,33.77777778,33.77777778,-291.2222222,-0.184259238,-0.414814842,1,0,0,1.7998,submitButton,-0.183333312,-0.412037064,0,0,0,2,53,173,39,1,55,67060,1,180,2022-02-11_15h07.55.815,orientation adjustment 1,2021.2.3,Win32,59.89099838,,,,,,,
,,,,,,,,,,,,,,,,,,,,,,-35.55555556,-48,20,75,-32.55555556,15.44444444,15.44444444,-122.5555556,-0.222222202,-0.404629713,1,0,0,1.3833,submitButton,-0.19074072,-0.375000026,0,0,0,2,54,174,32,1,48,67060,1,180,2022-02-11_15h07.55.815,orientation adjustment 1,2021.2.3,Win32,59.89099838,,,,,,,
,,,,,,,,,,,,,,,,,,,,,,-59.44444444,-29,20,75,-29.44444444,0.444444444,0.444444444,-119.4444444,0.175925958,-0.306481506,1,0,0,7.676,submitButton,-0.199074054,-0.404629713,0,0,0,2,55,175,13,1,29,67060,1,180,2022-02-11_15h07.55.815,orientation adjustment 1,2021.2.3,Win32,59.89099838,,,,,,,
,,,,,,,,,,,,,,,,,,,,,,51.11111111,-33,20,75,-28.88888889,4.111111111,4.111111111,-118.8888889,-0.193518498,-0.415740825,1,0,0,1.6405,submitButton,0.308333369,-0.315740822,0,0,0,2,56,176,17,1,33,67060,1,180,2022-02-11_15h07.55.815,orientation adjustment 1,2021.2.3,Win32,59.89099838,,,,,,,
,,,,,,,,,,,,,,,,,,,,,,-28.88888889,-36,20,75,-29.88888889,6.111111111,6.111111111,-119.8888889,0.195370403,-0.300000024,1,0,0,0.2826,submitButton,0.105555585,-0.327777802,0,0,0,2,57,177,20,1,36,67060,1,180,2022-02-11_15h07.55.815,orientation adjustment 1,2021.2.3,Win32,59.89099838,,,,,,,
,,,,,,,,,,,,,,,,,,,,,,-57.77777778,59,20,75,53.22222222,5.777777778,5.777777778,-36.77777778,-0.135185163,-0.390740824,1,0,0,1.3007,submitButton,-0.155555534,-0.39629638,0,0,0,2,58,178,43,1,59,67060,1,180,2022-02-11_15h07.55.815,orientation adjustment 1,2021.2.3,Win32,59.89099838,,,,,,,
,,,,,,,,,,,,,,,,,,,,,,26.11111111,-47,20,75,-43.88888889,3.111111111,3.111111111,-133.8888889,0.420370409,-0.307407488,1,0,0,0.2116,submitButton,-0.013888863,-0.358333359,0,0,0,2,59,179,31,1,47,67060,1,180,2022-02-11_15h07.55.815,orientation adjustment 1,2021.2.3,Win32,59.89099838,,,,,,,
,,,,,,,,,,,,,,,,,,,,,,,,,,,,,,,,,,,,,,,,,,,,,,,,67060,1,180,2022-02-11_15h07.55.815,orientation adjustment 1,2021.2.3,Win32,59.89099838,,0.231481515,-0.38240749,1,0,0,EndButtonTxt
