consentMouse1.x,consentMouse1.y,consentMouse1.leftButton,consentMouse1.midButton,consentMouse1.rightButton,consentMouse1.clicked_name,consent_Mouse.x,consent_Mouse.y,consent_Mouse.leftButton,consent_Mouse.midButton,consent_Mouse.rightButton,consent_Mouse.clicked_name,startMouse.x,startMouse.y,startMouse.leftButton,startMouse.midButton,startMouse.rightButton,startMouse_2.x,startMouse_2.y,startMouse_2.leftButton,startMouse_2.midButton,startMouse_2.rightButton,start_distance,fixedOri,minimalDistance,maxOri,this_ori,accuracy,presented_accuracy,presented_this_ori,submitMouse.x,submitMouse.y,submitMouse.leftButton,submitMouse.midButton,submitMouse.rightButton,submitMouse.time,submitMouse.clicked_name,pauseMouse.x,pauseMouse.y,pauseMouse.leftButton,pauseMouse.midButton,pauseMouse.rightButton,trials.thisRepN,trials.thisTrialN,trials.thisN,trials.thisIndex,trials.ran,startOri,participant,condition,nTrials,date,expName,psychopyVersion,OS,frameRate,pauseMouse.clicked_name,EndButtonMouse.x,EndButtonMouse.y,EndButtonMouse.leftButton,EndButtonMouse.midButton,EndButtonMouse.rightButton,EndButtonMouse.clicked_name
0.323702257,-0.408355035,1,0,0,consent_button1,0.397664931,-0.405954861,1,0,0,consent_button,0.158242187,-0.209895833,1,0,0,0.189557292,-0.31577691,1,0,0,-56.66666667,-20,20,75,-70.66666667,50.66666667,50.66666667,-160.6666667,-0.423641493,-0.332235243,1,0,0,6.2651,submitButton,-0.412803819,-0.398519965,0,0,0,0,0,0,4,1,20,67417,1,180,2022-02-10_08h29.01.418,orientation adjustment 1,2021.2.3,MacIntel,60.0024001,,,,,,,
,,,,,,,,,,,,,,,,,,,,,,73.33333333,-54,20,75,52.33333333,73.66666667,73.66666667,-37.66666667,0.223003472,-0.283315972,1,0,0,2.1329,submitButton,-0.210581597,-0.415750868,0,0,0,0,1,1,38,1,54,67417,1,180,2022-02-10_08h29.01.418,orientation adjustment 1,2021.2.3,MacIntel,60.0024001,,,,,,,
,,,,,,,,,,,,,,,,,,,,,,-22.77777778,21,20,75,31.22222222,10.22222222,10.22222222,-58.77777778,0.188980035,-0.272743056,1,0,0,1.1329,submitButton,-0.25234809,-0.422313368,0,0,0,0,2,2,5,1,21,67417,1,180,2022-02-10_08h29.01.418,orientation adjustment 1,2021.2.3,MacIntel,60.0024001,,,,,,,
,,,,,,,,,,,,,,,,,,,,,,26.11111111,-45,20,75,-2.888888889,42.11111111,42.11111111,-92.88888889,0.179140625,-0.316835937,1,0,0,1.2505,submitButton,0.481944444,-0.323220486,0,0,0,0,3,3,29,1,45,67417,1,180,2022-02-10_08h29.01.418,orientation adjustment 1,2021.2.3,MacIntel,60.0024001,,,,,,,
,,,,,,,,,,,,,,,,,,,,,,-53.88888889,64,20,75,45.11111111,18.88888889,18.88888889,-44.88888889,0.216605903,-0.299965278,1,0,0,0.0334,submitButton,0.260455729,-0.147782118,0,0,0,0,4,4,48,1,64,67417,1,180,2022-02-10_08h29.01.418,orientation adjustment 1,2021.2.3,MacIntel,60.0024001,,,,,,,
,,,,,,,,,,,,,,,,,,,,,,69.44444444,18,20,75,63.44444444,45.44444444,45.44444444,-26.55555556,0.405711806,-0.268576389,1,0,0,0.4497,submitButton,-0.165907118,-0.399253472,0,0,0,0,5,5,2,1,18,67417,1,180,2022-02-10_08h29.01.418,orientation adjustment 1,2021.2.3,MacIntel,60.0024001,,,,,,,
,,,,,,,,,,,,,,,,,,,,,,-45.55555556,46,20,75,40.44444444,5.555555556,5.555555556,-49.55555556,0.198884549,-0.310898438,1,0,0,0.117,submitButton,-0.292829861,-0.414301215,0,0,0,0,6,6,30,1,46,67417,1,180,2022-02-10_08h29.01.418,orientation adjustment 1,2021.2.3,MacIntel,60.0024001,,,,,,,
,,,,,,,,,,,,,,,,,,,,,,-57.22222222,66,20,75,41.77777778,24.22222222,24.22222222,-48.22222222,0.167408854,-0.296501736,1,0,0,0.0501,submitButton,0.183880208,-0.254500868,0,0,0,0,7,7,50,1,66,67417,1,180,2022-02-10_08h29.01.418,orientation adjustment 1,2021.2.3,MacIntel,60.0024001,,,,,,,
,,,,,,,,,,,,,,,,,,,,,,-64.44444444,-42,20,75,-214.4444444,7.555555556,7.555555556,-304.4444444,0.419140625,-0.267599826,1,0,0,0.0837,submitButton,-0.250798611,-0.413085938,0,0,0,0,8,8,26,1,42,67417,1,180,2022-02-10_08h29.01.418,orientation adjustment 1,2021.2.3,MacIntel,60.0024001,,,,,,,
,,,,,,,,,,,,,,,,,,,,,,-46.66666667,26,20,75,23.33333333,2.666666667,2.666666667,-66.66666667,0.163541667,-0.287044271,1,0,0,0.0338,submitButton,0.129804687,-0.248719618,0,0,0,0,9,9,10,1,26,67417,1,180,2022-02-10_08h29.01.418,orientation adjustment 1,2021.2.3,MacIntel,60.0024001,,,,,,,
,,,,,,,,,,,,,,,,,,,,,,55.55555556,57,20,75,234.5555556,2.444444444,2.444444444,144.5555556,-0.35984375,-0.402994792,1,0,0,2.3497,submitButton,-0.359288194,-0.400833333,0,0,0,0,10,10,41,1,57,67417,1,180,2022-02-10_08h29.01.418,orientation adjustment 1,2021.2.3,MacIntel,60.0024001,,,,,,,
,,,,,,,,,,,,,,,,,,,,,,-36.11111111,16,20,75,18.88888889,2.888888889,2.888888889,-71.11111111,-0.285442708,-0.385190972,1,0,0,1.3154,submitButton,-0.285442708,-0.385190972,0,0,0,0,11,11,0,1,16,67417,1,180,2022-02-10_08h29.01.418,orientation adjustment 1,2021.2.3,MacIntel,60.0024001,,,,,,,
,,,,,,,,,,,,,,,,,,,,,,53.88888889,40,20,75,215.8888889,4.111111111,4.111111111,125.8888889,-0.235542535,-0.406223958,1,0,0,2.5509,submitButton,-0.235542535,-0.409001736,0,0,0,0,12,12,24,1,40,67417,1,180,2022-02-10_08h29.01.418,orientation adjustment 1,2021.2.3,MacIntel,60.0024001,,,,,,,
,,,,,,,,,,,,,,,,,,,,,,30,60,20,75,232,8,8,142,-0.293012153,-0.410607639,1,0,0,2.5836,submitButton,0.394201389,-0.231059028,0,0,0,0,13,13,44,1,60,67417,1,180,2022-02-10_08h29.01.418,orientation adjustment 1,2021.2.3,MacIntel,60.0024001,,,,,,,
,,,,,,,,,,,,,,,,,,,,,,28.33333333,-65,20,75,59.33333333,55.66666667,55.66666667,-30.66666667,-0.214661458,-0.399822049,1,0,0,1.666,submitButton,0.287083333,-0.374318576,1,0,0,0,14,14,49,1,65,67417,1,180,2022-02-10_08h29.01.418,orientation adjustment 1,2021.2.3,MacIntel,60.0024001,pause_continueButton,,,,,,
,,,,,,,,,,,,,,,,,,,,,,-53.33333333,71,20,75,67.66666667,3.333333333,3.333333333,-22.33333333,0.262730035,-0.330121528,1,0,0,1.283,submitButton,0.228463542,-0.280881076,0,0,0,0,15,15,55,1,71,67417,1,180,2022-02-10_08h29.01.418,orientation adjustment 1,2021.2.3,MacIntel,60.0024001,,,,,,,
,,,,,,,,,,,,,,,,,,,,,,-23.88888889,50,20,75,34.11111111,15.88888889,15.88888889,-55.88888889,0.449704861,-0.279296875,1,0,0,0.5002,submitButton,0.202296007,-0.171705729,0,0,0,0,16,16,34,1,50,67417,1,180,2022-02-10_08h29.01.418,orientation adjustment 1,2021.2.3,MacIntel,60.0024001,,,,,,,
,,,,,,,,,,,,,,,,,,,,,,44.44444444,56,20,75,231.4444444,4.555555556,4.555555556,141.4444444,-0.225703125,-0.399761285,1,0,0,2.6341,submitButton,-0.225147569,-0.399205729,0,0,0,0,17,17,40,1,56,67417,1,180,2022-02-10_08h29.01.418,orientation adjustment 1,2021.2.3,MacIntel,60.0024001,,,,,,,
,,,,,,,,,,,,,,,,,,,,,,47.22222222,24,20,75,34.22222222,10.22222222,10.22222222,-55.77777778,-0.258359375,-0.4259375,1,0,0,0.9671,submitButton,-0.047916667,-0.387465278,0,0,0,0,18,18,8,1,24,67417,1,180,2022-02-10_08h29.01.418,orientation adjustment 1,2021.2.3,MacIntel,60.0024001,,,,,,,
,,,,,,,,,,,,,,,,,,,,,,-38.88888889,-53,20,75,-222.8888889,10.11111111,10.11111111,-312.8888889,-0.258185764,-0.392135417,1,0,0,2.4999,submitButton,-0.258185764,-0.391579861,0,0,0,0,19,19,37,1,53,67417,1,180,2022-02-10_08h29.01.418,orientation adjustment 1,2021.2.3,MacIntel,60.0024001,,,,,,,
,,,,,,,,,,,,,,,,,,,,,,-61.11111111,-22,20,75,-55.11111111,33.11111111,33.11111111,-145.1111111,0.16108941,-0.292309028,1,0,0,0.4505,submitButton,0.31905816,-0.290286458,0,0,0,0,20,20,6,1,22,67417,1,180,2022-02-10_08h29.01.418,orientation adjustment 1,2021.2.3,MacIntel,60.0024001,,,,,,,
,,,,,,,,,,,,,,,,,,,,,,34.44444444,-32,20,75,-35.55555556,3.555555556,3.555555556,-125.5555556,-0.186618924,-0.408663194,1,0,0,1.1341,submitButton,-0.186618924,-0.408663194,0,0,0,0,21,21,16,1,32,67417,1,180,2022-02-10_08h29.01.418,orientation adjustment 1,2021.2.3,MacIntel,60.0024001,,,,,,,
,,,,,,,,,,,,,,,,,,,,,,-26.11111111,36,20,75,32.88888889,3.111111111,3.111111111,-57.11111111,-0.134457465,-0.408528646,1,0,0,0.7494,submitButton,-0.129079861,-0.409674479,0,0,0,0,22,22,20,1,36,67417,1,180,2022-02-10_08h29.01.418,orientation adjustment 1,2021.2.3,MacIntel,60.0024001,,,,,,,
,,,,,,,,,,,,,,,,,,,,,,-67.22222222,31,20,75,32.77777778,1.777777778,1.777777778,-57.22222222,0.183480903,-0.300060764,1,0,0,0.0511,submitButton,-0.261180556,-0.409118924,0,0,0,0,23,23,15,1,31,67417,1,180,2022-02-10_08h29.01.418,orientation adjustment 1,2021.2.3,MacIntel,60.0024001,,,,,,,
,,,,,,,,,,,,,,,,,,,,,,-71.66666667,-73,20,75,-232.6666667,20.33333333,20.33333333,-322.6666667,-0.121037326,-0.403125,1,0,0,1.6661,submitButton,-0.121037326,-0.403680556,0,0,0,0,24,24,57,1,73,67417,1,180,2022-02-10_08h29.01.418,orientation adjustment 1,2021.2.3,MacIntel,60.0024001,,,,,,,
,,,,,,,,,,,,,,,,,,,,,,24.44444444,49,20,75,48.44444444,0.555555556,0.555555556,-41.55555556,0.35796875,-0.290598958,1,0,0,0.034,submitButton,-0.214127604,-0.381822917,0,0,0,0,25,25,33,1,49,67417,1,180,2022-02-10_08h29.01.418,orientation adjustment 1,2021.2.3,MacIntel,60.0024001,,,,,,,
,,,,,,,,,,,,,,,,,,,,,,33.33333333,-61,20,75,-44.66666667,16.33333333,16.33333333,-134.6666667,0.379565972,-0.280342882,1,0,0,0.7833,submitButton,-0.131241319,-0.389422743,0,0,0,0,26,26,45,1,61,67417,1,180,2022-02-10_08h29.01.418,orientation adjustment 1,2021.2.3,MacIntel,60.0024001,,,,,,,
,,,,,,,,,,,,,,,,,,,,,,50,-72,20,75,-59,13,13,-149,0.340381944,-0.289053819,1,0,0,0.1007,submitButton,-0.149092882,-0.390915799,0,0,0,0,27,27,56,1,72,67417,1,180,2022-02-10_08h29.01.418,orientation adjustment 1,2021.2.3,MacIntel,60.0024001,,,,,,,
,,,,,,,,,,,,,,,,,,,,,,-48.33333333,75,20,75,58.66666667,16.33333333,16.33333333,-31.33333333,0.194713542,-0.264418403,1,0,0,0.2828,submitButton,-0.191358507,-0.405434028,0,0,0,0,28,28,59,1,75,67417,1,180,2022-02-10_08h29.01.418,orientation adjustment 1,2021.2.3,MacIntel,60.0024001,,,,,,,
,,,,,,,,,,,,,,,,,,,,,,-47.22222222,44,20,75,35.77777778,8.222222222,8.222222222,-54.22222222,-0.181419271,-0.388098958,1,0,0,0.983,submitButton,0.218185764,-0.405538194,1,0,0,0,29,29,28,1,44,67417,1,180,2022-02-10_08h29.01.418,orientation adjustment 1,2021.2.3,MacIntel,60.0024001,pause_continueButton,,,,,,
,,,,,,,,,,,,,,,,,,,,,,41.66666667,-33,20,75,-20.33333333,12.66666667,12.66666667,-110.3333333,-0.199171007,-0.404852431,1,0,0,0.934,submitButton,-0.199171007,-0.405407986,0,0,0,0,30,30,17,1,33,67417,1,180,2022-02-10_08h29.01.418,orientation adjustment 1,2021.2.3,MacIntel,60.0024001,,,,,,,
,,,,,,,,,,,,,,,,,,,,,,-47.22222222,-19,20,75,-42.22222222,23.22222222,23.22222222,-132.2222222,0.196601562,-0.286888021,1,0,0,1.8665,submitButton,-0.364244792,-0.412022569,0,0,0,0,31,31,3,1,19,67417,1,180,2022-02-10_08h29.01.418,orientation adjustment 1,2021.2.3,MacIntel,60.0024001,,,,,,,
,,,,,,,,,,,,,,,,,,,,,,33.88888889,69,20,75,234.8888889,14.11111111,14.11111111,144.8888889,0.258194444,-0.294474826,1,0,0,2.4012,submitButton,-0.106297743,-0.413190104,0,0,0,0,32,32,53,1,69,67417,1,180,2022-02-10_08h29.01.418,orientation adjustment 1,2021.2.3,MacIntel,60.0024001,,,,,,,
,,,,,,,,,,,,,,,,,,,,,,-58.33333333,27,20,75,24.66666667,2.333333333,2.333333333,-65.33333333,0.204071181,-0.325438368,1,0,0,1.0673,submitButton,-0.324748264,-0.422751736,0,0,0,0,33,33,11,1,27,67417,1,180,2022-02-10_08h29.01.418,orientation adjustment 1,2021.2.3,MacIntel,60.0024001,,,,,,,
,,,,,,,,,,,,,,,,,,,,,,-22.77777778,-58,20,75,11.22222222,69.22222222,69.22222222,-78.77777778,0.19890625,-0.329440104,1,0,0,0.9331,submitButton,-0.290733507,-0.421163194,0,0,0,0,34,34,42,1,58,67417,1,180,2022-02-10_08h29.01.418,orientation adjustment 1,2021.2.3,MacIntel,60.0024001,,,,,,,
,,,,,,,,,,,,,,,,,,,,,,72.22222222,52,20,75,124.2222222,72.22222222,72.22222222,34.22222222,-0.178138021,-0.378142361,1,0,0,0.5665,submitButton,-0.160798611,-0.37172309,0,0,0,0,35,35,36,1,52,67417,1,180,2022-02-10_08h29.01.418,orientation adjustment 1,2021.2.3,MacIntel,60.0024001,,,,,,,
,,,,,,,,,,,,,,,,,,,,,,48.88888889,-63,20,75,-52.11111111,10.88888889,10.88888889,-142.1111111,-0.149457465,-0.430125868,1,0,0,1.3665,submitButton,-0.0825,-0.369383681,0,0,0,0,36,36,47,1,63,67417,1,180,2022-02-10_08h29.01.418,orientation adjustment 1,2021.2.3,MacIntel,60.0024001,,,,,,,
,,,,,,,,,,,,,,,,,,,,,,70,-25,20,75,-24,1,1,-114,0.376861979,-0.31266059,1,0,0,0.9158,submitButton,-0.311276042,-0.397096354,0,0,0,0,37,37,9,1,25,67417,1,180,2022-02-10_08h29.01.418,orientation adjustment 1,2021.2.3,MacIntel,60.0024001,,,,,,,
,,,,,,,,,,,,,,,,,,,,,,40,-30,20,75,42,72,72,-48,0.185828993,-0.288420139,1,0,0,8.6163,submitButton,-0.262057292,-0.376384549,0,0,0,0,38,38,14,1,30,67417,1,180,2022-02-10_08h29.01.418,orientation adjustment 1,2021.2.3,MacIntel,60.0024001,,,,,,,
,,,,,,,,,,,,,,,,,,,,,,74.44444444,41,20,75,213.4444444,7.555555556,7.555555556,123.4444444,-0.37109809,-0.410633681,1,0,0,2.1166,submitButton,-0.37109809,-0.410633681,0,0,0,0,39,39,25,1,41,67417,1,180,2022-02-10_08h29.01.418,orientation adjustment 1,2021.2.3,MacIntel,60.0024001,,,,,,,
,,,,,,,,,,,,,,,,,,,,,,26.66666667,-47,20,75,-44.33333333,2.666666667,2.666666667,-134.3333333,-0.264418403,-0.414479167,1,0,0,0.7659,submitButton,-0.263862847,-0.413368056,0,0,0,0,40,40,31,1,47,67417,1,180,2022-02-10_08h29.01.418,orientation adjustment 1,2021.2.3,MacIntel,60.0024001,,,,,,,
,,,,,,,,,,,,,,,,,,,,,,-23.88888889,-38,20,75,-44.88888889,6.888888889,6.888888889,-134.8888889,0.199626736,-0.297287326,1,0,0,0.0163,submitButton,-0.364405382,-0.398107639,0,0,0,0,41,41,22,1,38,67417,1,180,2022-02-10_08h29.01.418,orientation adjustment 1,2021.2.3,MacIntel,60.0024001,,,,,,,
,,,,,,,,,,,,,,,,,,,,,,-31.11111111,-51,20,75,-53.11111111,2.111111111,2.111111111,-143.1111111,0.242018229,-0.315911458,1,0,0,0.2665,submitButton,-0.278567708,-0.42281684,0,0,0,0,42,42,35,1,51,67417,1,180,2022-02-10_08h29.01.418,orientation adjustment 1,2021.2.3,MacIntel,60.0024001,,,,,,,
,,,,,,,,,,,,,,,,,,,,,,55.55555556,35,20,75,65.55555556,30.55555556,30.55555556,-24.44444444,0.353502604,-0.319305556,1,0,0,1.9994,submitButton,-0.330885417,-0.402352431,0,0,0,0,43,43,19,1,35,67417,1,180,2022-02-10_08h29.01.418,orientation adjustment 1,2021.2.3,MacIntel,60.0024001,,,,,,,
,,,,,,,,,,,,,,,,,,,,,,67.77777778,-62,20,75,5.777777778,67.77777778,67.77777778,-84.22222222,-0.191167535,-0.387204861,1,0,0,12.1164,submitButton,0.250750868,-0.419253472,1,0,0,0,44,44,46,1,62,67417,1,180,2022-02-10_08h29.01.418,orientation adjustment 1,2021.2.3,MacIntel,60.0024001,pause_continueButton,,,,,,
,,,,,,,,,,,,,,,,,,,,,,29.44444444,-74,20,75,-74.55555556,0.555555556,0.555555556,-164.5555556,-0.2925,-0.432261285,1,0,0,1.1685,submitButton,-0.304084201,-0.409240451,0,0,0,0,45,45,58,1,74,67417,1,180,2022-02-10_08h29.01.418,orientation adjustment 1,2021.2.3,MacIntel,60.0024001,,,,,,,
,,,,,,,,,,,,,,,,,,,,,,-40,-70,20,75,-66,4,4,-156,0.216766493,-0.302282986,1,0,0,0.0669,submitButton,-0.245329861,-0.412126736,0,0,0,0,46,46,54,1,70,67417,1,180,2022-02-10_08h29.01.418,orientation adjustment 1,2021.2.3,MacIntel,60.0024001,,,,,,,
,,,,,,,,,,,,,,,,,,,,,,-56.66666667,39,20,75,29.33333333,9.666666667,9.666666667,-60.66666667,-0.296215278,-0.41546875,1,0,0,1.1334,submitButton,-0.305143229,-0.406987847,0,0,0,0,47,47,23,1,39,67417,1,180,2022-02-10_08h29.01.418,orientation adjustment 1,2021.2.3,MacIntel,60.0024001,,,,,,,
,,,,,,,,,,,,,,,,,,,,,,28.33333333,-43,20,75,-34.66666667,8.333333333,8.333333333,-124.6666667,-0.38328559,-0.418372396,1,0,0,0.6495,submitButton,-0.383559028,-0.415611979,0,0,0,0,48,48,27,1,43,67417,1,180,2022-02-10_08h29.01.418,orientation adjustment 1,2021.2.3,MacIntel,60.0024001,,,,,,,
,,,,,,,,,,,,,,,,,,,,,,-54.44444444,67,20,75,44.55555556,22.44444444,22.44444444,-45.44444444,-0.338233507,-0.416688368,1,0,0,0.6674,submitButton,-0.338233507,-0.416132813,0,0,0,0,49,49,51,1,67,67417,1,180,2022-02-10_08h29.01.418,orientation adjustment 1,2021.2.3,MacIntel,60.0024001,,,,,,,
,,,,,,,,,,,,,,,,,,,,,,-36.11111111,48,20,75,36.88888889,11.11111111,11.11111111,-53.11111111,0.187803819,-0.283315972,1,0,0,0.3659,submitButton,-0.282456597,-0.410147569,0,0,0,0,50,50,32,1,48,67417,1,180,2022-02-10_08h29.01.418,orientation adjustment 1,2021.2.3,MacIntel,60.0024001,,,,,,,
,,,,,,,,,,,,,,,,,,,,,,-38.33333333,17,20,75,23.66666667,6.666666667,6.666666667,-66.33333333,-0.352109375,-0.41687934,1,0,0,0.9659,submitButton,-0.352109375,-0.416362847,0,0,0,0,51,51,1,1,17,67417,1,180,2022-02-10_08h29.01.418,orientation adjustment 1,2021.2.3,MacIntel,60.0024001,,,,,,,
,,,,,,,,,,,,,,,,,,,,,,-26.66666667,-59,20,75,-65.66666667,6.666666667,6.666666667,-155.6666667,-0.30094184,-0.417851562,1,0,0,0.882,submitButton,-0.295455729,-0.41234809,0,0,0,0,52,52,43,1,59,67417,1,180,2022-02-10_08h29.01.418,orientation adjustment 1,2021.2.3,MacIntel,60.0024001,,,,,,,
,,,,,,,,,,,,,,,,,,,,,,-68.88888889,29,20,75,22.11111111,6.888888889,6.888888889,-67.88888889,-0.305208333,-0.401440972,1,0,0,1.3,submitButton,-0.304110243,-0.39655816,0,0,0,0,53,53,13,1,29,67417,1,180,2022-02-10_08h29.01.418,orientation adjustment 1,2021.2.3,MacIntel,60.0024001,,,,,,,
,,,,,,,,,,,,,,,,,,,,,,74.44444444,34,20,75,204.4444444,9.555555556,9.555555556,114.4444444,-0.365950521,-0.412009549,1,0,0,1.9654,submitButton,-0.366506076,-0.412009549,0,0,0,0,54,54,18,1,34,67417,1,180,2022-02-10_08h29.01.418,orientation adjustment 1,2021.2.3,MacIntel,60.0024001,,,,,,,
,,,,,,,,,,,,,,,,,,,,,,-46.11111111,-37,20,75,-52.11111111,15.11111111,15.11111111,-142.1111111,0.202387153,-0.287717014,1,0,0,0.4995,submitButton,-0.357473958,-0.414956597,0,0,0,0,55,55,21,1,37,67417,1,180,2022-02-10_08h29.01.418,orientation adjustment 1,2021.2.3,MacIntel,60.0024001,,,,,,,
,,,,,,,,,,,,,,,,,,,,,,-71.66666667,-23,20,75,-25.66666667,2.666666667,2.666666667,-115.6666667,-0.276549479,-0.390720486,1,0,0,1.715,submitButton,-0.277105035,-0.391276042,0,0,0,0,56,56,7,1,23,67417,1,180,2022-02-10_08h29.01.418,orientation adjustment 1,2021.2.3,MacIntel,60.0024001,,,,,,,
,,,,,,,,,,,,,,,,,,,,,,27.77777778,-28,20,75,-31.22222222,3.222222222,3.222222222,-121.2222222,0.422256944,-0.286488715,1,0,0,0.1505,submitButton,-0.210355903,-0.397382813,0,0,0,0,57,57,12,1,28,67417,1,180,2022-02-10_08h29.01.418,orientation adjustment 1,2021.2.3,MacIntel,60.0024001,,,,,,,
,,,,,,,,,,,,,,,,,,,,,,31.11111111,68,20,75,234.1111111,13.88888889,13.88888889,144.1111111,-0.379552951,-0.395503472,1,0,0,2.7176,submitButton,-0.378997396,-0.397725694,0,0,0,0,58,58,52,1,68,67417,1,180,2022-02-10_08h29.01.418,orientation adjustment 1,2021.2.3,MacIntel,60.0024001,,,,,,,
,,,,,,,,,,,,,,,,,,,,,,-56.11111111,-55,20,75,-59.11111111,4.111111111,4.111111111,-149.1111111,0.231453993,-0.301336806,1,0,0,0.3662,submitButton,0.229409722,-0.385512153,1,0,0,0,59,59,39,1,55,67417,1,180,2022-02-10_08h29.01.418,orientation adjustment 1,2021.2.3,MacIntel,60.0024001,pause_continueButton,,,,,,
,,,,,,,,,,,,,,,,,,,,,,-20,32,20,75,45,13,13,-45,-0.311679688,-0.392460937,1,0,0,0.9494,submitButton,-0.311679688,-0.393016493,0,0,0,1,0,60,16,1,32,67417,1,180,2022-02-10_08h29.01.418,orientation adjustment 1,2021.2.3,MacIntel,60.0024001,,,,,,,
,,,,,,,,,,,,,,,,,,,,,,22.77777778,-22,20,75,-37.22222222,15.22222222,15.22222222,-127.2222222,-0.223519965,-0.393624132,1,0,0,1.0668,submitButton,-0.225186632,-0.393624132,0,0,0,1,1,61,6,1,22,67417,1,180,2022-02-10_08h29.01.418,orientation adjustment 1,2021.2.3,MacIntel,60.0024001,,,,,,,
,,,,,,,,,,,,,,,,,,,,,,47.77777778,60,20,75,237.7777778,2.222222222,2.222222222,147.7777778,-0.302378472,-0.392513021,1,0,0,2.3671,submitButton,-0.302378472,-0.393624132,0,0,0,1,2,62,44,1,60,67417,1,180,2022-02-10_08h29.01.418,orientation adjustment 1,2021.2.3,MacIntel,60.0024001,,,,,,,
,,,,,,,,,,,,,,,,,,,,,,-50,-16,20,75,-34,18,18,-124,-0.295946181,-0.411037326,1,0,0,1.1842,submitButton,-0.295946181,-0.411037326,0,0,0,1,3,63,0,1,16,67417,1,180,2022-02-10_08h29.01.418,orientation adjustment 1,2021.2.3,MacIntel,60.0024001,,,,,,,
,,,,,,,,,,,,,,,,,,,,,,47.77777778,47,20,75,127.7777778,80.77777778,80.77777778,37.77777778,0.231354167,-0.294704861,1,0,0,3.7335,submitButton,-0.347955729,-0.402174479,0,0,0,1,4,64,31,1,47,67417,1,180,2022-02-10_08h29.01.418,orientation adjustment 1,2021.2.3,MacIntel,60.0024001,,,,,,,
,,,,,,,,,,,,,,,,,,,,,,-59.44444444,-24,20,75,47.55555556,71.55555556,71.55555556,-42.44444444,0.108454861,-0.33780816,1,0,0,0.3009,submitButton,-0.292387153,-0.383155382,0,0,0,1,5,65,8,1,24,67417,1,180,2022-02-10_08h29.01.418,orientation adjustment 1,2021.2.3,MacIntel,60.0024001,,,,,,,
,,,,,,,,,,,,,,,,,,,,,,-31.66666667,21,20,75,33.33333333,12.33333333,12.33333333,-56.66666667,-0.265455729,-0.415980903,1,0,0,1.3167,submitButton,-0.245889757,-0.415425347,0,0,0,1,6,66,5,1,21,67417,1,180,2022-02-10_08h29.01.418,orientation adjustment 1,2021.2.3,MacIntel,60.0024001,,,,,,,
,,,,,,,,,,,,,,,,,,,,,,-35,74,20,75,56,18,18,-34,-0.361731771,-0.418164062,1,0,0,0.9336,submitButton,-0.376822917,-0.402664931,0,0,0,1,7,67,58,1,74,67417,1,180,2022-02-10_08h29.01.418,orientation adjustment 1,2021.2.3,MacIntel,60.0024001,,,,,,,
,,,,,,,,,,,,,,,,,,,,,,-29.44444444,23,20,75,37.55555556,14.55555556,14.55555556,-52.44444444,-0.38671875,-0.389505208,1,0,0,1.3159,submitButton,-0.38671875,-0.389505208,0,0,0,1,8,68,7,1,23,67417,1,180,2022-02-10_08h29.01.418,orientation adjustment 1,2021.2.3,MacIntel,60.0024001,,,,,,,
,,,,,,,,,,,,,,,,,,,,,,70.55555556,73,20,75,219.5555556,33.44444444,33.44444444,129.5555556,0.222078993,-0.28734809,1,0,0,0.1164,submitButton,-0.284552951,-0.403515625,0,0,0,1,9,69,57,1,73,67417,1,180,2022-02-10_08h29.01.418,orientation adjustment 1,2021.2.3,MacIntel,60.0024001,,,,,,,
,,,,,,,,,,,,,,,,,,,,,,26.11111111,62,20,75,66.11111111,4.111111111,4.111111111,-23.88888889,0.319869792,-0.28609375,1,0,0,0.4666,submitButton,-0.384765625,-0.406111111,0,0,0,1,10,70,46,1,62,67417,1,180,2022-02-10_08h29.01.418,orientation adjustment 1,2021.2.3,MacIntel,60.0024001,,,,,,,
,,,,,,,,,,,,,,,,,,,,,,-47.22222222,49,20,75,38.77777778,10.22222222,10.22222222,-51.22222222,0.159722222,-0.323663194,1,0,0,0.1174,submitButton,-0.349322917,-0.401210937,0,0,0,1,11,71,33,1,49,67417,1,180,2022-02-10_08h29.01.418,orientation adjustment 1,2021.2.3,MacIntel,60.0024001,,,,,,,
,,,,,,,,,,,,,,,,,,,,,,28.88888889,64,20,75,61.88888889,2.111111111,2.111111111,-28.11111111,0.446987847,-0.337434896,1,0,0,8.6684,submitButton,-0.284605035,-0.402061632,0,0,0,1,12,72,48,1,64,67417,1,180,2022-02-10_08h29.01.418,orientation adjustment 1,2021.2.3,MacIntel,60.0024001,,,,,,,
,,,,,,,,,,,,,,,,,,,,,,-46.66666667,71,20,75,138.3333333,67.33333333,67.33333333,48.33333333,0.20734375,-0.277174479,1,0,0,1.4329,submitButton,0.018528646,-0.16640625,0,0,0,1,13,73,55,1,71,67417,1,180,2022-02-10_08h29.01.418,orientation adjustment 1,2021.2.3,MacIntel,60.0024001,,,,,,,
,,,,,,,,,,,,,,,,,,,,,,-50,-51,20,75,-122,71,71,-212,0.349279514,-0.270720486,1,0,0,1.1165,submitButton,0.246232639,-0.417243924,1,0,0,1,14,74,35,1,51,67417,1,180,2022-02-10_08h29.01.418,orientation adjustment 1,2021.2.3,MacIntel,60.0024001,pause_continueButton,,,,,,
,,,,,,,,,,,,,,,,,,,,,,43.33333333,-42,20,75,-25.66666667,16.33333333,16.33333333,-115.6666667,-0.231263021,-0.398784722,1,0,0,1.1836,submitButton,-0.231818576,-0.399340278,0,0,0,1,15,75,26,1,42,67417,1,180,2022-02-10_08h29.01.418,orientation adjustment 1,2021.2.3,MacIntel,60.0024001,,,,,,,
,,,,,,,,,,,,,,,,,,,,,,37.22222222,38,20,75,196.2222222,21.77777778,21.77777778,106.2222222,0.180976562,-0.279930556,1,0,0,7.6497,submitButton,-0.390924479,-0.406892361,0,0,0,1,16,76,22,1,38,67417,1,180,2022-02-10_08h29.01.418,orientation adjustment 1,2021.2.3,MacIntel,60.0024001,,,,,,,
,,,,,,,,,,,,,,,,,,,,,,45,-37,20,75,25,62,62,-65,0.36108941,-0.304348958,1,0,0,1.9505,submitButton,-0.324939236,-0.400373264,0,0,0,1,17,77,21,1,37,67417,1,180,2022-02-10_08h29.01.418,orientation adjustment 1,2021.2.3,MacIntel,60.0024001,,,,,,,
,,,,,,,,,,,,,,,,,,,,,,-52.77777778,-65,20,75,-77.77777778,12.77777778,12.77777778,-167.7777778,-0.315390625,-0.383420139,1,0,0,1.3344,submitButton,-0.360481771,-0.436397569,0,0,0,1,18,78,49,1,65,67417,1,180,2022-02-10_08h29.01.418,orientation adjustment 1,2021.2.3,MacIntel,60.0024001,,,,,,,
,,,,,,,,,,,,,,,,,,,,,,31.66666667,-17,20,75,126.6666667,36.33333333,36.33333333,36.66666667,0.24266059,-0.312426215,1,0,0,4.2663,submitButton,-0.358402778,-0.396497396,0,0,0,1,19,79,1,1,17,67417,1,180,2022-02-10_08h29.01.418,orientation adjustment 1,2021.2.3,MacIntel,60.0024001,,,,,,,
,,,,,,,,,,,,,,,,,,,,,,60.55555556,66,20,75,301.5555556,55.55555556,55.55555556,211.5555556,0.1996875,-0.288255208,1,0,0,0.7666,submitButton,0.059782986,-0.435052083,0,0,0,1,20,80,50,1,66,67417,1,180,2022-02-10_08h29.01.418,orientation adjustment 1,2021.2.3,MacIntel,60.0024001,,,,,,,
,,,,,,,,,,,,,,,,,,,,,,-32.22222222,-68,20,75,-54.22222222,13.77777778,13.77777778,-144.2222222,-0.367868924,-0.414908854,1,0,0,1.3998,submitButton,-0.352395833,-0.420611979,0,0,0,1,21,81,52,1,68,67417,1,180,2022-02-10_08h29.01.418,orientation adjustment 1,2021.2.3,MacIntel,60.0024001,,,,,,,
,,,,,,,,,,,,,,,,,,,,,,36.66666667,69,20,75,221.6666667,27.33333333,27.33333333,131.6666667,0.193802083,-0.30655816,1,0,0,1.0327,submitButton,-0.348710937,-0.403888889,0,0,0,1,22,82,53,1,69,67417,1,180,2022-02-10_08h29.01.418,orientation adjustment 1,2021.2.3,MacIntel,60.0024001,,,,,,,
,,,,,,,,,,,,,,,,,,,,,,62.77777778,-31,20,75,128.7777778,20.22222222,20.22222222,38.77777778,-0.184184028,-0.430811632,1,0,0,2.1162,submitButton,-0.178546007,-0.411302083,0,0,0,1,23,83,15,1,31,67417,1,180,2022-02-10_08h29.01.418,orientation adjustment 1,2021.2.3,MacIntel,60.0024001,,,,,,,
,,,,,,,,,,,,,,,,,,,,,,55.55555556,61,20,75,228.5555556,12.44444444,12.44444444,138.5555556,0.204357639,-0.3221875,1,0,0,1.7334,submitButton,0.041918403,-0.393506944,0,0,0,1,24,84,45,1,61,67417,1,180,2022-02-10_08h29.01.418,orientation adjustment 1,2021.2.3,MacIntel,60.0024001,,,,,,,
,,,,,,,,,,,,,,,,,,,,,,-38.88888889,-28,20,75,47.11111111,75.11111111,75.11111111,-42.88888889,0.160807292,-0.317981771,1,0,0,7.7655,submitButton,-0.274496528,-0.380321181,0,0,0,1,25,85,12,1,28,67417,1,180,2022-02-10_08h29.01.418,orientation adjustment 1,2021.2.3,MacIntel,60.0024001,,,,,,,
,,,,,,,,,,,,,,,,,,,,,,-27.22222222,-75,20,75,-67.22222222,7.777777778,7.777777778,-157.2222222,0.153854167,-0.300447049,1,0,0,0.0326,submitButton,-0.335989583,-0.499978299,0,0,0,1,26,86,59,1,75,67417,1,180,2022-02-10_08h29.01.418,orientation adjustment 1,2021.2.3,MacIntel,60.0024001,,,,,,,
,,,,,,,,,,,,,,,,,,,,,,36.66666667,41,20,75,39.66666667,1.333333333,1.333333333,-50.33333333,-0.313997396,-0.407530382,1,0,0,1.3006,submitButton,-0.313997396,-0.408085937,0,0,0,1,27,87,25,1,41,67417,1,180,2022-02-10_08h29.01.418,orientation adjustment 1,2021.2.3,MacIntel,60.0024001,,,,,,,
,,,,,,,,,,,,,,,,,,,,,,66.11111111,-40,20,75,-34.88888889,5.111111111,5.111111111,-124.8888889,0.381501736,-0.267387153,1,0,0,1.9822,submitButton,0.047473958,-0.198389757,0,0,0,1,28,88,24,1,40,67417,1,180,2022-02-10_08h29.01.418,orientation adjustment 1,2021.2.3,MacIntel,60.0024001,,,,,,,
,,,,,,,,,,,,,,,,,,,,,,-22.22222222,59,20,75,44.77777778,14.22222222,14.22222222,-45.22222222,0.414565972,-0.286150174,1,0,0,0.2843,submitButton,0.553997396,-0.414383681,1,0,0,1,29,89,43,1,59,67417,1,180,2022-02-10_08h29.01.418,orientation adjustment 1,2021.2.3,MacIntel,60.0024001,pause_continueButton,,,,,,
,,,,,,,,,,,,,,,,,,,,,,33.33333333,-53,20,75,-19.66666667,33.33333333,33.33333333,-109.6666667,-0.180086806,-0.378936632,1,0,0,1.5832,submitButton,0.10687934,-0.391631944,0,0,0,1,30,90,37,1,53,67417,1,180,2022-02-10_08h29.01.418,orientation adjustment 1,2021.2.3,MacIntel,60.0024001,,,,,,,
,,,,,,,,,,,,,,,,,,,,,,51.11111111,44,20,75,215.1111111,8.888888889,8.888888889,125.1111111,-0.367243924,-0.419926215,1,0,0,3.1334,submitButton,-0.367243924,-0.419926215,0,0,0,1,31,91,28,1,44,67417,1,180,2022-02-10_08h29.01.418,orientation adjustment 1,2021.2.3,MacIntel,60.0024001,,,,,,,
,,,,,,,,,,,,,,,,,,,,,,48.88888889,-39,20,75,-37.11111111,1.888888889,1.888888889,-127.1111111,0.390694444,-0.314765625,1,0,0,0.7179,submitButton,0.053619792,-0.499978299,0,0,0,1,32,92,23,1,39,67417,1,180,2022-02-10_08h29.01.418,orientation adjustment 1,2021.2.3,MacIntel,60.0024001,,,,,,,
,,,,,,,,,,,,,,,,,,,,,,25.55555556,-29,20,75,19.55555556,48.55555556,48.55555556,-70.44444444,0.204071181,-0.3075,1,0,0,1.9835,submitButton,-0.573003472,-0.383515625,0,0,0,1,33,93,13,1,29,67417,1,180,2022-02-10_08h29.01.418,orientation adjustment 1,2021.2.3,MacIntel,60.0024001,,,,,,,
,,,,,,,,,,,,,,,,,,,,,,55.55555556,19,20,75,35.55555556,16.55555556,16.55555556,-54.44444444,0.419431424,-0.318116319,1,0,0,0.2663,submitButton,-0.159596354,-0.415516493,0,0,0,1,34,94,3,1,19,67417,1,180,2022-02-10_08h29.01.418,orientation adjustment 1,2021.2.3,MacIntel,60.0024001,,,,,,,
,,,,,,,,,,,,,,,,,,,,,,-27.77777778,72,20,75,82.22222222,10.22222222,10.22222222,-7.777777778,0.124140625,-0.283849826,0,0,1,0.5169,submitButton,-0.289079861,-0.411414931,0,0,1,1,35,95,56,1,72,67417,1,180,2022-02-10_08h29.01.418,orientation adjustment 1,2021.2.3,MacIntel,60.0024001,,,,,,,
,,,,,,,,,,,,,,,,,,,,,,-73.88888889,-43,20,75,-70.88888889,27.88888889,27.88888889,-160.8888889,0.210091146,-0.296241319,1,0,1,7.1331,submitButton,-0.225794271,-0.409934896,0,0,1,1,36,96,27,1,43,67417,1,180,2022-02-10_08h29.01.418,orientation adjustment 1,2021.2.3,MacIntel,60.0024001,,,,,,,
,,,,,,,,,,,,,,,,,,,,,,57.77777778,58,20,75,40.77777778,17.22222222,17.22222222,-49.22222222,0.429210069,-0.312695312,1,0,1,2.7334,submitButton,-0.231944444,-0.398307292,0,0,1,1,37,97,42,1,58,67417,1,180,2022-02-10_08h29.01.418,orientation adjustment 1,2021.2.3,MacIntel,60.0024001,,,,,,,
,,,,,,,,,,,,,,,,,,,,,,-27.22222222,26,20,75,81.77777778,55.77777778,55.77777778,-8.222222222,0.168320313,-0.320442708,1,0,1,1.9495,submitButton,-0.346983507,-0.407708333,0,0,1,1,38,98,10,1,26,67417,1,180,2022-02-10_08h29.01.418,orientation adjustment 1,2021.2.3,MacIntel,60.0024001,,,,,,,
,,,,,,,,,,,,,,,,,,,,,,-57.77777778,18,20,75,41.22222222,23.22222222,23.22222222,-48.77777778,0.262309028,-0.31953125,1,0,1,11.5991,submitButton,-0.363945313,-0.40233941,0,0,1,1,39,99,2,1,18,67417,1,180,2022-02-10_08h29.01.418,orientation adjustment 1,2021.2.3,MacIntel,60.0024001,,,,,,,
,,,,,,,,,,,,,,,,,,,,,,-73.88888889,-20,20,75,-54.88888889,34.88888889,34.88888889,-144.8888889,-0.191362847,-0.389014757,1,0,1,0.9009,submitButton,-0.191362847,-0.38875434,0,0,1,1,40,100,4,1,20,67417,1,180,2022-02-10_08h29.01.418,orientation adjustment 1,2021.2.3,MacIntel,60.0024001,,,,,,,
,,,,,,,,,,,,,,,,,,,,,,21.66666667,56,20,75,43.66666667,12.33333333,12.33333333,-46.33333333,-0.258463542,-0.439505208,1,0,1,1.8673,submitButton,-0.2534375,-0.379292535,0,0,1,1,41,101,40,1,56,67417,1,180,2022-02-10_08h29.01.418,orientation adjustment 1,2021.2.3,MacIntel,60.0024001,,,,,,,
,,,,,,,,,,,,,,,,,,,,,,-44.44444444,45,20,75,41.55555556,3.444444444,3.444444444,-48.44444444,-0.343068576,-0.418923611,1,0,1,0.85,submitButton,-0.343068576,-0.418368056,0,0,1,1,42,102,29,1,45,67417,1,180,2022-02-10_08h29.01.418,orientation adjustment 1,2021.2.3,MacIntel,60.0024001,,,,,,,
,,,,,,,,,,,,,,,,,,,,,,49.44444444,57,20,75,231.4444444,5.555555556,5.555555556,141.4444444,-0.426362847,-0.388355035,1,0,1,3.8165,submitButton,-0.426362847,-0.388355035,0,0,1,1,43,103,41,1,57,67417,1,180,2022-02-10_08h29.01.418,orientation adjustment 1,2021.2.3,MacIntel,60.0024001,,,,,,,
,,,,,,,,,,,,,,,,,,,,,,64.44444444,-63,20,75,-34.55555556,28.44444444,28.44444444,-124.5555556,-0.39578125,-0.403506944,1,0,1,1.15,submitButton,0.188359375,-0.390251736,1,0,1,1,44,104,47,1,63,67417,1,180,2022-02-10_08h29.01.418,orientation adjustment 1,2021.2.3,MacIntel,60.0024001,pause_continueButton,,,,,,
,,,,,,,,,,,,,,,,,,,,,,-70,70,20,75,49,21,21,-41,-0.298155382,-0.430256076,1,0,1,0.7835,submitButton,-0.025351563,-0.330581597,0,0,1,1,45,105,54,1,70,67417,1,180,2022-02-10_08h29.01.418,orientation adjustment 1,2021.2.3,MacIntel,60.0024001,,,,,,,
,,,,,,,,,,,,,,,,,,,,,,-20,55,20,75,41,14,14,-49,-0.214605035,-0.380512153,1,0,1,1.9163,submitButton,-0.214049479,-0.381623264,0,0,1,1,46,106,39,1,55,67417,1,180,2022-02-10_08h29.01.418,orientation adjustment 1,2021.2.3,MacIntel,60.0024001,,,,,,,
,,,,,,,,,,,,,,,,,,,,,,58.88888889,-25,20,75,-27.11111111,2.111111111,2.111111111,-117.1111111,-0.234800347,-0.419014757,1,0,1,1.7666,submitButton,-0.234800347,-0.419014757,0,0,1,1,47,107,9,1,25,67417,1,180,2022-02-10_08h29.01.418,orientation adjustment 1,2021.2.3,MacIntel,60.0024001,,,,,,,
,,,,,,,,,,,,,,,,,,,,,,22.22222222,34,20,75,56.22222222,22.22222222,22.22222222,-33.77777778,-0.339561632,-0.414010417,1,0,1,0.4501,submitButton,-0.339561632,-0.414010417,0,0,1,1,48,108,18,1,34,67417,1,180,2022-02-10_08h29.01.418,orientation adjustment 1,2021.2.3,MacIntel,60.0024001,,,,,,,
,,,,,,,,,,,,,,,,,,,,,,70.55555556,35,20,75,212.5555556,2.444444444,2.444444444,122.5555556,-0.237617187,-0.400980903,1,0,1,3.6661,submitButton,-0.237061632,-0.403203125,0,0,1,1,49,109,19,1,35,67417,1,180,2022-02-10_08h29.01.418,orientation adjustment 1,2021.2.3,MacIntel,60.0024001,,,,,,,
,,,,,,,,,,,,,,,,,,,,,,-65.55555556,-46,20,75,-238.5555556,12.55555556,12.55555556,-328.5555556,-0.514105903,-0.404314236,1,0,1,2.7499,submitButton,-0.514105903,-0.403758681,0,0,1,1,50,110,30,1,46,67417,1,180,2022-02-10_08h29.01.418,orientation adjustment 1,2021.2.3,MacIntel,60.0024001,,,,,,,
,,,,,,,,,,,,,,,,,,,,,,-39.44444444,67,20,75,58.55555556,8.444444444,8.444444444,-31.44444444,0.176592882,-0.304900174,1,0,1,0.6827,submitButton,-0.287269965,-0.375733507,0,0,1,1,51,111,51,1,67,67417,1,180,2022-02-10_08h29.01.418,orientation adjustment 1,2021.2.3,MacIntel,60.0024001,,,,,,,
,,,,,,,,,,,,,,,,,,,,,,66.11111111,27,20,75,127.1111111,79.88888889,79.88888889,37.11111111,-0.243255208,-0.38375434,1,0,1,1.9006,submitButton,-0.243255208,-0.384309896,0,0,1,1,52,112,11,1,27,67417,1,180,2022-02-10_08h29.01.418,orientation adjustment 1,2021.2.3,MacIntel,60.0024001,,,,,,,
,,,,,,,,,,,,,,,,,,,,,,-65.55555556,-36,20,75,-238.5555556,22.55555556,22.55555556,-328.5555556,-0.346953125,-0.413263889,1,0,1,2.8333,submitButton,-0.346953125,-0.413263889,0,0,1,1,53,113,20,1,36,67417,1,180,2022-02-10_08h29.01.418,orientation adjustment 1,2021.2.3,MacIntel,60.0024001,,,,,,,
,,,,,,,,,,,,,,,,,,,,,,22.77777778,54,20,75,51.77777778,2.222222222,2.222222222,-38.22222222,-0.166623264,-0.405065104,1,0,1,1.5984,submitButton,-0.166623264,-0.405065104,0,0,1,1,54,114,38,1,54,67417,1,180,2022-02-10_08h29.01.418,orientation adjustment 1,2021.2.3,MacIntel,60.0024001,,,,,,,
,,,,,,,,,,,,,,,,,,,,,,48.88888889,52,20,75,223.8888889,8.111111111,8.111111111,133.8888889,-0.330828993,-0.398645833,1,0,1,3.2501,submitButton,-0.330273437,-0.399249132,0,0,1,1,55,115,36,1,52,67417,1,180,2022-02-10_08h29.01.418,orientation adjustment 1,2021.2.3,MacIntel,60.0024001,,,,,,,
,,,,,,,,,,,,,,,,,,,,,,34.44444444,30,20,75,52.44444444,22.44444444,22.44444444,-37.55555556,-0.229835069,-0.424674479,1,0,1,2.0982,submitButton,-0.229835069,-0.424118924,0,0,1,1,56,116,14,1,30,67417,1,180,2022-02-10_08h29.01.418,orientation adjustment 1,2021.2.3,MacIntel,60.0024001,,,,,,,
,,,,,,,,,,,,,,,,,,,,,,51.66666667,-33,20,75,-25.33333333,7.666666667,7.666666667,-115.3333333,-0.349700521,-0.407434896,1,0,1,1.1003,submitButton,-0.349700521,-0.40687934,0,0,1,1,57,117,17,1,33,67417,1,180,2022-02-10_08h29.01.418,orientation adjustment 1,2021.2.3,MacIntel,60.0024001,,,,,,,
,,,,,,,,,,,,,,,,,,,,,,-26.66666667,50,20,75,-34.66666667,84.66666667,84.66666667,-124.6666667,-0.295390625,-0.411475694,1,0,1,1.3172,submitButton,-0.295390625,-0.410920139,0,0,1,1,58,118,34,1,50,67417,1,180,2022-02-10_08h29.01.418,orientation adjustment 1,2021.2.3,MacIntel,60.0024001,,,,,,,
,,,,,,,,,,,,,,,,,,,,,,52.22222222,48,20,75,252.2222222,24.22222222,24.22222222,162.2222222,-0.215399306,-0.410117187,1,0,1,4.1334,submitButton,0.301176215,-0.402743056,1,0,1,1,59,119,32,1,48,67417,1,180,2022-02-10_08h29.01.418,orientation adjustment 1,2021.2.3,MacIntel,60.0024001,pause_continueButton,,,,,,
,,,,,,,,,,,,,,,,,,,,,,-42.77777778,16,20,75,31.22222222,15.22222222,15.22222222,-58.77777778,-0.20859809,-0.429613715,1,0,1,1.733,submitButton,-0.20703125,-0.411631944,0,0,1,2,0,120,0,1,16,67417,1,180,2022-02-10_08h29.01.418,orientation adjustment 1,2021.2.3,MacIntel,60.0024001,,,,,,,
,,,,,,,,,,,,,,,,,,,,,,37.77777778,-34,20,75,-44.22222222,10.22222222,10.22222222,-134.2222222,-0.5665625,-0.381059028,1,0,1,1,submitButton,-0.566006944,-0.379752604,0,0,1,2,1,121,18,1,34,67417,1,180,2022-02-10_08h29.01.418,orientation adjustment 1,2021.2.3,MacIntel,60.0024001,,,,,,,
,,,,,,,,,,,,,,,,,,,,,,22.22222222,-53,20,75,-59.77777778,6.777777778,6.777777778,-149.7777778,-0.22437066,-0.445299479,1,0,1,0.9673,submitButton,-0.22437066,-0.422178819,0,0,1,2,2,122,37,1,53,67417,1,180,2022-02-10_08h29.01.418,orientation adjustment 1,2021.2.3,MacIntel,60.0024001,,,,,,,
,,,,,,,,,,,,,,,,,,,,,,-25,39,20,75,-45,84,84,-135,-0.208641493,-0.403272569,1,0,1,2.933,submitButton,-0.026128472,-0.346219618,0,0,1,2,3,123,23,1,39,67417,1,180,2022-02-10_08h29.01.418,orientation adjustment 1,2021.2.3,MacIntel,60.0024001,,,,,,,
,,,,,,,,,,,,,,,,,,,,,,-57.22222222,54,20,75,44.77777778,9.222222222,9.222222222,-45.22222222,-0.256388889,-0.425026042,1,0,1,0.7989,submitButton,-0.254396701,-0.423333333,0,0,1,2,4,124,38,1,54,67417,1,180,2022-02-10_08h29.01.418,orientation adjustment 1,2021.2.3,MacIntel,60.0024001,,,,,,,
,,,,,,,,,,,,,,,,,,,,,,-27.22222222,-44,20,75,-49.22222222,5.222222222,5.222222222,-139.2222222,-0.210585937,-0.408398437,1,0,1,1.0001,submitButton,-0.210069444,-0.409092882,0,0,1,2,5,125,28,1,44,67417,1,180,2022-02-10_08h29.01.418,orientation adjustment 1,2021.2.3,MacIntel,60.0024001,,,,,,,
,,,,,,,,,,,,,,,,,,,,,,-47.77777778,50,20,75,55.22222222,5.222222222,5.222222222,-34.77777778,-0.210998264,-0.428541667,1,0,1,1.0505,submitButton,0.030598958,-0.425355903,0,0,1,2,6,126,34,1,50,67417,1,180,2022-02-10_08h29.01.418,orientation adjustment 1,2021.2.3,MacIntel,60.0024001,,,,,,,
,,,,,,,,,,,,,,,,,,,,,,43.88888889,-63,20,75,-49.11111111,13.88888889,13.88888889,-139.1111111,-0.32999566,-0.419856771,1,0,1,0.4338,submitButton,-0.318819444,-0.416432292,0,0,1,2,7,127,47,1,63,67417,1,180,2022-02-10_08h29.01.418,orientation adjustment 1,2021.2.3,MacIntel,60.0024001,,,,,,,
,,,,,,,,,,,,,,,,,,,,,,28.88888889,28,20,75,227.8888889,19.88888889,19.88888889,137.8888889,-0.467877604,-0.401137153,1,0,1,2.4493,submitButton,-0.457096354,-0.400876736,0,0,1,2,8,128,12,1,28,67417,1,180,2022-02-10_08h29.01.418,orientation adjustment 1,2021.2.3,MacIntel,60.0024001,,,,,,,
,,,,,,,,,,,,,,,,,,,,,,-63.88888889,-64,20,75,-238.8888889,5.111111111,5.111111111,-328.8888889,-0.543975694,-0.389383681,1,0,1,2.4509,submitButton,-0.542313368,-0.390234375,0,0,1,2,9,129,48,1,64,67417,1,180,2022-02-10_08h29.01.418,orientation adjustment 1,2021.2.3,MacIntel,60.0024001,,,,,,,
,,,,,,,,,,,,,,,,,,,,,,-21.66666667,-56,20,75,-54.66666667,1.333333333,1.333333333,-144.6666667,-0.261888021,-0.390516493,1,0,1,1.3334,submitButton,-0.261888021,-0.391072049,0,0,1,2,10,130,40,1,56,67417,1,180,2022-02-10_08h29.01.418,orientation adjustment 1,2021.2.3,MacIntel,60.0024001,,,,,,,
,,,,,,,,,,,,,,,,,,,,,,-67.22222222,-52,20,75,-50.22222222,1.777777778,1.777777778,-140.2222222,-0.408693576,-0.408515625,1,0,1,1.7838,submitButton,-0.408693576,-0.408515625,0,0,1,2,11,131,36,1,52,67417,1,180,2022-02-10_08h29.01.418,orientation adjustment 1,2021.2.3,MacIntel,60.0024001,,,,,,,
,,,,,,,,,,,,,,,,,,,,,,-47.77777778,-60,20,75,-35.77777778,24.22222222,24.22222222,-125.7777778,-0.47093316,-0.411914063,1,0,1,1.8837,submitButton,-0.472265625,-0.411662326,0,0,1,2,12,132,44,1,60,67417,1,180,2022-02-10_08h29.01.418,orientation adjustment 1,2021.2.3,MacIntel,60.0024001,,,,,,,
,,,,,,,,,,,,,,,,,,,,,,-70.55555556,-49,20,75,-46.55555556,2.444444444,2.444444444,-136.5555556,-0.234717882,-0.399973958,1,0,1,2.7846,submitButton,-0.234717882,-0.399418403,0,0,1,2,13,133,33,1,49,67417,1,180,2022-02-10_08h29.01.418,orientation adjustment 1,2021.2.3,MacIntel,60.0024001,,,,,,,
,,,,,,,,,,,,,,,,,,,,,,34.44444444,25,20,75,37.44444444,12.44444444,12.44444444,-52.55555556,-0.413302951,-0.400694444,1,0,1,0.9655,submitButton,0.270907118,-0.416901042,1,0,1,2,14,134,9,1,25,67417,1,180,2022-02-10_08h29.01.418,orientation adjustment 1,2021.2.3,MacIntel,60.0024001,pause_continueButton,,,,,,
,,,,,,,,,,,,,,,,,,,,,,-27.77777778,57,20,75,45.22222222,11.77777778,11.77777778,-44.77777778,-0.110863715,-0.415855035,1,0,1,1.1003,submitButton,-0.110863715,-0.415855035,0,0,1,2,15,135,41,1,57,67417,1,180,2022-02-10_08h29.01.418,orientation adjustment 1,2021.2.3,MacIntel,60.0024001,,,,,,,
,,,,,,,,,,,,,,,,,,,,,,63.33333333,-75,20,75,-54.66666667,20.33333333,20.33333333,-144.6666667,-0.291740451,-0.480390625,1,0,1,3.5661,submitButton,-0.292695313,-0.423506944,0,0,1,2,16,136,59,1,75,67417,1,180,2022-02-10_08h29.01.418,orientation adjustment 1,2021.2.3,MacIntel,60.0024001,,,,,,,
,,,,,,,,,,,,,,,,,,,,,,-27.77777778,-61,20,75,-53.77777778,7.222222222,7.222222222,-143.7777778,-0.398203125,-0.459275174,1,0,1,3.85,submitButton,-0.40343316,-0.423980035,0,0,1,2,17,137,45,1,61,67417,1,180,2022-02-10_08h29.01.418,orientation adjustment 1,2021.2.3,MacIntel,60.0024001,,,,,,,
,,,,,,,,,,,,,,,,,,,,,,-38.33333333,-45,20,75,-50.33333333,5.333333333,5.333333333,-140.3333333,-0.265846354,-0.431896701,1,0,1,0.8333,submitButton,-0.264257813,-0.4071875,0,0,1,2,18,138,29,1,45,67417,1,180,2022-02-10_08h29.01.418,orientation adjustment 1,2021.2.3,MacIntel,60.0024001,,,,,,,
,,,,,,,,,,,,,,,,,,,,,,-70,-51,20,75,-49,2,2,-139,-0.272530382,-0.426857639,1,0,1,1.2495,submitButton,-0.271458333,-0.426302083,0,0,1,2,19,139,35,1,51,67417,1,180,2022-02-10_08h29.01.418,orientation adjustment 1,2021.2.3,MacIntel,60.0024001,,,,,,,
,,,,,,,,,,,,,,,,,,,,,,-42.22222222,-26,20,75,-40.22222222,14.22222222,14.22222222,-130.2222222,-0.227864583,-0.410928819,1,0,1,0.6327,submitButton,-0.22734375,-0.410655382,0,0,1,2,20,140,10,1,26,67417,1,180,2022-02-10_08h29.01.418,orientation adjustment 1,2021.2.3,MacIntel,60.0024001,,,,,,,
,,,,,,,,,,,,,,,,,,,,,,53.88888889,37,20,75,59.88888889,22.88888889,22.88888889,-30.11111111,-0.167513021,-0.419006076,1,0,1,0.968,submitButton,-0.167513021,-0.419817708,0,0,1,2,21,141,21,1,37,67417,1,180,2022-02-10_08h29.01.418,orientation adjustment 1,2021.2.3,MacIntel,60.0024001,,,,,,,
,,,,,,,,,,,,,,,,,,,,,,51.11111111,-24,20,75,146.1111111,9.888888889,9.888888889,56.11111111,-0.364418403,-0.402296007,1,0,1,2.25,submitButton,-0.364162326,-0.402296007,0,0,1,2,22,142,8,1,24,67417,1,180,2022-02-10_08h29.01.418,orientation adjustment 1,2021.2.3,MacIntel,60.0024001,,,,,,,
,,,,,,,,,,,,,,,,,,,,,,-59.44444444,42,20,75,41.55555556,0.444444444,0.444444444,-48.44444444,-0.206783854,-0.388376736,1,0,1,1.2495,submitButton,-0.205672743,-0.388932292,0,0,1,2,23,143,26,1,42,67417,1,180,2022-02-10_08h29.01.418,orientation adjustment 1,2021.2.3,MacIntel,60.0024001,,,,,,,
,,,,,,,,,,,,,,,,,,,,,,25.55555556,67,20,75,238.5555556,8.444444444,8.444444444,148.5555556,-0.251814236,-0.404140625,1,0,1,2.6664,submitButton,-0.25078559,-0.404696181,0,0,1,2,24,144,51,1,67,67417,1,180,2022-02-10_08h29.01.418,orientation adjustment 1,2021.2.3,MacIntel,60.0024001,,,,,,,
,,,,,,,,,,,,,,,,,,,,,,-22.22222222,-27,20,75,51.77777778,78.77777778,78.77777778,-38.22222222,-0.123563368,-0.409965278,1,0,1,1.6833,submitButton,0.361232639,-0.141510417,0,0,1,2,25,145,11,1,27,67417,1,180,2022-02-10_08h29.01.418,orientation adjustment 1,2021.2.3,MacIntel,60.0024001,,,,,,,
,,,,,,,,,,,,,,,,,,,,,,26.66666667,38,20,75,38.66666667,0.666666667,0.666666667,-51.33333333,-0.319344618,-0.389952257,1,0,1,0.917,submitButton,-0.315052083,-0.390525174,0,0,1,2,26,146,22,1,38,67417,1,180,2022-02-10_08h29.01.418,orientation adjustment 1,2021.2.3,MacIntel,60.0024001,,,,,,,
,,,,,,,,,,,,,,,,,,,,,,-62.77777778,-73,20,75,-54.77777778,18.22222222,18.22222222,-144.7777778,-0.399118924,-0.400907118,1,0,1,1.4006,submitButton,-0.399118924,-0.400907118,0,0,1,2,27,147,57,1,73,67417,1,180,2022-02-10_08h29.01.418,orientation adjustment 1,2021.2.3,MacIntel,60.0024001,,,,,,,
,,,,,,,,,,,,,,,,,,,,,,71.11111111,-55,20,75,-49.88888889,5.111111111,5.111111111,-139.8888889,-0.293337674,-0.409548611,1,0,1,3.3501,submitButton,-0.293337674,-0.4103125,0,0,1,2,28,148,39,1,55,67417,1,180,2022-02-10_08h29.01.418,orientation adjustment 1,2021.2.3,MacIntel,60.0024001,,,,,,,
,,,,,,,,,,,,,,,,,,,,,,-36.66666667,30,20,75,31.33333333,1.333333333,1.333333333,-58.66666667,-0.337048611,-0.454171007,1,0,1,0.5498,submitButton,0.281684028,-0.39797309,1,0,1,2,29,149,14,1,30,67417,1,180,2022-02-10_08h29.01.418,orientation adjustment 1,2021.2.3,MacIntel,60.0024001,pause_continueButton,,,,,,
,,,,,,,,,,,,,,,,,,,,,,40,-21,20,75,-40,19,19,-130,-0.245876736,-0.411775174,1,0,1,1.2498,submitButton,-0.24453559,-0.411514757,0,0,1,2,30,150,5,1,21,67417,1,180,2022-02-10_08h29.01.418,orientation adjustment 1,2021.2.3,MacIntel,60.0024001,,,,,,,
,,,,,,,,,,,,,,,,,,,,,,30.55555556,62,20,75,236.5555556,5.444444444,5.444444444,146.5555556,-0.225651042,-0.406197917,1,0,1,2.2329,submitButton,-0.225651042,-0.406453993,0,0,1,2,31,151,46,1,62,67417,1,180,2022-02-10_08h29.01.418,orientation adjustment 1,2021.2.3,MacIntel,60.0024001,,,,,,,
,,,,,,,,,,,,,,,,,,,,,,-66.11111111,-17,20,75,-40.11111111,23.11111111,23.11111111,-130.1111111,-0.176636285,-0.38734375,1,0,1,1.2842,submitButton,-0.176636285,-0.38734375,0,0,1,2,32,152,1,1,17,67417,1,180,2022-02-10_08h29.01.418,orientation adjustment 1,2021.2.3,MacIntel,60.0024001,,,,,,,
,,,,,,,,,,,,,,,,,,,,,,-55,-69,20,75,-242,7,7,-332,-0.305021701,-0.40922309,1,0,1,2.1002,submitButton,-0.305021701,-0.40922309,0,0,1,2,33,153,53,1,69,67417,1,180,2022-02-10_08h29.01.418,orientation adjustment 1,2021.2.3,MacIntel,60.0024001,,,,,,,
,,,,,,,,,,,,,,,,,,,,,,65.55555556,-36,20,75,131.5555556,12.44444444,12.44444444,41.55555556,-0.343190104,-0.445147569,1,0,1,1.4661,submitButton,-0.338923611,-0.409565972,0,0,1,2,34,154,20,1,36,67417,1,180,2022-02-10_08h29.01.418,orientation adjustment 1,2021.2.3,MacIntel,60.0024001,,,,,,,
,,,,,,,,,,,,,,,,,,,,,,48.33333333,-70,20,75,-54.66666667,15.33333333,15.33333333,-144.6666667,-0.194869792,-0.369965278,1,0,1,2.8327,submitButton,-0.199162326,-0.420989583,0,0,1,2,35,155,54,1,70,67417,1,180,2022-02-10_08h29.01.418,orientation adjustment 1,2021.2.3,MacIntel,60.0024001,,,,,,,
,,,,,,,,,,,,,,,,,,,,,,20,-29,20,75,-41,12,12,-131,-0.263854167,-0.409756944,1,0,1,1.1836,submitButton,-0.269179687,-0.404639757,0,0,1,2,36,156,13,1,29,67417,1,180,2022-02-10_08h29.01.418,orientation adjustment 1,2021.2.3,MacIntel,60.0024001,,,,,,,
,,,,,,,,,,,,,,,,,,,,,,39.44444444,48,20,75,224.4444444,3.555555556,3.555555556,134.4444444,-0.286310764,-0.410069444,1,0,1,2.4661,submitButton,-0.286310764,-0.41187934,0,0,1,2,37,157,32,1,48,67417,1,180,2022-02-10_08h29.01.418,orientation adjustment 1,2021.2.3,MacIntel,60.0024001,,,,,,,
,,,,,,,,,,,,,,,,,,,,,,73.33333333,71,20,75,230.3333333,20.66666667,20.66666667,140.3333333,-0.150277778,-0.415577257,1,0,1,1.5666,submitButton,-0.150277778,-0.415577257,0,0,1,2,38,158,55,1,71,67417,1,180,2022-02-10_08h29.01.418,orientation adjustment 1,2021.2.3,MacIntel,60.0024001,,,,,,,
,,,,,,,,,,,,,,,,,,,,,,45.55555556,-19,20,75,-35.44444444,16.44444444,16.44444444,-125.4444444,-0.145967882,-0.427643229,1,0,1,1.3992,submitButton,-0.1525,-0.420872396,0,0,1,2,39,159,3,1,19,67417,1,180,2022-02-10_08h29.01.418,orientation adjustment 1,2021.2.3,MacIntel,60.0024001,,,,,,,
,,,,,,,,,,,,,,,,,,,,,,-27.77777778,46,20,75,46.22222222,0.222222222,0.222222222,-43.77777778,-0.114157986,-0.399275174,1,0,1,1.9659,submitButton,-0.114157986,-0.399275174,0,0,1,2,40,160,30,1,46,67417,1,180,2022-02-10_08h29.01.418,orientation adjustment 1,2021.2.3,MacIntel,60.0024001,,,,,,,
,,,,,,,,,,,,,,,,,,,,,,71.66666667,-68,20,75,-49.33333333,18.66666667,18.66666667,-139.3333333,-0.22468316,-0.405351562,1,0,1,0.7327,submitButton,-0.22468316,-0.405907118,0,0,1,2,41,161,52,1,68,67417,1,180,2022-02-10_08h29.01.418,orientation adjustment 1,2021.2.3,MacIntel,60.0024001,,,,,,,
,,,,,,,,,,,,,,,,,,,,,,-65.55555556,43,20,75,44.44444444,1.444444444,1.444444444,-45.55555556,-0.208307292,-0.398689236,1,0,1,1.6994,submitButton,-0.208307292,-0.398984375,0,0,1,2,42,162,27,1,43,67417,1,180,2022-02-10_08h29.01.418,orientation adjustment 1,2021.2.3,MacIntel,60.0024001,,,,,,,
,,,,,,,,,,,,,,,,,,,,,,-70.55555556,66,20,75,51.44444444,14.55555556,14.55555556,-38.55555556,-0.272369792,-0.387052951,1,0,1,1.1333,submitButton,-0.271814236,-0.387604167,0,0,1,2,43,163,50,1,66,67417,1,180,2022-02-10_08h29.01.418,orientation adjustment 1,2021.2.3,MacIntel,60.0024001,,,,,,,
,,,,,,,,,,,,,,,,,,,,,,63.88888889,-31,20,75,-55.11111111,24.11111111,24.11111111,-145.1111111,-0.231796875,-0.416779514,1,0,1,2.5997,submitButton,0.619249132,-0.400394965,1,0,1,2,44,164,15,1,31,67417,1,180,2022-02-10_08h29.01.418,orientation adjustment 1,2021.2.3,MacIntel,60.0024001,pause_continueButton,,,,,,
,,,,,,,,,,,,,,,,,,,,,,60.55555556,-58,20,75,-58.44444444,0.444444444,0.444444444,-148.4444444,-0.248667535,-0.400828993,1,0,1,1.4333,submitButton,-0.247556424,-0.401111111,0,0,1,2,45,165,42,1,58,67417,1,180,2022-02-10_08h29.01.418,orientation adjustment 1,2021.2.3,MacIntel,60.0024001,,,,,,,
,,,,,,,,,,,,,,,,,,,,,,-42.22222222,-59,20,75,-59.22222222,0.222222222,0.222222222,-149.2222222,-0.117326389,-0.414900174,1,0,1,1.4005,submitButton,-0.117326389,-0.414900174,0,0,1,2,46,166,43,1,59,67417,1,180,2022-02-10_08h29.01.418,orientation adjustment 1,2021.2.3,MacIntel,60.0024001,,,,,,,
,,,,,,,,,,,,,,,,,,,,,,-34.44444444,-41,20,75,-55.44444444,14.44444444,14.44444444,-145.4444444,-0.156223958,-0.431041667,1,0,1,1.7997,submitButton,-0.149092882,-0.394800347,0,0,1,2,47,167,25,1,41,67417,1,180,2022-02-10_08h29.01.418,orientation adjustment 1,2021.2.3,MacIntel,60.0024001,,,,,,,
,,,,,,,,,,,,,,,,,,,,,,44.44444444,-20,20,75,136.4444444,23.55555556,23.55555556,46.44444444,-0.240256076,-0.405412326,1,0,1,3.05,submitButton,-0.240030382,-0.404904514,0,0,1,2,48,168,4,1,20,67417,1,180,2022-02-10_08h29.01.418,orientation adjustment 1,2021.2.3,MacIntel,60.0024001,,,,,,,
,,,,,,,,,,,,,,,,,,,,,,-25.55555556,72,20,75,64.44444444,7.555555556,7.555555556,-25.55555556,-0.179409722,-0.397934028,1,0,1,0.4662,submitButton,-0.179409722,-0.397148438,0,0,1,2,49,169,56,1,72,67417,1,180,2022-02-10_08h29.01.418,orientation adjustment 1,2021.2.3,MacIntel,60.0024001,,,,,,,
,,,,,,,,,,,,,,,,,,,,,,-27.22222222,-32,20,75,-37.22222222,5.222222222,5.222222222,-127.2222222,-0.078897569,-0.409162326,1,0,1,0.749,submitButton,-0.101197917,-0.409162326,0,0,1,2,50,170,16,1,32,67417,1,180,2022-02-10_08h29.01.418,orientation adjustment 1,2021.2.3,MacIntel,60.0024001,,,,,,,
,,,,,,,,,,,,,,,,,,,,,,-28.33333333,74,20,75,74.66666667,0.666666667,0.666666667,-15.33333333,-0.204023437,-0.381588542,1,0,1,1.117,submitButton,-0.204023437,-0.382400174,0,0,1,2,51,171,58,1,74,67417,1,180,2022-02-10_08h29.01.418,orientation adjustment 1,2021.2.3,MacIntel,60.0024001,,,,,,,
,,,,,,,,,,,,,,,,,,,,,,-25,-47,20,75,-69,22,22,-159,-0.266675347,-0.410711806,1,0,1,2.834,submitButton,-0.266944444,-0.410447049,0,0,1,2,52,172,31,1,47,67417,1,180,2022-02-10_08h29.01.418,orientation adjustment 1,2021.2.3,MacIntel,60.0024001,,,,,,,
,,,,,,,,,,,,,,,,,,,,,,-55,-40,20,75,-59,19,19,-149,-0.282161458,-0.410850694,1,0,1,0.8001,submitButton,-0.282161458,-0.410039062,0,0,1,2,53,173,24,1,40,67417,1,180,2022-02-10_08h29.01.418,orientation adjustment 1,2021.2.3,MacIntel,60.0024001,,,,,,,
,,,,,,,,,,,,,,,,,,,,,,61.66666667,-18,20,75,127.6666667,34.33333333,34.33333333,37.66666667,-0.386458333,-0.38890191,1,0,1,1.3002,submitButton,-0.384835069,-0.390199653,0,0,1,2,54,174,2,1,18,67417,1,180,2022-02-10_08h29.01.418,orientation adjustment 1,2021.2.3,MacIntel,60.0024001,,,,,,,
,,,,,,,,,,,,,,,,,,,,,,-67.77777778,33,20,75,54.22222222,21.22222222,21.22222222,-35.77777778,-0.205746528,-0.389470486,1,0,1,1.8326,submitButton,-0.187599826,-0.392109375,0,0,1,2,55,175,17,1,33,67417,1,180,2022-02-10_08h29.01.418,orientation adjustment 1,2021.2.3,MacIntel,60.0024001,,,,,,,
,,,,,,,,,,,,,,,,,,,,,,-33.88888889,35,20,75,46.11111111,11.11111111,11.11111111,-43.88888889,-0.143628472,-0.398984375,1,0,1,0.8336,submitButton,-0.142070312,-0.398181424,0,0,1,2,56,176,19,1,35,67417,1,180,2022-02-10_08h29.01.418,orientation adjustment 1,2021.2.3,MacIntel,60.0024001,,,,,,,
,,,,,,,,,,,,,,,,,,,,,,-50.55555556,-22,20,75,-37.55555556,15.55555556,15.55555556,-127.5555556,-0.241710069,-0.367296007,1,0,1,1.3333,submitButton,-0.242087674,-0.38765191,0,0,1,2,57,177,6,1,22,67417,1,180,2022-02-10_08h29.01.418,orientation adjustment 1,2021.2.3,MacIntel,60.0024001,,,,,,,
,,,,,,,,,,,,,,,,,,,,,,-34.44444444,-23,20,75,-39.44444444,16.44444444,16.44444444,-129.4444444,-0.254474826,-0.415390625,1,0,1,1.0003,submitButton,-0.156202257,-0.377760417,0,0,1,2,58,178,7,1,23,67417,1,180,2022-02-10_08h29.01.418,orientation adjustment 1,2021.2.3,MacIntel,60.0024001,,,,,,,
,,,,,,,,,,,,,,,,,,,,,,-26.11111111,-65,20,75,-58.11111111,6.888888889,6.888888889,-148.1111111,-0.330733507,-0.403927951,1,0,1,1.75,submitButton,-0.323776042,-0.403372396,0,0,1,2,59,179,49,1,65,67417,1,180,2022-02-10_08h29.01.418,orientation adjustment 1,2021.2.3,MacIntel,60.0024001,,,,,,,
,,,,,,,,,,,,,,,,,,,,,,,,,,,,,,,,,,,,,,,,,,,,,,,,67417,1,180,2022-02-10_08h29.01.418,orientation adjustment 1,2021.2.3,MacIntel,60.0024001,,0.383359375,-0.399105903,1,0,1,EndButtonTxt
