consentMouse1.x,consentMouse1.y,consentMouse1.leftButton,consentMouse1.midButton,consentMouse1.rightButton,consentMouse1.clicked_name,consent_Mouse.x,consent_Mouse.y,consent_Mouse.leftButton,consent_Mouse.midButton,consent_Mouse.rightButton,consent_Mouse.clicked_name,startMouse.x,startMouse.y,startMouse.leftButton,startMouse.midButton,startMouse.rightButton,startMouse_2.x,startMouse_2.y,startMouse_2.leftButton,startMouse_2.midButton,startMouse_2.rightButton,start_distance,fixedOri,minimalDistance,maxOri,this_ori,accuracy,presented_accuracy,presented_this_ori,submitMouse.x,submitMouse.y,submitMouse.leftButton,submitMouse.midButton,submitMouse.rightButton,submitMouse.time,submitMouse.clicked_name,pauseMouse.x,pauseMouse.y,pauseMouse.leftButton,pauseMouse.midButton,pauseMouse.rightButton,trials.thisRepN,trials.thisTrialN,trials.thisN,trials.thisIndex,trials.ran,startOri,participant,condition,nTrials,date,expName,psychopyVersion,OS,frameRate,pauseMouse.clicked_name,EndButtonMouse.x,EndButtonMouse.y,EndButtonMouse.leftButton,EndButtonMouse.midButton,EndButtonMouse.rightButton,EndButtonMouse.clicked_name
0.394736806,-0.411241969,1,0,0,consent_button1,0.430517045,-0.400854158,1,0,0,consent_button,0.185826377,-0.256578929,1,0,0,0.300092303,-0.335064686,1,0,0,70.55555556,41,20,75,215.5555556,5.444444444,5.444444444,125.5555556,0.220452415,-0.287742363,1,0,0,3.0477,submitButton,-0.045013805,-0.196560464,0,0,0,0,0,0,25,1,41,67486,1,180,2022-02-24_18h35.14.805,orientation adjustment 1,2021.2.3,Win32,59.96282305,,,,,,,
,,,,,,,,,,,,,,,,,,,,,,-55.55555556,-53,20,75,-219.5555556,13.44444444,13.44444444,-309.5555556,0.395891008,-0.281971357,1,0,0,0.1166,submitButton,-0.151200392,-0.271583546,0,0,0,0,1,1,37,1,53,67486,1,180,2022-02-24_18h35.14.805,orientation adjustment 1,2021.2.3,Win32,59.96282305,,,,,,,
,,,,,,,,,,,,,,,,,,,,,,-55,17,20,75,17,0,0,-73,0.208910403,-0.294667571,1,0,0,0.651,submitButton,-0.192751638,-0.389312075,0,0,0,0,2,2,1,1,17,67486,1,180,2022-02-24_18h35.14.805,orientation adjustment 1,2021.2.3,Win32,59.96282305,,,,,,,
,,,,,,,,,,,,,,,,,,,,,,40.55555556,25,20,75,103.5555556,78.55555556,78.55555556,13.55555556,0.174284365,-0.29351344,1,0,0,1.217,submitButton,-0.342797802,-0.315443194,0,0,0,0,3,3,9,1,25,67486,1,180,2022-02-24_18h35.14.805,orientation adjustment 1,2021.2.3,Win32,59.96282305,,,,,,,
,,,,,,,,,,,,,,,,,,,,,,45,-57,20,75,-46,11,11,-136,0.406278819,-0.276200421,1,0,0,0.5164,submitButton,-0.161588204,-0.336218817,0,0,0,0,4,4,41,1,57,67486,1,180,2022-02-24_18h35.14.805,orientation adjustment 1,2021.2.3,Win32,59.96282305,,,,,,,
,,,,,,,,,,,,,,,,,,,,,,25.55555556,58,20,75,54.55555556,3.444444444,3.444444444,-35.44444444,0.375115385,-0.295821772,1,0,0,0.4825,submitButton,-0.171976015,-0.385849471,0,0,0,0,5,5,42,1,58,67486,1,180,2022-02-24_18h35.14.805,orientation adjustment 1,2021.2.3,Win32,59.96282305,,,,,,,
,,,,,,,,,,,,,,,,,,,,,,41.11111111,46,20,75,58.11111111,12.11111111,12.11111111,-31.88888889,0.40743302,-0.299284376,1,0,0,0.8166,submitButton,-0.252770103,-0.369690724,0,0,0,0,6,6,30,1,46,67486,1,180,2022-02-24_18h35.14.805,orientation adjustment 1,2021.2.3,Win32,59.96282305,,,,,,,
,,,,,,,,,,,,,,,,,,,,,,71.11111111,42,20,75,202.1111111,19.88888889,19.88888889,112.1111111,0.168513358,-0.291204967,1,0,0,1.1836,submitButton,-0.162742334,-0.383541139,0,0,0,0,7,7,26,1,42,67486,1,180,2022-02-24_18h35.14.805,orientation adjustment 1,2021.2.3,Win32,59.96282305,,,,,,,
,,,,,,,,,,,,,,,,,,,,,,-60.55555556,-59,20,75,-233.5555556,5.444444444,5.444444444,-323.5555556,0.140812528,-0.281971357,1,0,0,1.8831,submitButton,0.123499509,-0.301592779,0,0,0,0,8,8,43,1,59,67486,1,180,2022-02-24_18h35.14.805,orientation adjustment 1,2021.2.3,Win32,59.96282305,,,,,,,
,,,,,,,,,,,,,,,,,,,,,,43.88888889,48,20,75,52.88888889,4.888888889,4.888888889,-37.11111111,0.348568756,-0.294667571,1,0,0,0.0993,submitButton,-0.175438619,-0.352377705,0,0,0,0,9,9,32,1,48,67486,1,180,2022-02-24_18h35.14.805,orientation adjustment 1,2021.2.3,Win32,59.96282305,,,,,,,
,,,,,,,,,,,,,,,,,,,,,,-71.11111111,-20,20,75,-42.11111111,22.11111111,22.11111111,-132.1111111,0.227377623,-0.309672188,1,0,0,0.9165,submitButton,0.049630628,-0.33852729,0,0,0,0,10,10,4,1,20,67486,1,180,2022-02-24_18h35.14.805,orientation adjustment 1,2021.2.3,Win32,59.96282305,,,,,,,
,,,,,,,,,,,,,,,,,,,,,,-33.88888889,38,20,75,33.11111111,4.888888889,4.888888889,-56.88888889,0.147737736,-0.309672188,1,0,0,0.0166,submitButton,-0.032317591,-0.278508753,0,0,0,0,11,11,22,1,38,67486,1,180,2022-02-24_18h35.14.805,orientation adjustment 1,2021.2.3,Win32,59.96282305,,,,,,,
,,,,,,,,,,,,,,,,,,,,,,-52.22222222,19,20,75,15.77777778,3.222222222,3.222222222,-74.22222222,0.212373006,-0.299284376,1,0,0,0.9498,submitButton,-0.027700786,-0.329293609,0,0,0,0,12,12,3,1,19,67486,1,180,2022-02-24_18h35.14.805,orientation adjustment 1,2021.2.3,Win32,59.96282305,,,,,,,
,,,,,,,,,,,,,,,,,,,,,,-63.33333333,-39,20,75,-67.33333333,28.33333333,28.33333333,-157.3333333,0.376269586,-0.306209584,1,0,0,0.2491,submitButton,-0.161588204,-0.390466347,0,0,0,0,13,13,23,1,39,67486,1,180,2022-02-24_18h35.14.805,orientation adjustment 1,2021.2.3,Win32,59.96282305,,,,,,,
,,,,,,,,,,,,,,,,,,,,,,25,37,20,75,44,7,7,-46,-0.174284347,-0.376615931,1,0,0,0.7997,submitButton,0.30701751,-0.396237282,1,0,0,0,14,14,21,1,37,67486,1,180,2022-02-24_18h35.14.805,orientation adjustment 1,2021.2.3,Win32,59.96282305,pause_continueButton,,,,,,
,,,,,,,,,,,,,,,,,,,,,,-71.11111111,-69,20,75,-244.1111111,4.888888889,4.888888889,-334.1111111,0.382040592,-0.296975974,1,0,0,0.1981,submitButton,0.495152316,-0.247345319,0,0,0,0,15,15,53,1,69,67486,1,180,2022-02-24_18h35.14.805,orientation adjustment 1,2021.2.3,Win32,59.96282305,,,,,,,
,,,,,,,,,,,,,,,,,,,,,,-75,23,20,75,-154,3,3,-244,0.465143083,-0.314288993,1,0,0,0.2668,submitButton,-0.165050807,-0.288896565,0,0,0,0,16,16,7,1,23,67486,1,180,2022-02-24_18h35.14.805,orientation adjustment 1,2021.2.3,Win32,59.96282305,,,,,,,
,,,,,,,,,,,,,,,,,,,,,,30.55555556,-56,20,75,-58.44444444,2.444444444,2.444444444,-148.4444444,-0.183517957,-0.392774679,1,0,0,1.1339,submitButton,-0.024238183,-0.331602012,0,0,0,0,17,17,40,1,56,67486,1,180,2022-02-24_18h35.14.805,orientation adjustment 1,2021.2.3,Win32,59.96282305,,,,,,,
,,,,,,,,,,,,,,,,,,,,,,-59.44444444,-44,20,75,-45.44444444,1.444444444,1.444444444,-135.4444444,0.189288981,-0.290050766,1,0,0,0.0833,submitButton,0.111957496,-0.352377634,0,0,0,0,18,18,28,1,44,67486,1,180,2022-02-24_18h35.14.805,orientation adjustment 1,2021.2.3,Win32,59.96282305,,,,,,,
,,,,,,,,,,,,,,,,,,,,,,-33.88888889,47,20,75,50.11111111,3.111111111,3.111111111,-39.88888889,0.196214189,-0.305055453,1,0,0,0.35,submitButton,-0.09464446,-0.351223433,0,0,0,0,19,19,31,1,47,67486,1,180,2022-02-24_18h35.14.805,orientation adjustment 1,2021.2.3,Win32,59.96282305,,,,,,,
,,,,,,,,,,,,,,,,,,,,,,24.44444444,-36,20,75,-43.55555556,7.555555556,7.555555556,-133.5555556,0.380886391,-0.307363785,1,0,0,1.6822,submitButton,-0.048476409,-0.35699451,0,0,0,0,20,20,20,1,36,67486,1,180,2022-02-24_18h35.14.805,orientation adjustment 1,2021.2.3,Win32,59.96282305,,,,,,,
,,,,,,,,,,,,,,,,,,,,,,-33.33333333,-52,20,75,-60.33333333,8.333333333,8.333333333,-150.3333333,0.18813478,-0.310826389,1,0,0,0.0158,submitButton,-0.093490258,-0.354686037,0,0,0,0,21,21,36,1,52,67486,1,180,2022-02-24_18h35.14.805,orientation adjustment 1,2021.2.3,Win32,59.96282305,,,,,,,
,,,,,,,,,,,,,,,,,,,,,,-53.88888889,-61,20,75,-67.88888889,6.888888889,6.888888889,-157.8888889,-0.160433932,-0.387003672,1,0,0,1.7173,submitButton,-0.048476409,-0.363919717,0,0,0,0,22,22,45,1,61,67486,1,180,2022-02-24_18h35.14.805,orientation adjustment 1,2021.2.3,Win32,59.96282305,,,,,,,
,,,,,,,,,,,,,,,,,,,,,,-35.55555556,-16,20,75,-17.55555556,1.555555556,1.555555556,-107.5555556,0.192751585,-0.280817226,1,0,0,0.3167,submitButton,-0.144275185,-0.380078465,0,0,0,0,23,23,0,1,16,67486,1,180,2022-02-24_18h35.14.805,orientation adjustment 1,2021.2.3,Win32,59.96282305,,,,,,,
,,,,,,,,,,,,,,,,,,,,,,-57.22222222,-70,20,75,-69.22222222,0.777777778,0.777777778,-159.2222222,0.205447799,-0.296975974,1,0,0,0.9495,submitButton,-0.362419224,-0.391620548,0,0,0,0,24,24,54,1,70,67486,1,180,2022-02-24_18h35.14.805,orientation adjustment 1,2021.2.3,Win32,59.96282305,,,,,,,
,,,,,,,,,,,,,,,,,,,,,,-31.11111111,-21,20,75,-14.11111111,6.888888889,6.888888889,-104.1111111,0.155817144,-0.314288993,1,0,0,0.2667,submitButton,-0.163896536,-0.36622805,0,0,0,0,25,25,5,1,21,67486,1,180,2022-02-24_18h35.14.805,orientation adjustment 1,2021.2.3,Win32,59.96282305,,,,,,,
,,,,,,,,,,,,,,,,,,,,,,-27.77777778,73,20,75,71.22222222,1.777777778,1.777777778,-18.77777778,0.406278819,-0.277354623,1,0,0,0.8998,submitButton,-0.095798731,-0.360457114,0,0,0,0,26,26,57,1,73,67486,1,180,2022-02-24_18h35.14.805,orientation adjustment 1,2021.2.3,Win32,59.96282305,,,,,,,
,,,,,,,,,,,,,,,,,,,,,,-53.33333333,31,20,75,27.66666667,3.333333333,3.333333333,-62.33333333,0.184672176,-0.315443264,1,0,0,0.5999,submitButton,-0.107340674,-0.365073848,0,0,0,0,27,27,15,1,31,67486,1,180,2022-02-24_18h35.14.805,orientation adjustment 1,2021.2.3,Win32,59.96282305,,,,,,,
,,,,,,,,,,,,,,,,,,,,,,22.77777778,26,20,75,25.77777778,0.222222222,0.222222222,-64.22222222,0.383194794,-0.294667642,1,0,0,0.1501,submitButton,-0.226223474,-0.378924263,0,0,0,0,28,28,10,1,26,67486,1,180,2022-02-24_18h35.14.805,orientation adjustment 1,2021.2.3,Win32,59.96282305,,,,,,,
,,,,,,,,,,,,,,,,,,,,,,-46.11111111,-66,20,75,-247.1111111,1.111111111,1.111111111,-337.1111111,0.383194794,-0.294667642,1,0,0,2.2166,submitButton,0.541320367,-0.398545755,1,0,0,0,29,29,50,1,66,67486,1,180,2022-02-24_18h35.14.805,orientation adjustment 1,2021.2.3,Win32,59.96282305,pause_continueButton,,,,,,
,,,,,,,,,,,,,,,,,,,,,,-64.44444444,-67,20,75,-69.44444444,2.444444444,2.444444444,-159.4444444,0.192751585,-0.307363785,1,0,0,0.4836,submitButton,-0.062326824,-0.276200351,0,0,0,0,30,30,51,1,67,67486,1,180,2022-02-24_18h35.14.805,orientation adjustment 1,2021.2.3,Win32,59.96282305,,,,,,,
,,,,,,,,,,,,,,,,,,,,,,74.44444444,27,20,75,208.4444444,1.444444444,1.444444444,118.4444444,0.19736839,-0.322368472,1,0,0,1.5497,submitButton,0.281625082,-0.331602012,0,0,0,0,31,31,11,1,27,67486,1,180,2022-02-24_18h35.14.805,orientation adjustment 1,2021.2.3,Win32,59.96282305,,,,,,,
,,,,,,,,,,,,,,,,,,,,,,57.22222222,51,20,75,237.2222222,6.222222222,6.222222222,147.2222222,-0.183517957,-0.411241899,1,0,0,3.1499,submitButton,-0.153508724,-0.320059999,0,0,0,0,32,32,35,1,51,67486,1,180,2022-02-24_18h35.14.805,orientation adjustment 1,2021.2.3,Win32,59.96282305,,,,,,,
,,,,,,,,,,,,,,,,,,,,,,51.66666667,71,20,75,243.6666667,7.333333333,7.333333333,153.6666667,0.195059987,-0.30274698,1,0,0,2.083,submitButton,-0.051939013,-0.350069302,0,0,0,0,33,33,55,1,71,67486,1,180,2022-02-24_18h35.14.805,orientation adjustment 1,2021.2.3,Win32,59.96282305,,,,,,,
,,,,,,,,,,,,,,,,,,,,,,-72.22222222,-33,20,75,-214.2222222,1.222222222,1.222222222,-304.2222222,0.223915019,-0.306209584,1,0,0,2.3331,submitButton,-0.028854988,-0.382386867,0,0,0,0,34,34,17,1,33,67486,1,180,2022-02-24_18h35.14.805,orientation adjustment 1,2021.2.3,Win32,59.96282305,,,,,,,
,,,,,,,,,,,,,,,,,,,,,,-21.11111111,65,20,75,66.88888889,1.888888889,1.888888889,-23.11111111,0.400507813,-0.280817226,1,0,0,0.7499,submitButton,-0.092336128,-0.353531906,0,0,0,0,35,35,49,1,65,67486,1,180,2022-02-24_18h35.14.805,orientation adjustment 1,2021.2.3,Win32,59.96282305,,,,,,,
,,,,,,,,,,,,,,,,,,,,,,71.11111111,63,20,75,227.1111111,15.88888889,15.88888889,137.1111111,0.21583561,-0.317751596,1,0,0,0.6994,submitButton,-0.030009259,-0.362765446,0,0,0,0,36,36,47,1,63,67486,1,180,2022-02-24_18h35.14.805,orientation adjustment 1,2021.2.3,Win32,59.96282305,,,,,,,
,,,,,,,,,,,,,,,,,,,,,,39.44444444,45,20,75,48.44444444,3.444444444,3.444444444,-41.55555556,0.345106152,-0.306209584,1,0,0,0.7834,submitButton,-0.12234529,-0.367382321,0,0,0,0,37,37,29,1,45,67486,1,180,2022-02-24_18h35.14.805,orientation adjustment 1,2021.2.3,Win32,59.96282305,,,,,,,
,,,,,,,,,,,,,,,,,,,,,,-68.88888889,-55,20,75,-58.88888889,3.888888889,3.888888889,-148.8888889,0.196214189,-0.308518057,1,0,0,0.9115,submitButton,-0.121191089,-0.296975974,0,0,0,0,38,38,39,1,55,67486,1,180,2022-02-24_18h35.14.805,orientation adjustment 1,2021.2.3,Win32,59.96282305,,,,,,,
,,,,,,,,,,,,,,,,,,,,,,22.22222222,-74,20,75,-68.77777778,5.222222222,5.222222222,-158.7777778,0.418975033,-0.266966811,1,0,0,0.0801,submitButton,-0.201985177,-0.36622805,0,0,0,0,39,39,58,1,74,67486,1,180,2022-02-24_18h35.14.805,orientation adjustment 1,2021.2.3,Win32,59.96282305,,,,,,,
,,,,,,,,,,,,,,,,,,,,,,71.66666667,54,20,75,237.6666667,3.666666667,3.666666667,147.6666667,0.185826377,-0.311980661,1,0,0,1.8151,submitButton,0.01500459,-0.291205038,0,0,0,0,40,40,38,1,54,67486,1,180,2022-02-24_18h35.14.805,orientation adjustment 1,2021.2.3,Win32,59.96282305,,,,,,,
,,,,,,,,,,,,,,,,,,,,,,32.77777778,-22,20,75,-19.22222222,2.777777778,2.777777778,-109.2222222,0.42590024,-0.280817226,1,0,0,0.129,submitButton,0.098107081,-0.348915031,0,0,0,0,41,41,6,1,22,67486,1,180,2022-02-24_18h35.14.805,orientation adjustment 1,2021.2.3,Win32,59.96282305,,,,,,,
,,,,,,,,,,,,,,,,,,,,,,72.22222222,43,20,75,235.2222222,12.22222222,12.22222222,145.2222222,-0.152354523,-0.415858774,1,0,0,2.3996,submitButton,-0.101569667,-0.353531906,0,0,0,0,42,42,27,1,43,67486,1,180,2022-02-24_18h35.14.805,orientation adjustment 1,2021.2.3,Win32,59.96282305,,,,,,,
,,,,,,,,,,,,,,,,,,,,,,62.22222222,72,20,75,68.22222222,3.777777778,3.777777778,-21.77777778,0.349722957,-0.287742434,1,0,0,0.0633,submitButton,-0.180055353,-0.353531906,0,0,0,0,43,43,56,1,72,67486,1,180,2022-02-24_18h35.14.805,orientation adjustment 1,2021.2.3,Win32,59.96282305,,,,,,,
,,,,,,,,,,,,,,,,,,,,,,-25,29,20,75,19,10,10,-71,0.145429333,-0.307363785,1,0,0,0.2172,submitButton,0.502077524,-0.392774679,1,0,0,0,44,44,13,1,29,67486,1,180,2022-02-24_18h35.14.805,orientation adjustment 1,2021.2.3,Win32,59.96282305,pause_continueButton,,,,,,
,,,,,,,,,,,,,,,,,,,,,,-46.66666667,-50,20,75,-69.66666667,19.66666667,19.66666667,-159.6666667,0.455909473,-0.27504615,1,0,0,0.0294,submitButton,0.027700874,-0.351223433,0,0,0,0,45,45,34,1,50,67486,1,180,2022-02-24_18h35.14.805,orientation adjustment 1,2021.2.3,Win32,59.96282305,,,,,,,
,,,,,,,,,,,,,,,,,,,,,,-23.33333333,-32,20,75,-29.33333333,2.666666667,2.666666667,-119.3333333,0.171975962,-0.306209584,1,0,0,0.229,submitButton,-0.100415466,-0.351223433,0,0,0,0,46,46,16,1,32,67486,1,180,2022-02-24_18h35.14.805,orientation adjustment 1,2021.2.3,Win32,59.96282305,,,,,,,
,,,,,,,,,,,,,,,,,,,,,,-41.66666667,35,20,75,35.33333333,0.333333333,0.333333333,-54.66666667,0.189288981,-0.306209584,1,0,0,0.6165,submitButton,-0.118882686,-0.348915031,0,0,0,0,47,47,19,1,35,67486,1,180,2022-02-24_18h35.14.805,orientation adjustment 1,2021.2.3,Win32,59.96282305,,,,,,,
,,,,,,,,,,,,,,,,,,,,,,-36.66666667,-64,20,75,-71.66666667,7.666666667,7.666666667,-161.6666667,0.17890117,-0.291205038,1,0,0,0.2319,submitButton,-0.341643601,-0.280817226,0,0,0,0,48,48,48,1,64,67486,1,180,2022-02-24_18h35.14.805,orientation adjustment 1,2021.2.3,Win32,59.96282305,,,,,,,
,,,,,,,,,,,,,,,,,,,,,,39.44444444,18,20,75,24.44444444,6.444444444,6.444444444,-65.55555556,-0.159279731,-0.392774679,1,0,0,1.467,submitButton,-0.491689765,-0.346606698,0,0,0,0,49,49,2,1,18,67486,1,180,2022-02-24_18h35.14.805,orientation adjustment 1,2021.2.3,Win32,59.96282305,,,,,,,
,,,,,,,,,,,,,,,,,,,,,,66.11111111,40,20,75,221.1111111,1.111111111,1.111111111,131.1111111,-0.241228091,-0.400854087,1,0,0,2.9114,submitButton,-0.244690695,-0.373153257,0,0,0,0,50,50,24,1,40,67486,1,180,2022-02-24_18h35.14.805,orientation adjustment 1,2021.2.3,Win32,59.96282305,,,,,,,
,,,,,,,,,,,,,,,,,,,,,,-52.22222222,49,20,75,48.77777778,0.222222222,0.222222222,-41.22222222,0.190443182,-0.298130245,1,0,0,0.8282,submitButton,-0.115420082,-0.369690653,0,0,0,0,51,51,33,1,49,67486,1,180,2022-02-24_18h35.14.805,orientation adjustment 1,2021.2.3,Win32,59.96282305,,,,,,,
,,,,,,,,,,,,,,,,,,,,,,62.22222222,-60,20,75,-47.77777778,12.22222222,12.22222222,-137.7777778,-0.139658309,-0.389312075,1,0,0,1.2343,submitButton,-0.121191089,-0.370844925,0,0,0,0,52,52,44,1,60,67486,1,180,2022-02-24_18h35.14.805,orientation adjustment 1,2021.2.3,Win32,59.96282305,,,,,,,
,,,,,,,,,,,,,,,,,,,,,,-44.44444444,28,20,75,29.55555556,1.555555556,1.555555556,-60.44444444,-0.118882686,-0.400854087,1,0,0,1.1114,submitButton,-0.148891919,-0.333910414,0,0,0,0,53,53,12,1,28,67486,1,180,2022-02-24_18h35.14.805,orientation adjustment 1,2021.2.3,Win32,59.96282305,,,,,,,
,,,,,,,,,,,,,,,,,,,,,,40,34,20,75,34,0,0,-56,0.233148629,-0.288896565,1,0,0,1.1866,submitButton,-0.167359139,-0.417012905,0,0,0,0,54,54,18,1,34,67486,1,180,2022-02-24_18h35.14.805,orientation adjustment 1,2021.2.3,Win32,59.96282305,,,,,,,
,,,,,,,,,,,,,,,,,,,,,,47.22222222,75,20,75,70.22222222,4.777777778,4.777777778,-19.77777778,0.428208643,-0.296975974,1,0,0,1.1693,submitButton,-0.1581256,-0.353531906,0,0,0,0,55,55,59,1,75,67486,1,180,2022-02-24_18h35.14.805,orientation adjustment 1,2021.2.3,Win32,59.96282305,,,,,,,
,,,,,,,,,,,,,,,,,,,,,,-36.11111111,-24,20,75,-24.11111111,0.111111111,0.111111111,-114.1111111,0.186980579,-0.299284376,1,0,0,0.6671,submitButton,-0.345106205,-0.338527219,0,0,0,0,56,56,8,1,24,67486,1,180,2022-02-24_18h35.14.805,orientation adjustment 1,2021.2.3,Win32,59.96282305,,,,,,,
,,,,,,,,,,,,,,,,,,,,,,35.55555556,62,20,75,61.55555556,0.444444444,0.444444444,-28.44444444,-0.342797802,-0.387003672,1,0,0,0.9792,submitButton,0.32548473,-0.19309786,0,0,0,0,57,57,46,1,62,67486,1,180,2022-02-24_18h35.14.805,orientation adjustment 1,2021.2.3,Win32,59.96282305,,,,,,,
,,,,,,,,,,,,,,,,,,,,,,41.11111111,-68,20,75,-58.88888889,9.111111111,9.111111111,-148.8888889,0.420129234,-0.299284376,1,0,0,0.1782,submitButton,-0.096952862,-0.305055453,0,0,0,0,58,58,52,1,68,67486,1,180,2022-02-24_18h35.14.805,orientation adjustment 1,2021.2.3,Win32,59.96282305,,,,,,,
,,,,,,,,,,,,,,,,,,,,,,40,30,20,75,35,5,5,-55,0.427054442,-0.307363785,1,0,0,0.6324,submitButton,0.4801477,-0.40316249,1,0,0,0,59,59,14,1,30,67486,1,180,2022-02-24_18h35.14.805,orientation adjustment 1,2021.2.3,Win32,59.96282305,pause_continueButton,,,,,,
,,,,,,,,,,,,,,,,,,,,,,-57.22222222,37,20,75,37.77777778,0.777777778,0.777777778,-52.22222222,0.186980579,-0.310826389,1,0,0,1.0434,submitButton,-0.115420082,-0.395083152,0,0,0,1,0,60,21,1,37,67486,1,180,2022-02-24_18h35.14.805,orientation adjustment 1,2021.2.3,Win32,59.96282305,,,,,,,
,,,,,,,,,,,,,,,,,,,,,,32.77777778,43,20,75,54.77777778,11.77777778,11.77777778,-35.22222222,0.477839297,-0.305055453,1,0,0,0.0392,submitButton,-0.146583517,-0.395083152,0,0,0,1,1,61,27,1,43,67486,1,180,2022-02-24_18h35.14.805,orientation adjustment 1,2021.2.3,Win32,59.96282305,,,,,,,
,,,,,,,,,,,,,,,,,,,,,,57.22222222,69,20,75,67.22222222,1.777777778,1.777777778,-22.77777778,0.440904857,-0.313134791,1,0,0,0.0778,submitButton,-0.180055353,-0.377770133,0,0,0,1,2,62,53,1,69,67486,1,180,2022-02-24_18h35.14.805,orientation adjustment 1,2021.2.3,Win32,59.96282305,,,,,,,
,,,,,,,,,,,,,,,,,,,,,,35,20,20,75,18,2,2,-72,0.36126497,-0.294667642,1,0,0,0.5274,submitButton,-0.15004612,-0.380078465,0,0,0,1,3,63,4,1,20,67486,1,180,2022-02-24_18h35.14.805,orientation adjustment 1,2021.2.3,Win32,59.96282305,,,,,,,
,,,,,,,,,,,,,,,,,,,,,,21.11111111,-50,20,75,-45.88888889,4.111111111,4.111111111,-135.8888889,0.210064604,-0.305055453,1,0,0,0.6782,submitButton,-0.159279731,-0.392774679,0,0,0,1,4,64,34,1,50,67486,1,180,2022-02-24_18h35.14.805,orientation adjustment 1,2021.2.3,Win32,59.96282305,,,,,,,
,,,,,,,,,,,,,,,,,,,,,,-26.11111111,-25,20,75,-18.11111111,6.888888889,6.888888889,-108.1111111,0.210064604,-0.320059999,1,0,0,0.0774,submitButton,0.038088686,-0.378924263,0,0,0,1,5,65,9,1,25,67486,1,180,2022-02-24_18h35.14.805,orientation adjustment 1,2021.2.3,Win32,59.96282305,,,,,,,
,,,,,,,,,,,,,,,,,,,,,,-60,-34,20,75,-41,7,7,-131,0.182363773,-0.299284376,1,0,0,0.7949,submitButton,-0.153508724,-0.348915031,0,0,0,1,6,66,18,1,34,67486,1,180,2022-02-24_18h35.14.805,orientation adjustment 1,2021.2.3,Win32,59.96282305,,,,,,,
,,,,,,,,,,,,,,,,,,,,,,49.44444444,22,20,75,30.44444444,8.444444444,8.444444444,-59.55555556,-0.135041504,-0.385849471,1,0,0,1.4178,submitButton,-0.173130146,-0.309672188,0,0,0,1,7,67,6,1,22,67486,1,180,2022-02-24_18h35.14.805,orientation adjustment 1,2021.2.3,Win32,59.96282305,,,,,,,
,,,,,,,,,,,,,,,,,,,,,,-22.22222222,-70,20,75,-117.2222222,47.22222222,47.22222222,-207.2222222,0.365881775,-0.288896565,1,0,0,1.2504,submitButton,-0.086565051,-0.332756283,0,0,0,1,8,68,54,1,70,67486,1,180,2022-02-24_18h35.14.805,orientation adjustment 1,2021.2.3,Win32,59.96282305,,,,,,,
,,,,,,,,,,,,,,,,,,,,,,21.11111111,74,20,75,68.11111111,5.888888889,5.888888889,-21.88888889,0.177746968,-0.287742434,1,0,0,0.816,submitButton,-0.139658309,-0.396237282,0,0,0,1,9,69,58,1,74,67486,1,180,2022-02-24_18h35.14.805,orientation adjustment 1,2021.2.3,Win32,59.96282305,,,,,,,
,,,,,,,,,,,,,,,,,,,,,,-29.44444444,-19,20,75,-22.44444444,3.444444444,3.444444444,-112.4444444,0.362419171,-0.305055453,1,0,0,0.4828,submitButton,-0.111957479,-0.395083152,0,0,0,1,10,70,3,1,19,67486,1,180,2022-02-24_18h35.14.805,orientation adjustment 1,2021.2.3,Win32,59.96282305,,,,,,,
,,,,,,,,,,,,,,,,,,,,,,49.44444444,49,20,75,59.44444444,10.44444444,10.44444444,-30.55555556,-0.382040645,-0.396237282,1,0,0,1.3005,submitButton,-0.290858745,-0.337373018,0,0,0,1,11,71,33,1,49,67486,1,180,2022-02-24_18h35.14.805,orientation adjustment 1,2021.2.3,Win32,59.96282305,,,,,,,
,,,,,,,,,,,,,,,,,,,,,,25.55555556,16,20,75,13.55555556,2.444444444,2.444444444,-76.44444444,0.36126497,-0.265812539,1,0,0,0.1665,submitButton,-0.237765487,-0.412396171,0,0,0,1,12,72,0,1,16,67486,1,180,2022-02-24_18h35.14.805,orientation adjustment 1,2021.2.3,Win32,59.96282305,,,,,,,
,,,,,,,,,,,,,,,,,,,,,,20,28,20,75,60,32,32,-30,0.27931668,-0.300438577,1,0,0,2.7308,submitButton,-0.05886422,-0.287742434,0,0,0,1,13,73,12,1,28,67486,1,180,2022-02-24_18h35.14.805,orientation adjustment 1,2021.2.3,Win32,59.96282305,,,,,,,
,,,,,,,,,,,,,,,,,,,,,,51.11111111,-58,20,75,-45.88888889,12.11111111,12.11111111,-135.8888889,0.49861492,-0.291205038,1,0,0,0.2057,submitButton,0.555170782,-0.412396171,1,0,0,1,14,74,42,1,58,67486,1,180,2022-02-24_18h35.14.805,orientation adjustment 1,2021.2.3,Win32,59.96282305,pause_continueButton,,,,,,
,,,,,,,,,,,,,,,,,,,,,,56.66666667,-26,20,75,-28.33333333,2.333333333,2.333333333,-118.3333333,0.252770051,-0.30274698,1,0,0,1.3945,submitButton,-0.10387807,-0.382386867,0,0,0,1,15,75,10,1,26,67486,1,180,2022-02-24_18h35.14.805,orientation adjustment 1,2021.2.3,Win32,59.96282305,,,,,,,
,,,,,,,,,,,,,,,,,,,,,,39.44444444,52,20,75,61.44444444,9.444444444,9.444444444,-28.55555556,-0.15004612,-0.408933567,1,0,0,1.9332,submitButton,-0.139658309,-0.363919717,0,0,0,1,16,76,36,1,52,67486,1,180,2022-02-24_18h35.14.805,orientation adjustment 1,2021.2.3,Win32,59.96282305,,,,,,,
,,,,,,,,,,,,,,,,,,,,,,58.88888889,-72,20,75,-63.11111111,8.888888889,8.888888889,-153.1111111,0.362419171,-0.295821772,1,0,0,0.6284,submitButton,-0.125807894,-0.329293679,0,0,0,1,17,77,56,1,72,67486,1,180,2022-02-24_18h35.14.805,orientation adjustment 1,2021.2.3,Win32,59.96282305,,,,,,,
,,,,,,,,,,,,,,,,,,,,,,41.66666667,42,20,75,58.66666667,16.66666667,16.66666667,-31.33333333,0.394736806,-0.299284376,1,0,0,0.1518,submitButton,-0.162742334,-0.373153257,0,0,0,1,18,78,26,1,42,67486,1,180,2022-02-24_18h35.14.805,orientation adjustment 1,2021.2.3,Win32,59.96282305,,,,,,,
,,,,,,,,,,,,,,,,,,,,,,-66.11111111,-54,20,75,-229.1111111,4.888888889,4.888888889,-319.1111111,0.165050755,-0.309672188,1,0,0,2.0949,submitButton,-0.115420082,-0.377770133,0,0,0,1,19,79,38,1,54,67486,1,180,2022-02-24_18h35.14.805,orientation adjustment 1,2021.2.3,Win32,59.96282305,,,,,,,
,,,,,,,,,,,,,,,,,,,,,,-54.44444444,33,20,75,27.55555556,5.444444444,5.444444444,-62.44444444,0.177746968,-0.313134791,1,0,0,0.5496,submitButton,-0.243536493,-0.389312075,0,0,0,1,20,80,17,1,33,67486,1,180,2022-02-24_18h35.14.805,orientation adjustment 1,2021.2.3,Win32,59.96282305,,,,,,,
,,,,,,,,,,,,,,,,,,,,,,21.66666667,53,20,75,50.66666667,2.333333333,2.333333333,-39.33333333,0.323176328,-0.288896565,1,0,0,0.1408,submitButton,-0.183517957,-0.322368472,0,0,0,1,21,81,37,1,53,67486,1,180,2022-02-24_18h35.14.805,orientation adjustment 1,2021.2.3,Win32,59.96282305,,,,,,,
,,,,,,,,,,,,,,,,,,,,,,36.11111111,62,20,75,65.11111111,3.111111111,3.111111111,-24.88888889,0.183517975,-0.29351337,1,0,0,0.7781,submitButton,-0.120036958,-0.367382321,0,0,0,1,22,82,46,1,62,67486,1,180,2022-02-24_18h35.14.805,orientation adjustment 1,2021.2.3,Win32,59.96282305,,,,,,,
,,,,,,,,,,,,,,,,,,,,,,-68.88888889,-63,20,75,-62.88888889,0.111111111,0.111111111,-152.8888889,0.162742352,-0.299284376,1,0,0,0.4664,submitButton,-0.132733101,-0.358148641,0,0,0,1,23,83,47,1,63,67486,1,180,2022-02-24_18h35.14.805,orientation adjustment 1,2021.2.3,Win32,59.96282305,,,,,,,
,,,,,,,,,,,,,,,,,,,,,,-56.66666667,48,20,75,-126.6666667,5.333333333,5.333333333,-216.6666667,0.208910403,-0.320059999,1,0,0,2.3662,submitButton,-0.216989864,-0.344298225,0,0,0,1,24,84,32,1,48,67486,1,180,2022-02-24_18h35.14.805,orientation adjustment 1,2021.2.3,Win32,59.96282305,,,,,,,
,,,,,,,,,,,,,,,,,,,,,,-22.22222222,-75,20,75,-61.22222222,13.77777778,13.77777778,-151.2222222,0.150046138,-0.300438577,1,0,0,0.4449,submitButton,-0.099261335,-0.413550301,0,0,0,1,25,85,59,1,75,67486,1,180,2022-02-24_18h35.14.805,orientation adjustment 1,2021.2.3,Win32,59.96282305,,,,,,,
,,,,,,,,,,,,,,,,,,,,,,25,45,20,75,40,5,5,-50,0.400507813,-0.306209584,1,0,0,0.1171,submitButton,-0.110803277,-0.396237282,0,0,0,1,26,86,29,1,45,67486,1,180,2022-02-24_18h35.14.805,orientation adjustment 1,2021.2.3,Win32,59.96282305,,,,,,,
,,,,,,,,,,,,,,,,,,,,,,-39.44444444,-24,20,75,-24.44444444,0.444444444,0.444444444,-114.4444444,0.170821761,-0.308518057,1,0,0,0.4116,submitButton,-0.141966712,-0.396237282,0,0,0,1,27,87,8,1,24,67486,1,180,2022-02-24_18h35.14.805,orientation adjustment 1,2021.2.3,Win32,59.96282305,,,,,,,
,,,,,,,,,,,,,,,,,,,,,,-75,66,20,75,71,5,5,-19,0.177746968,-0.323522603,1,0,0,0.1319,submitButton,-0.1581256,-0.374307529,0,0,0,1,28,88,50,1,66,67486,1,180,2022-02-24_18h35.14.805,orientation adjustment 1,2021.2.3,Win32,59.96282305,,,,,,,
,,,,,,,,,,,,,,,,,,,,,,-63.33333333,-38,20,75,-47.33333333,9.333333333,9.333333333,-137.3333333,0.195059987,-0.295821772,1,0,0,0.5205,submitButton,0.293167095,-0.387003672,1,0,0,1,29,89,22,1,38,67486,1,180,2022-02-24_18h35.14.805,orientation adjustment 1,2021.2.3,Win32,59.96282305,pause_continueButton,,,,,,
,,,,,,,,,,,,,,,,,,,,,,21.66666667,-68,20,75,-65.33333333,2.666666667,2.666666667,-155.3333333,0.412049825,-0.291205038,1,0,0,0.0956,submitButton,0.18813478,-0.285433961,0,0,0,1,30,90,52,1,68,67486,1,180,2022-02-24_18h35.14.805,orientation adjustment 1,2021.2.3,Win32,59.96282305,,,,,,,
,,,,,,,,,,,,,,,,,,,,,,-20.55555556,-56,20,75,-55.55555556,0.444444444,0.444444444,-145.5555556,0.195059987,-0.28427983,1,0,0,0.0783,submitButton,0.190443182,-0.418167106,0,0,0,1,31,91,40,1,56,67486,1,180,2022-02-24_18h35.14.805,orientation adjustment 1,2021.2.3,Win32,59.96282305,,,,,,,
,,,,,,,,,,,,,,,,,,,,,,44.44444444,-31,20,75,-23.55555556,7.444444444,7.444444444,-113.5555556,0.409741423,-0.290050766,1,0,0,0.028,submitButton,-0.310480167,-0.405470963,0,0,0,1,32,92,15,1,31,67486,1,180,2022-02-24_18h35.14.805,orientation adjustment 1,2021.2.3,Win32,59.96282305,,,,,,,
,,,,,,,,,,,,,,,,,,,,,,-42.77777778,-59,20,75,-68.77777778,9.777777778,9.777777778,-158.7777778,0.161588151,-0.287742434,1,0,0,0.3785,submitButton,-0.189289034,-0.402008359,0,0,0,1,33,93,43,1,59,67486,1,180,2022-02-24_18h35.14.805,orientation adjustment 1,2021.2.3,Win32,59.96282305,,,,,,,
,,,,,,,,,,,,,,,,,,,,,,37.22222222,-21,20,75,-22.77777778,1.777777778,1.777777778,-112.7777778,0.45244687,-0.251962124,1,0,0,1.0948,submitButton,-0.141966712,-0.397391484,0,0,0,1,34,94,5,1,21,67486,1,180,2022-02-24_18h35.14.805,orientation adjustment 1,2021.2.3,Win32,59.96282305,,,,,,,
,,,,,,,,,,,,,,,,,,,,,,43.33333333,44,20,75,51.33333333,7.333333333,7.333333333,-38.66666667,0.317405322,-0.315443264,1,0,0,0.1158,submitButton,-0.116574354,-0.355840238,0,0,0,1,35,95,28,1,44,67486,1,180,2022-02-24_18h35.14.805,orientation adjustment 1,2021.2.3,Win32,59.96282305,,,,,,,
,,,,,,,,,,,,,,,,,,,,,,65,-32,20,75,-25,7,7,-115,0.128116314,-0.314288993,1,0,0,1.4281,submitButton,-0.379732243,-0.311980661,0,0,0,1,36,96,16,1,32,67486,1,180,2022-02-24_18h35.14.805,orientation adjustment 1,2021.2.3,Win32,59.96282305,,,,,,,
,,,,,,,,,,,,,,,,,,,,,,72.77777778,71,20,75,167.7777778,83.22222222,83.22222222,77.77777778,0.216989811,-0.29351337,1,0,0,0.5537,submitButton,-0.147737788,-0.382386867,0,0,0,1,37,97,55,1,71,67486,1,180,2022-02-24_18h35.14.805,orientation adjustment 1,2021.2.3,Win32,59.96282305,,,,,,,
,,,,,,,,,,,,,,,,,,,,,,-62.77777778,35,20,75,52.22222222,17.22222222,17.22222222,-37.77777778,0.173130163,-0.328139408,1,0,0,1.4786,submitButton,-0.146583517,-0.367382321,0,0,0,1,38,98,19,1,35,67486,1,180,2022-02-24_18h35.14.805,orientation adjustment 1,2021.2.3,Win32,59.96282305,,,,,,,
,,,,,,,,,,,,,,,,,,,,,,-36.66666667,-41,20,75,-44.66666667,3.666666667,3.666666667,-134.6666667,0.207756201,-0.3212142,1,0,0,0.5502,submitButton,-0.125807894,-0.38469534,0,0,0,1,39,99,25,1,41,67486,1,180,2022-02-24_18h35.14.805,orientation adjustment 1,2021.2.3,Win32,59.96282305,,,,,,,
,,,,,,,,,,,,,,,,,,,,,,36.66666667,47,20,75,64.66666667,17.66666667,17.66666667,-25.33333333,0.401662014,-0.301592849,1,0,0,0.1165,submitButton,-0.210064657,-0.347760829,0,0,0,1,40,100,31,1,47,67486,1,180,2022-02-24_18h35.14.805,orientation adjustment 1,2021.2.3,Win32,59.96282305,,,,,,,
,,,,,,,,,,,,,,,,,,,,,,27.22222222,-61,20,75,-55.77777778,5.222222222,5.222222222,-145.7777778,-0.110803277,-0.383541069,1,0,0,1.6274,submitButton,-0.169667542,-0.362765446,0,0,0,1,41,101,45,1,61,67486,1,180,2022-02-24_18h35.14.805,orientation adjustment 1,2021.2.3,Win32,59.96282305,,,,,,,
,,,,,,,,,,,,,,,,,,,,,,56.66666667,39,20,75,58.66666667,19.66666667,19.66666667,-31.33333333,0.380886391,-0.301592849,1,0,0,0.478,submitButton,-0.147737788,-0.407779295,0,0,0,1,42,102,23,1,39,67486,1,180,2022-02-24_18h35.14.805,orientation adjustment 1,2021.2.3,Win32,59.96282305,,,,,,,
,,,,,,,,,,,,,,,,,,,,,,-65,36,20,75,31,5,5,-59,0.200830994,-0.280817226,1,0,0,0.9507,submitButton,-0.066943629,-0.350069302,0,0,0,1,43,103,20,1,36,67486,1,180,2022-02-24_18h35.14.805,orientation adjustment 1,2021.2.3,Win32,59.96282305,,,,,,,
,,,,,,,,,,,,,,,,,,,,,,-67.22222222,-29,20,75,-40.22222222,11.22222222,11.22222222,-130.2222222,0.141966729,-0.291205038,1,0,0,0.8115,submitButton,0.459372077,-0.407779295,1,0,0,1,44,104,13,1,29,67486,1,180,2022-02-24_18h35.14.805,orientation adjustment 1,2021.2.3,Win32,59.96282305,pause_continueButton,,,,,,
,,,,,,,,,,,,,,,,,,,,,,21.11111111,51,20,75,53.11111111,2.111111111,2.111111111,-36.88888889,0.372806982,-0.299284376,1,0,0,0.0481,submitButton,-0.116574354,-0.329293679,0,0,0,1,45,105,35,1,51,67486,1,180,2022-02-24_18h35.14.805,orientation adjustment 1,2021.2.3,Win32,59.96282305,,,,,,,
,,,,,,,,,,,,,,,,,,,,,,35,65,20,75,75,10,10,-15,0.349722957,-0.279662955,1,0,0,0.1046,submitButton,-0.300092355,-0.353531906,0,0,0,1,46,106,49,1,65,67486,1,180,2022-02-24_18h35.14.805,orientation adjustment 1,2021.2.3,Win32,59.96282305,,,,,,,
,,,,,,,,,,,,,,,,,,,,,,60,-60,20,75,-49,11,11,-139,0.369344378,-0.295821772,1,0,0,0.2171,submitButton,-0.192751638,-0.410087698,0,0,0,1,47,107,44,1,60,67486,1,180,2022-02-24_18h35.14.805,orientation adjustment 1,2021.2.3,Win32,59.96282305,,,,,,,
,,,,,,,,,,,,,,,,,,,,,,-47.22222222,-30,20,75,-25.22222222,4.777777778,4.777777778,-115.2222222,0.171975962,-0.271583546,1,0,0,0.4284,submitButton,-0.137349977,-0.380078465,0,0,0,1,48,108,14,1,30,67486,1,180,2022-02-24_18h35.14.805,orientation adjustment 1,2021.2.3,Win32,59.96282305,,,,,,,
,,,,,,,,,,,,,,,,,,,,,,67.22222222,-40,20,75,-30.77777778,9.222222222,9.222222222,-120.7777778,-0.162742334,-0.419321378,1,0,0,1.4116,submitButton,-0.190443165,-0.426246586,0,0,0,1,49,109,24,1,40,67486,1,180,2022-02-24_18h35.14.805,orientation adjustment 1,2021.2.3,Win32,59.96282305,,,,,,,
,,,,,,,,,,,,,,,,,,,,,,71.11111111,67,20,75,246.1111111,0.888888889,0.888888889,156.1111111,0.201985195,-0.316597395,1,0,0,1.7158,submitButton,-0.205447781,-0.348915031,0,0,0,1,50,110,51,1,67,67486,1,180,2022-02-24_18h35.14.805,orientation adjustment 1,2021.2.3,Win32,59.96282305,,,,,,,
,,,,,,,,,,,,,,,,,,,,,,38.33333333,73,20,75,68.33333333,4.666666667,4.666666667,-21.66666667,0.383194794,-0.278508753,1,0,0,0.1658,submitButton,-0.526315768,-0.3212142,0,0,0,1,51,111,57,1,73,67486,1,180,2022-02-24_18h35.14.805,orientation adjustment 1,2021.2.3,Win32,59.96282305,,,,,,,
,,,,,,,,,,,,,,,,,,,,,,-47.22222222,57,20,75,49.77777778,7.222222222,7.222222222,-40.22222222,0.171975962,-0.278508753,1,0,0,0.9647,submitButton,-0.071560505,-0.245036917,0,0,0,1,52,112,41,1,57,67486,1,180,2022-02-24_18h35.14.805,orientation adjustment 1,2021.2.3,Win32,59.96282305,,,,,,,
,,,,,,,,,,,,,,,,,,,,,,67.22222222,55,20,75,59.22222222,4.222222222,4.222222222,-30.77777778,0.341643548,-0.299284376,1,0,0,1.5286,submitButton,-0.219298196,-0.39392888,0,0,0,1,53,113,39,1,55,67486,1,180,2022-02-24_18h35.14.805,orientation adjustment 1,2021.2.3,Win32,59.96282305,,,,,,,
,,,,,,,,,,,,,,,,,,,,,,55.55555556,-27,20,75,-27.44444444,0.444444444,0.444444444,-117.4444444,0.324330529,-0.287742434,1,0,0,0.0836,submitButton,-0.138504108,-0.411241899,0,0,0,1,54,114,11,1,27,67486,1,180,2022-02-24_18h35.14.805,orientation adjustment 1,2021.2.3,Win32,59.96282305,,,,,,,
,,,,,,,,,,,,,,,,,,,,,,-44.44444444,-46,20,75,-49.44444444,3.444444444,3.444444444,-139.4444444,0.204293598,-0.298130245,1,0,0,0.7108,submitButton,-0.181209555,-0.363919717,0,0,0,1,55,115,30,1,46,67486,1,180,2022-02-24_18h35.14.805,orientation adjustment 1,2021.2.3,Win32,59.96282305,,,,,,,
,,,,,,,,,,,,,,,,,,,,,,-74.44444444,-18,20,75,-9.444444444,8.555555556,8.555555556,-99.44444444,0.206602,-0.286588162,1,0,0,0.0166,submitButton,-0.123499562,-0.343144095,0,0,0,1,56,116,2,1,18,67486,1,180,2022-02-24_18h35.14.805,orientation adjustment 1,2021.2.3,Win32,59.96282305,,,,,,,
,,,,,,,,,,,,,,,,,,,,,,32.77777778,-23,20,75,-18.22222222,4.777777778,4.777777778,-108.2222222,0.380886391,-0.296975974,1,0,0,0.3668,submitButton,-0.101569667,-0.37546166,0,0,0,1,57,117,7,1,23,67486,1,180,2022-02-24_18h35.14.805,orientation adjustment 1,2021.2.3,Win32,59.96282305,,,,,,,
,,,,,,,,,,,,,,,,,,,,,,-57.22222222,-64,20,75,-232.2222222,11.77777778,11.77777778,-322.2222222,0.383194794,-0.301592849,1,0,0,1.8283,submitButton,-0.101569667,-0.392774679,0,0,0,1,58,118,48,1,64,67486,1,180,2022-02-24_18h35.14.805,orientation adjustment 1,2021.2.3,Win32,59.96282305,,,,,,,
,,,,,,,,,,,,,,,,,,,,,,-33.88888889,17,20,75,29.11111111,12.11111111,12.11111111,-60.88888889,0.199676792,-0.318905868,1,0,0,0.3954,submitButton,0.255078453,-0.414704503,1,0,0,1,59,119,1,1,17,67486,1,180,2022-02-24_18h35.14.805,orientation adjustment 1,2021.2.3,Win32,59.96282305,pause_continueButton,,,,,,
,,,,,,,,,,,,,,,,,,,,,,-26.66666667,-57,20,75,-61.66666667,4.666666667,4.666666667,-151.6666667,0.211218805,-0.279662955,1,0,0,0.1505,submitButton,-0.129270498,-0.333910414,0,0,0,2,0,120,41,1,57,67486,1,180,2022-02-24_18h35.14.805,orientation adjustment 1,2021.2.3,Win32,59.96282305,,,,,,,
,,,,,,,,,,,,,,,,,,,,,,72.22222222,-42,20,75,-31.77777778,10.22222222,10.22222222,-121.7777778,0.41666663,-0.299284376,1,0,0,0.9004,submitButton,0.152354541,-0.315443264,0,0,0,2,1,121,26,1,42,67486,1,180,2022-02-24_18h35.14.805,orientation adjustment 1,2021.2.3,Win32,59.96282305,,,,,,,
,,,,,,,,,,,,,,,,,,,,,,-37.77777778,-70,20,75,-67.77777778,2.222222222,2.222222222,-157.7777778,0.206602,-0.272737747,1,0,0,0.6672,submitButton,-0.048476409,-0.315443264,0,0,0,2,2,122,54,1,70,67486,1,180,2022-02-24_18h35.14.805,orientation adjustment 1,2021.2.3,Win32,59.96282305,,,,,,,
,,,,,,,,,,,,,,,,,,,,,,48.33333333,59,20,75,70.33333333,11.33333333,11.33333333,-19.66666667,0.165050755,-0.290050766,1,0,0,1.0005,submitButton,-0.09464446,-0.353531906,0,0,0,2,3,123,43,1,59,67486,1,180,2022-02-24_18h35.14.805,orientation adjustment 1,2021.2.3,Win32,59.96282305,,,,,,,
,,,,,,,,,,,,,,,,,,,,,,-50,-53,20,75,-65,12,12,-155,0.161588151,-0.278508753,1,0,0,0.4827,submitButton,0.065789516,-0.376615861,0,0,0,2,4,124,37,1,53,67486,1,180,2022-02-24_18h35.14.805,orientation adjustment 1,2021.2.3,Win32,59.96282305,,,,,,,
,,,,,,,,,,,,,,,,,,,,,,32.22222222,-37,20,75,-35.77777778,1.222222222,1.222222222,-125.7777778,0.362419171,-0.281971357,1,0,0,0.4452,submitButton,-0.071560505,-0.362765446,0,0,0,2,5,125,21,1,37,67486,1,180,2022-02-24_18h35.14.805,orientation adjustment 1,2021.2.3,Win32,59.96282305,,,,,,,
,,,,,,,,,,,,,,,,,,,,,,-68.88888889,-40,20,75,-60.88888889,20.88888889,20.88888889,-150.8888889,0.219298214,-0.29351337,1,0,0,0.6507,submitButton,-0.324330582,-0.412396171,0,0,0,2,6,126,24,1,40,67486,1,180,2022-02-24_18h35.14.805,orientation adjustment 1,2021.2.3,Win32,59.96282305,,,,,,,
,,,,,,,,,,,,,,,,,,,,,,62.22222222,65,20,75,63.22222222,1.777777778,1.777777778,-26.77777778,0.345106152,-0.316597395,1,0,0,0.9957,submitButton,-0.183517957,-0.417012905,0,0,0,2,7,127,49,1,65,67486,1,180,2022-02-24_18h35.14.805,orientation adjustment 1,2021.2.3,Win32,59.96282305,,,,,,,
,,,,,,,,,,,,,,,,,,,,,,-34.44444444,75,20,75,67.55555556,7.444444444,7.444444444,-22.44444444,0.183517975,-0.308518057,1,0,0,0.1268,submitButton,-0.208910385,-0.352377634,0,0,0,2,8,128,59,1,75,67486,1,180,2022-02-24_18h35.14.805,orientation adjustment 1,2021.2.3,Win32,59.96282305,,,,,,,
,,,,,,,,,,,,,,,,,,,,,,41.66666667,54,20,75,59.66666667,5.666666667,5.666666667,-30.33333333,0.373961184,-0.30274698,1,0,0,0.2456,submitButton,-0.128116296,-0.390466276,0,0,0,2,9,129,38,1,54,67486,1,180,2022-02-24_18h35.14.805,orientation adjustment 1,2021.2.3,Win32,59.96282305,,,,,,,
,,,,,,,,,,,,,,,,,,,,,,26.11111111,61,20,75,61.11111111,0.111111111,0.111111111,-28.88888889,0.384348995,-0.291205038,1,0,0,0.1684,submitButton,-0.168513411,-0.367382321,0,0,0,2,10,130,45,1,61,67486,1,180,2022-02-24_18h35.14.805,orientation adjustment 1,2021.2.3,Win32,59.96282305,,,,,,,
,,,,,,,,,,,,,,,,,,,,,,-54.44444444,22,20,75,16.55555556,5.444444444,5.444444444,-73.44444444,0.174284365,-0.335064615,1,0,0,0.8014,submitButton,-0.148891919,-0.361611244,0,0,0,2,11,131,6,1,22,67486,1,180,2022-02-24_18h35.14.805,orientation adjustment 1,2021.2.3,Win32,59.96282305,,,,,,,
,,,,,,,,,,,,,,,,,,,,,,-29.44444444,51,20,75,49.55555556,1.444444444,1.444444444,-40.44444444,0.22506922,-0.300438577,1,0,0,0.3003,submitButton,0.009233654,-0.328139408,0,0,0,2,12,132,35,1,51,67486,1,180,2022-02-24_18h35.14.805,orientation adjustment 1,2021.2.3,Win32,59.96282305,,,,,,,
,,,,,,,,,,,,,,,,,,,,,,-40,31,20,75,27,4,4,-63,0.222760818,-0.314288993,1,0,0,0.5339,submitButton,-0.155817127,-0.383541069,0,0,0,2,13,133,15,1,31,67486,1,180,2022-02-24_18h35.14.805,orientation adjustment 1,2021.2.3,Win32,59.96282305,,,,,,,
,,,,,,,,,,,,,,,,,,,,,,-65.55555556,21,20,75,24.44444444,3.444444444,3.444444444,-65.55555556,0.236611233,-0.311980661,1,0,0,0.0664,submitButton,0.465143083,-0.400854087,1,0,0,2,14,134,5,1,21,67486,1,180,2022-02-24_18h35.14.805,orientation adjustment 1,2021.2.3,Win32,59.96282305,pause_continueButton,,,,,,
,,,,,,,,,,,,,,,,,,,,,,-57.22222222,-50,20,75,-63.22222222,13.22222222,13.22222222,-153.2222222,0.222760818,-0.279662955,1,0,0,0.5012,submitButton,-0.160433932,-0.294667642,0,0,0,2,15,135,34,1,50,67486,1,180,2022-02-24_18h35.14.805,orientation adjustment 1,2021.2.3,Win32,59.96282305,,,,,,,
,,,,,,,,,,,,,,,,,,,,,,-41.11111111,24,20,75,17.88888889,6.111111111,6.111111111,-72.11111111,-0.173130146,-0.396237282,1,0,0,0.9835,submitButton,-0.013850371,-0.286588162,0,0,0,2,16,136,8,1,24,67486,1,180,2022-02-24_18h35.14.805,orientation adjustment 1,2021.2.3,Win32,59.96282305,,,,,,,
,,,,,,,,,,,,,,,,,,,,,,36.11111111,66,20,75,66.11111111,0.111111111,0.111111111,-23.88888889,-0.233148682,-0.382386867,1,0,0,1.2494,submitButton,0.27931668,-0.325831076,0,0,0,2,17,137,50,1,66,67486,1,180,2022-02-24_18h35.14.805,orientation adjustment 1,2021.2.3,Win32,59.96282305,,,,,,,
,,,,,,,,,,,,,,,,,,,,,,-24.44444444,41,20,75,35.55555556,5.444444444,5.444444444,-54.44444444,-0.161588204,-0.400854087,1,0,0,0.6165,submitButton,-0.161588204,-0.400854087,0,0,0,2,18,138,25,1,41,67486,1,180,2022-02-24_18h35.14.805,orientation adjustment 1,2021.2.3,Win32,59.96282305,,,,,,,
,,,,,,,,,,,,,,,,,,,,,,34.44444444,-63,20,75,-50.55555556,12.44444444,12.44444444,-140.5555556,-0.178901223,-0.377770133,1,0,0,1.0001,submitButton,-0.170821743,-0.341989823,0,0,0,2,19,139,47,1,63,67486,1,180,2022-02-24_18h35.14.805,orientation adjustment 1,2021.2.3,Win32,59.96282305,,,,,,,
,,,,,,,,,,,,,,,,,,,,,,46.66666667,33,20,75,27.66666667,5.333333333,5.333333333,-62.33333333,0.41666663,-0.307363785,1,0,0,0.7447,submitButton,-0.256232707,-0.333910414,0,0,0,2,20,140,17,1,33,67486,1,180,2022-02-24_18h35.14.805,orientation adjustment 1,2021.2.3,Win32,59.96282305,,,,,,,
,,,,,,,,,,,,,,,,,,,,,,23.88888889,-74,20,75,-79.11111111,5.111111111,5.111111111,-169.1111111,0.431671247,-0.272737747,1,0,0,0.8007,submitButton,-0.218143995,-0.387003672,0,0,0,2,21,141,58,1,74,67486,1,180,2022-02-24_18h35.14.805,orientation adjustment 1,2021.2.3,Win32,59.96282305,,,,,,,
,,,,,,,,,,,,,,,,,,,,,,31.11111111,-17,20,75,-23.88888889,6.888888889,6.888888889,-113.8888889,0.37049858,-0.307363785,1,0,0,0.7115,submitButton,-0.190443165,-0.369690653,0,0,0,2,22,142,1,1,17,67486,1,180,2022-02-24_18h35.14.805,orientation adjustment 1,2021.2.3,Win32,59.96282305,,,,,,,
,,,,,,,,,,,,,,,,,,,,,,-36.11111111,19,20,75,14.88888889,4.111111111,4.111111111,-75.11111111,0.403970416,-0.277354623,1,0,0,0.7117,submitButton,-0.027700786,-0.294667642,0,0,0,2,23,143,3,1,19,67486,1,180,2022-02-24_18h35.14.805,orientation adjustment 1,2021.2.3,Win32,59.96282305,,,,,,,
,,,,,,,,,,,,,,,,,,,,,,-53.33333333,48,20,75,53.66666667,5.666666667,5.666666667,-36.33333333,-0.208910385,-0.392774679,1,0,0,2.0527,submitButton,-0.173130146,-0.347760829,0,0,0,2,24,144,32,1,48,67486,1,180,2022-02-24_18h35.14.805,orientation adjustment 1,2021.2.3,Win32,59.96282305,,,,,,,
,,,,,,,,,,,,,,,,,,,,,,-32.77777778,-60,20,75,-62.77777778,2.777777778,2.777777778,-152.7777778,0.227377623,-0.331602012,1,0,0,0.0547,submitButton,-0.233148682,-0.36622805,0,0,0,2,25,145,44,1,60,67486,1,180,2022-02-24_18h35.14.805,orientation adjustment 1,2021.2.3,Win32,59.96282305,,,,,,,
,,,,,,,,,,,,,,,,,,,,,,-70.55555556,-30,20,75,-31.55555556,1.555555556,1.555555556,-121.5555556,0.183517975,-0.290050766,1,0,0,0.0556,submitButton,0.016158862,-0.290050766,0,0,0,2,26,146,14,1,30,67486,1,180,2022-02-24_18h35.14.805,orientation adjustment 1,2021.2.3,Win32,59.96282305,,,,,,,
,,,,,,,,,,,,,,,,,,,,,,48.33333333,-47,20,75,-50.66666667,3.666666667,3.666666667,-140.6666667,-0.137349977,-0.407779295,1,0,0,1.4118,submitButton,-0.132733101,-0.363919717,0,0,0,2,27,147,31,1,47,67486,1,180,2022-02-24_18h35.14.805,orientation adjustment 1,2021.2.3,Win32,59.96282305,,,,,,,
,,,,,,,,,,,,,,,,,,,,,,62.22222222,-72,20,75,-75.77777778,3.777777778,3.777777778,-165.7777778,-0.1581256,-0.381232736,1,0,0,2.1327,submitButton,-0.087719252,-0.298130245,0,0,0,2,28,148,56,1,72,67486,1,180,2022-02-24_18h35.14.805,orientation adjustment 1,2021.2.3,Win32,59.96282305,,,,,,,
,,,,,,,,,,,,,,,,,,,,,,37.77777778,-64,20,75,-72.22222222,8.222222222,8.222222222,-162.2222222,-0.181209555,-0.38469534,1,0,0,1.1455,submitButton,0.353185561,-0.381232736,1,0,0,2,29,149,48,1,64,67486,1,180,2022-02-24_18h35.14.805,orientation adjustment 1,2021.2.3,Win32,59.96282305,pause_continueButton,,,,,,
,,,,,,,,,,,,,,,,,,,,,,-73.88888889,-23,20,75,-33.88888889,10.88888889,10.88888889,-123.8888889,0.204293598,-0.309672188,1,0,0,0.0368,submitButton,0.343951951,-0.24849952,0,0,0,2,30,150,7,1,23,67486,1,180,2022-02-24_18h35.14.805,orientation adjustment 1,2021.2.3,Win32,59.96282305,,,,,,,
,,,,,,,,,,,,,,,,,,,,,,-22.77777778,-29,20,75,-27.77777778,1.222222222,1.222222222,-117.7777778,0.204293598,-0.273892019,1,0,0,0.089,submitButton,0.219298214,-0.280817226,0,0,0,2,31,151,13,1,29,67486,1,180,2022-02-24_18h35.14.805,orientation adjustment 1,2021.2.3,Win32,59.96282305,,,,,,,
,,,,,,,,,,,,,,,,,,,,,,-20.55555556,-25,20,75,-24.55555556,0.444444444,0.444444444,-114.5555556,0.454755272,-0.298130245,1,0,0,0.6618,submitButton,-0.099261335,-0.303901181,0,0,0,2,32,152,9,1,25,67486,1,180,2022-02-24_18h35.14.805,orientation adjustment 1,2021.2.3,Win32,59.96282305,,,,,,,
,,,,,,,,,,,,,,,,,,,,,,54.44444444,67,20,75,62.44444444,4.555555556,4.555555556,-27.55555556,0.415512429,-0.290050766,1,0,0,0.6193,submitButton,-0.160433932,-0.355840238,0,0,0,2,33,153,51,1,67,67486,1,180,2022-02-24_18h35.14.805,orientation adjustment 1,2021.2.3,Win32,59.96282305,,,,,,,
,,,,,,,,,,,,,,,,,,,,,,33.88888889,18,20,75,23.88888889,5.888888889,5.888888889,-66.11111111,0.378577989,-0.278508753,1,0,0,0.2952,submitButton,-0.075023109,-0.324676804,0,0,0,2,34,154,2,1,18,67486,1,180,2022-02-24_18h35.14.805,orientation adjustment 1,2021.2.3,Win32,59.96282305,,,,,,,
,,,,,,,,,,,,,,,,,,,,,,71.66666667,-20,20,75,-17.33333333,2.666666667,2.666666667,-107.3333333,-0.151200392,-0.389312075,1,0,0,1.9977,submitButton,-0.413204079,-0.309672188,0,0,0,2,35,155,4,1,20,67486,1,180,2022-02-24_18h35.14.805,orientation adjustment 1,2021.2.3,Win32,59.96282305,,,,,,,
,,,,,,,,,,,,,,,,,,,,,,22.22222222,-34,20,75,-29.77777778,4.222222222,4.222222222,-119.7777778,0.349722957,-0.292359169,1,0,0,0.1541,submitButton,0.165050755,-0.370844925,0,0,0,2,36,156,18,1,34,67486,1,180,2022-02-24_18h35.14.805,orientation adjustment 1,2021.2.3,Win32,59.96282305,,,,,,,
,,,,,,,,,,,,,,,,,,,,,,48.33333333,26,20,75,31.33333333,5.333333333,5.333333333,-58.66666667,0.386657397,-0.286588162,1,0,0,0.6157,submitButton,-0.165050807,-0.363919717,0,0,0,2,37,157,10,1,26,67486,1,180,2022-02-24_18h35.14.805,orientation adjustment 1,2021.2.3,Win32,59.96282305,,,,,,,
,,,,,,,,,,,,,,,,,,,,,,28.88888889,-68,20,75,-76.11111111,8.111111111,8.111111111,-166.1111111,0.3889658,-0.286588162,1,0,0,0.3321,submitButton,-0.154662996,-0.37546166,0,0,0,2,38,158,52,1,68,67486,1,180,2022-02-24_18h35.14.805,orientation adjustment 1,2021.2.3,Win32,59.96282305,,,,,,,
,,,,,,,,,,,,,,,,,,,,,,24.44444444,-39,20,75,-43.55555556,4.555555556,4.555555556,-133.5555556,0.413204027,-0.291205038,1,0,0,0.1168,submitButton,-0.191597366,-0.382386867,0,0,0,2,39,159,23,1,39,67486,1,180,2022-02-24_18h35.14.805,orientation adjustment 1,2021.2.3,Win32,59.96282305,,,,,,,
,,,,,,,,,,,,,,,,,,,,,,-67.77777778,35,20,75,-125.7777778,19.22222222,19.22222222,-215.7777778,0.377423787,-0.30274698,1,0,0,1.5271,submitButton,0.109649094,-0.190789457,0,0,0,2,40,160,19,1,35,67486,1,180,2022-02-24_18h35.14.805,orientation adjustment 1,2021.2.3,Win32,59.96282305,,,,,,,
,,,,,,,,,,,,,,,,,,,,,,-35.55555556,-56,20,75,-65.55555556,9.555555556,9.555555556,-155.5555556,0.156971346,-0.269275143,1,0,0,0.1449,submitButton,-0.191597366,-0.350069302,0,0,0,2,41,161,40,1,56,67486,1,180,2022-02-24_18h35.14.805,orientation adjustment 1,2021.2.3,Win32,59.96282305,,,,,,,
,,,,,,,,,,,,,,,,,,,,,,48.33333333,16,20,75,29.33333333,13.33333333,13.33333333,-60.66666667,0.362419171,-0.292359169,1,0,0,0.2623,submitButton,-0.165050807,-0.377770133,0,0,0,2,42,162,0,1,16,67486,1,180,2022-02-24_18h35.14.805,orientation adjustment 1,2021.2.3,Win32,59.96282305,,,,,,,
,,,,,,,,,,,,,,,,,,,,,,-60,62,20,75,68,6,6,-22,0.222760818,-0.291205038,1,0,0,0.8807,submitButton,-0.137349977,-0.381232736,0,0,0,2,43,163,46,1,62,67486,1,180,2022-02-24_18h35.14.805,orientation adjustment 1,2021.2.3,Win32,59.96282305,,,,,,,
,,,,,,,,,,,,,,,,,,,,,,31.11111111,-38,20,75,-31.88888889,6.111111111,6.111111111,-121.8888889,0.354339762,-0.30274698,1,0,0,0.1116,submitButton,0.3889658,-0.405470963,1,0,0,2,44,164,22,1,38,67486,1,180,2022-02-24_18h35.14.805,orientation adjustment 1,2021.2.3,Win32,59.96282305,pause_continueButton,,,,,,
,,,,,,,,,,,,,,,,,,,,,,67.77777778,-49,20,75,-44.22222222,4.777777778,4.777777778,-134.2222222,-0.207756184,-0.411241899,1,0,0,1.5291,submitButton,0.218144013,-0.303901181,0,0,0,2,45,165,33,1,49,67486,1,180,2022-02-24_18h35.14.805,orientation adjustment 1,2021.2.3,Win32,59.96282305,,,,,,,
,,,,,,,,,,,,,,,,,,,,,,-70.55555556,-36,20,75,-27.55555556,8.444444444,8.444444444,-117.5555556,0.191597384,-0.294667642,1,0,0,0.3948,submitButton,-0.183517957,-0.370844925,0,0,0,2,46,166,20,1,36,67486,1,180,2022-02-24_18h35.14.805,orientation adjustment 1,2021.2.3,Win32,59.96282305,,,,,,,
,,,,,,,,,,,,,,,,,,,,,,71.11111111,55,20,75,232.1111111,2.888888889,2.888888889,142.1111111,0.146583534,-0.273892019,1,0,0,1.683,submitButton,-0.111957479,-0.337373018,0,0,0,2,47,167,39,1,55,67486,1,180,2022-02-24_18h35.14.805,orientation adjustment 1,2021.2.3,Win32,59.96282305,,,,,,,
,,,,,,,,,,,,,,,,,,,,,,44.44444444,43,20,75,57.44444444,14.44444444,14.44444444,-32.55555556,-0.151200392,-0.390466276,1,0,0,1.0998,submitButton,-0.152354523,-0.371999056,0,0,0,2,48,168,27,1,43,67486,1,180,2022-02-24_18h35.14.805,orientation adjustment 1,2021.2.3,Win32,59.96282305,,,,,,,
,,,,,,,,,,,,,,,,,,,,,,65,-69,20,75,-75,6,6,-165,0.451292668,-0.27504615,1,0,0,1.2513,submitButton,-0.165050807,-0.414704503,0,0,0,2,49,169,53,1,69,67486,1,180,2022-02-24_18h35.14.805,orientation adjustment 1,2021.2.3,Win32,59.96282305,,,,,,,
,,,,,,,,,,,,,,,,,,,,,,-31.66666667,-27,20,75,-23.66666667,3.333333333,3.333333333,-113.6666667,-0.145429315,-0.397391484,1,0,0,0.8166,submitButton,-0.139658309,-0.371999056,0,0,0,2,50,170,11,1,27,67486,1,180,2022-02-24_18h35.14.805,orientation adjustment 1,2021.2.3,Win32,59.96282305,,,,,,,
,,,,,,,,,,,,,,,,,,,,,,51.11111111,-45,20,75,-38.88888889,6.111111111,6.111111111,-128.8888889,-0.139658309,-0.383541069,1,0,0,1.1833,submitButton,-0.140812581,-0.383541069,0,0,0,2,51,171,29,1,45,67486,1,180,2022-02-24_18h35.14.805,orientation adjustment 1,2021.2.3,Win32,59.96282305,,,,,,,
,,,,,,,,,,,,,,,,,,,,,,-59.44444444,-52,20,75,-65.44444444,13.44444444,13.44444444,-155.4444444,0.212373006,-0.314288993,1,0,0,0.1491,submitButton,-0.139658309,-0.414704503,0,0,0,2,52,172,36,1,52,67486,1,180,2022-02-24_18h35.14.805,orientation adjustment 1,2021.2.3,Win32,59.96282305,,,,,,,
,,,,,,,,,,,,,,,,,,,,,,-75,46,20,75,-124,10,10,-214,0.345106152,-0.338527219,1,0,0,3.5998,submitButton,-0.165050807,-0.390466276,0,0,0,2,53,173,30,1,46,67486,1,180,2022-02-24_18h35.14.805,orientation adjustment 1,2021.2.3,Win32,59.96282305,,,,,,,
,,,,,,,,,,,,,,,,,,,,,,25,73,20,75,69,4,4,-21,0.31625112,-0.29351337,1,0,0,0.0994,submitButton,-0.177746951,-0.404316691,0,0,0,2,54,174,57,1,73,67486,1,180,2022-02-24_18h35.14.805,orientation adjustment 1,2021.2.3,Win32,59.96282305,,,,,,,
,,,,,,,,,,,,,,,,,,,,,,48.88888889,-58,20,75,-41.11111111,16.88888889,16.88888889,-131.1111111,0.346260353,-0.279662955,1,0,0,1.0331,submitButton,-0.162742334,-0.373153257,0,0,0,2,55,175,42,1,58,67486,1,180,2022-02-24_18h35.14.805,orientation adjustment 1,2021.2.3,Win32,59.96282305,,,,,,,
,,,,,,,,,,,,,,,,,,,,,,40.55555556,-71,20,75,-71.44444444,0.444444444,0.444444444,-161.4444444,0.350877158,-0.270429415,1,0,0,0.5666,submitButton,-0.115420082,-0.381232736,0,0,0,2,56,176,55,1,71,67486,1,180,2022-02-24_18h35.14.805,orientation adjustment 1,2021.2.3,Win32,59.96282305,,,,,,,
,,,,,,,,,,,,,,,,,,,,,,47.22222222,-44,20,75,-31.77777778,12.22222222,12.22222222,-121.7777778,0.39819941,-0.325831076,1,0,0,0.7163,submitButton,0.021929798,-0.377770133,0,0,0,2,57,177,28,1,44,67486,1,180,2022-02-24_18h35.14.805,orientation adjustment 1,2021.2.3,Win32,59.96282305,,,,,,,
,,,,,,,,,,,,,,,,,,,,,,-33.33333333,-32,20,75,-30.33333333,1.666666667,1.666666667,-120.3333333,0.154662943,-0.316597395,1,0,0,0.2818,submitButton,-0.105032271,-0.39392888,0,0,0,2,58,178,16,1,32,67486,1,180,2022-02-24_18h35.14.805,orientation adjustment 1,2021.2.3,Win32,59.96282305,,,,,,,
,,,,,,,,,,,,,,,,,,,,,,-70,28,20,75,35,7,7,-55,0.154662943,-0.315443264,1,0,0,1.2831,submitButton,-0.151200392,-0.389312075,0,0,0,2,59,179,12,1,28,67486,1,180,2022-02-24_18h35.14.805,orientation adjustment 1,2021.2.3,Win32,59.96282305,,,,,,,
,,,,,,,,,,,,,,,,,,,,,,,,,,,,,,,,,,,,,,,,,,,,,,,,67486,1,180,2022-02-24_18h35.14.805,orientation adjustment 1,2021.2.3,Win32,59.96282305,,0.327793133,-0.404316691,1,0,0,EndButtonTxt
