consentMouse1.x,consentMouse1.y,consentMouse1.leftButton,consentMouse1.midButton,consentMouse1.rightButton,consentMouse1.clicked_name,consent_Mouse.x,consent_Mouse.y,consent_Mouse.leftButton,consent_Mouse.midButton,consent_Mouse.rightButton,consent_Mouse.clicked_name,startMouse.x,startMouse.y,startMouse.leftButton,startMouse.midButton,startMouse.rightButton,startMouse_2.x,startMouse_2.y,startMouse_2.leftButton,startMouse_2.midButton,startMouse_2.rightButton,start_distance,fixedOri,minimalDistance,maxOri,this_ori,accuracy,presented_accuracy,presented_this_ori,submitMouse.x,submitMouse.y,submitMouse.leftButton,submitMouse.midButton,submitMouse.rightButton,submitMouse.time,submitMouse.clicked_name,pauseMouse.x,pauseMouse.y,pauseMouse.leftButton,pauseMouse.midButton,pauseMouse.rightButton,trials.thisRepN,trials.thisTrialN,trials.thisN,trials.thisIndex,trials.ran,startOri,participant,condition,nTrials,date,expName,psychopyVersion,OS,frameRate,pauseMouse.clicked_name,EndButtonMouse.x,EndButtonMouse.y,EndButtonMouse.leftButton,EndButtonMouse.midButton,EndButtonMouse.rightButton,EndButtonMouse.clicked_name
0.312037008,-0.396296331,1,0,0,consent_button1,0.364814785,-0.39444448,1,0,0,consent_button,0.601851816,-0.098148134,1,0,0,0.468518486,-0.051851839,1,0,0,28.88888889,-42,20,75,-27.11111111,14.88888889,14.88888889,-117.1111111,0.37499997,-0.311111148,1,0,0,1.3458,submitButton,0.137962938,-0.285185223,0,0,0,0,0,0,26,1,42,67759,1,180,2022-02-24_18h31.33.548,orientation adjustment 1,2021.2.3,Win32,60.13590715,,,,,,,
,,,,,,,,,,,,,,,,,,,,,,30,-62,20,75,-43,19,19,-133,0.375925896,-0.306481462,1,0,0,0.9498,submitButton,-0.216666683,-0.407407442,0,0,0,0,1,1,46,1,62,67759,1,180,2022-02-24_18h31.33.548,orientation adjustment 1,2021.2.3,Win32,60.13590715,,,,,,,
,,,,,,,,,,,,,,,,,,,,,,68.33333333,-72,20,75,-58.66666667,13.33333333,13.33333333,-148.6666667,0.39537034,-0.306481462,1,0,0,0.3662,submitButton,0.29351849,-0.326851889,0,0,0,0,2,2,56,1,72,67759,1,180,2022-02-24_18h31.33.548,orientation adjustment 1,2021.2.3,Win32,60.13590715,,,,,,,
,,,,,,,,,,,,,,,,,,,,,,61.11111111,-40,20,75,-33.88888889,6.111111111,6.111111111,-123.8888889,0.391666636,-0.293518556,1,0,0,1.0154,submitButton,0.289814787,-0.359259239,0,0,0,0,3,3,24,1,40,67759,1,180,2022-02-24_18h31.33.548,orientation adjustment 1,2021.2.3,Win32,60.13590715,,,,,,,
,,,,,,,,,,,,,,,,,,,,,,35.55555556,-45,20,75,-45.44444444,0.444444444,0.444444444,-135.4444444,0.418518487,-0.330555592,1,0,0,0.4496,submitButton,0.191666641,-0.293518556,0,0,0,0,4,4,29,1,45,67759,1,180,2022-02-24_18h31.33.548,orientation adjustment 1,2021.2.3,Win32,60.13590715,,,,,,,
,,,,,,,,,,,,,,,,,,,,,,-23.88888889,-37,20,75,-37.88888889,0.888888889,0.888888889,-127.8888889,-0.256481497,-0.396296331,1,0,0,1.5828,submitButton,-0.176851869,-0.40648146,0,0,0,0,5,5,21,1,37,67759,1,180,2022-02-24_18h31.33.548,orientation adjustment 1,2021.2.3,Win32,60.13590715,,,,,,,
,,,,,,,,,,,,,,,,,,,,,,21.66666667,17,20,75,26.66666667,9.666666667,9.666666667,-63.33333333,0.368518489,-0.306481462,1,0,0,0.6162,submitButton,-0.042592556,-0.362037016,0,0,0,0,6,6,1,1,17,67759,1,180,2022-02-24_18h31.33.548,orientation adjustment 1,2021.2.3,Win32,60.13590715,,,,,,,
,,,,,,,,,,,,,,,,,,,,,,41.66666667,-29,20,75,-30.33333333,1.333333333,1.333333333,-120.3333333,0.450925894,-0.279629668,1,0,0,0.2008,submitButton,-0.201851868,-0.403703682,0,0,0,0,7,7,13,1,29,67759,1,180,2022-02-24_18h31.33.548,orientation adjustment 1,2021.2.3,Win32,60.13590715,,,,,,,
,,,,,,,,,,,,,,,,,,,,,,67.22222222,-74,20,75,-59.77777778,14.22222222,14.22222222,-149.7777778,0.389814784,-0.298148129,1,0,0,0.3328,submitButton,0.255555528,-0.308333371,0,0,0,0,8,8,58,1,74,67759,1,180,2022-02-24_18h31.33.548,orientation adjustment 1,2021.2.3,Win32,60.13590715,,,,,,,
,,,,,,,,,,,,,,,,,,,,,,-57.22222222,-59,20,75,-245.2222222,6.222222222,6.222222222,-335.2222222,-0.137962981,-0.39444448,1,0,0,2.7325,submitButton,0.328703675,-0.351851888,0,0,0,0,9,9,43,1,59,67759,1,180,2022-02-24_18h31.33.548,orientation adjustment 1,2021.2.3,Win32,60.13590715,,,,,,,
,,,,,,,,,,,,,,,,,,,,,,47.77777778,-63,20,75,-59.22222222,3.777777778,3.777777778,-149.2222222,0.413888858,-0.282407445,1,0,0,1.1833,submitButton,0.227777751,-0.311111148,0,0,0,0,10,10,47,1,63,67759,1,180,2022-02-24_18h31.33.548,orientation adjustment 1,2021.2.3,Win32,60.13590715,,,,,,,
,,,,,,,,,,,,,,,,,,,,,,-45.55555556,41,20,75,42.44444444,1.444444444,1.444444444,-47.55555556,0.255555528,-0.294444482,1,0,0,0.1169,submitButton,-0.216666683,-0.392592571,0,0,0,0,11,11,25,1,41,67759,1,180,2022-02-24_18h31.33.548,orientation adjustment 1,2021.2.3,Win32,60.13590715,,,,,,,
,,,,,,,,,,,,,,,,,,,,,,74.44444444,-26,20,75,-14.55555556,11.44444444,11.44444444,-104.5555556,-0.155555517,-0.385185221,1,0,0,1.7329,submitButton,-0.155555517,-0.385185221,0,0,0,0,12,12,10,1,26,67759,1,180,2022-02-24_18h31.33.548,orientation adjustment 1,2021.2.3,Win32,60.13590715,,,,,,,
,,,,,,,,,,,,,,,,,,,,,,65,33,20,75,199,14,14,109,0.177777752,-0.306481462,1,0,0,0.5326,submitButton,-0.152777739,-0.392592571,0,0,0,0,13,13,17,1,33,67759,1,180,2022-02-24_18h31.33.548,orientation adjustment 1,2021.2.3,Win32,60.13590715,,,,,,,
,,,,,,,,,,,,,,,,,,,,,,-44.44444444,-32,20,75,-28.44444444,3.555555556,3.555555556,-118.4444444,0.208333307,-0.29722226,1,0,0,0.2163,submitButton,0.280555528,-0.390740776,1,0,0,0,14,14,16,1,32,67759,1,180,2022-02-24_18h31.33.548,orientation adjustment 1,2021.2.3,Win32,60.13590715,pause_continueButton,,,,,,
,,,,,,,,,,,,,,,,,,,,,,73.88888889,-51,20,75,-40.11111111,10.88888889,10.88888889,-130.1111111,0.376851822,-0.29722226,1,0,0,0.0167,submitButton,-0.129629648,-0.419444479,0,0,0,0,15,15,35,1,51,67759,1,180,2022-02-24_18h31.33.548,orientation adjustment 1,2021.2.3,Win32,60.13590715,,,,,,,
,,,,,,,,,,,,,,,,,,,,,,27.22222222,-38,20,75,-29.77777778,8.222222222,8.222222222,-119.7777778,0.367592563,-0.30925924,1,0,0,0.1332,submitButton,0.2009259,-0.262963001,0,0,0,0,16,16,22,1,38,67759,1,180,2022-02-24_18h31.33.548,orientation adjustment 1,2021.2.3,Win32,60.13590715,,,,,,,
,,,,,,,,,,,,,,,,,,,,,,34.44444444,30,20,75,28.44444444,1.555555556,1.555555556,-61.55555556,0.361111081,-0.296296334,1,0,0,0.0166,submitButton,0.176851826,-0.339814795,0,0,0,0,17,17,14,1,30,67759,1,180,2022-02-24_18h31.33.548,orientation adjustment 1,2021.2.3,Win32,60.13590715,,,,,,,
,,,,,,,,,,,,,,,,,,,,,,-60,25,20,75,32,7,7,-58,0.2009259,-0.288888927,1,0,0,1.233,submitButton,-0.008333298,-0.336111148,0,0,0,0,18,18,9,1,25,67759,1,180,2022-02-24_18h31.33.548,orientation adjustment 1,2021.2.3,Win32,60.13590715,,,,,,,
,,,,,,,,,,,,,,,,,,,,,,-47.77777778,-46,20,75,-52.77777778,6.777777778,6.777777778,-142.7777778,0.37037034,-0.300000037,1,0,0,0.4326,submitButton,0.046296331,-0.325000037,0,0,0,0,19,19,30,1,46,67759,1,180,2022-02-24_18h31.33.548,orientation adjustment 1,2021.2.3,Win32,60.13590715,,,,,,,
,,,,,,,,,,,,,,,,,,,,,,41.66666667,-68,20,75,-58.33333333,9.666666667,9.666666667,-148.3333333,0.399074043,-0.266666705,1,0,0,0.5501,submitButton,0.084259236,-0.346296333,0,0,0,0,20,20,52,1,68,67759,1,180,2022-02-24_18h31.33.548,orientation adjustment 1,2021.2.3,Win32,60.13590715,,,,,,,
,,,,,,,,,,,,,,,,,,,,,,55.55555556,-54,20,75,-61.44444444,7.444444444,7.444444444,-151.4444444,0.401851821,-0.312037018,1,0,0,0.7162,submitButton,0.058333367,-0.299074112,0,0,0,0,21,21,38,1,54,67759,1,180,2022-02-24_18h31.33.548,orientation adjustment 1,2021.2.3,Win32,60.13590715,,,,,,,
,,,,,,,,,,,,,,,,,,,,,,-50,39,20,75,55,16,16,-35,0.16018516,-0.275000038,1,0,0,1.1502,submitButton,0.162962938,-0.347222259,0,0,0,0,22,22,23,1,39,67759,1,180,2022-02-24_18h31.33.548,orientation adjustment 1,2021.2.3,Win32,60.13590715,,,,,,,
,,,,,,,,,,,,,,,,,,,,,,60,-48,20,75,-40,8,8,-130,0.348148119,-0.311111148,1,0,0,0.6004,submitButton,0.204629604,-0.304629667,0,0,0,0,23,23,32,1,48,67759,1,180,2022-02-24_18h31.33.548,orientation adjustment 1,2021.2.3,Win32,60.13590715,,,,,,,
,,,,,,,,,,,,,,,,,,,,,,-48.88888889,-57,20,75,-226.8888889,10.11111111,10.11111111,-316.8888889,0.382407377,-0.279629668,1,0,0,1.1666,submitButton,0.174999975,-0.27685189,0,0,0,0,24,24,41,1,57,67759,1,180,2022-02-24_18h31.33.548,orientation adjustment 1,2021.2.3,Win32,60.13590715,,,,,,,
,,,,,,,,,,,,,,,,,,,,,,35.55555556,-35,20,75,-45.44444444,10.44444444,10.44444444,-135.4444444,0.399074043,-0.290740778,1,0,0,0.1164,submitButton,0.080555532,-0.295370351,0,0,0,0,25,25,19,1,35,67759,1,180,2022-02-24_18h31.33.548,orientation adjustment 1,2021.2.3,Win32,60.13590715,,,,,,,
,,,,,,,,,,,,,,,,,,,,,,-34.44444444,71,20,75,71.55555556,0.555555556,0.555555556,-18.44444444,0.199074048,-0.300925907,1,0,0,0.0832,submitButton,-0.046296316,-0.365740777,0,0,0,0,26,26,55,1,71,67759,1,180,2022-02-24_18h31.33.548,orientation adjustment 1,2021.2.3,Win32,60.13590715,,,,,,,
,,,,,,,,,,,,,,,,,,,,,,-65,67,20,75,64,3,3,-26,0.232407381,-0.29722226,1,0,0,0.1499,submitButton,0.065740718,-0.315740778,0,0,0,0,27,27,51,1,67,67759,1,180,2022-02-24_18h31.33.548,orientation adjustment 1,2021.2.3,Win32,60.13590715,,,,,,,
,,,,,,,,,,,,,,,,,,,,,,-68.33333333,-19,20,75,-24.33333333,5.333333333,5.333333333,-114.3333333,0.2009259,-0.289814796,1,0,0,0.2662,submitButton,0.074999977,-0.330555592,0,0,0,0,28,28,3,1,19,67759,1,180,2022-02-24_18h31.33.548,orientation adjustment 1,2021.2.3,Win32,60.13590715,,,,,,,
,,,,,,,,,,,,,,,,,,,,,,73.33333333,-73,20,75,-68.66666667,4.333333333,4.333333333,-158.6666667,0.401851821,-0.300925907,1,0,0,0.6663,submitButton,0.391666636,-0.392592571,1,0,0,0,29,29,57,1,73,67759,1,180,2022-02-24_18h31.33.548,orientation adjustment 1,2021.2.3,Win32,60.13590715,pause_continueButton,,,,,,
,,,,,,,,,,,,,,,,,,,,,,73.33333333,69,20,75,250.3333333,1.333333333,1.333333333,160.3333333,-0.112962981,-0.377777813,1,0,0,2.4659,submitButton,0.249074047,-0.271296334,0,0,0,0,30,30,53,1,69,67759,1,180,2022-02-24_18h31.33.548,orientation adjustment 1,2021.2.3,Win32,60.13590715,,,,,,,
,,,,,,,,,,,,,,,,,,,,,,-53.88888889,70,20,75,66.11111111,3.888888889,3.888888889,-23.88888889,0.249074047,-0.271296334,1,0,0,0.2001,submitButton,0.194444419,-0.291666704,0,0,0,0,31,31,54,1,70,67759,1,180,2022-02-24_18h31.33.548,orientation adjustment 1,2021.2.3,Win32,60.13590715,,,,,,,
,,,,,,,,,,,,,,,,,,,,,,42.22222222,-36,20,75,-40.77777778,4.777777778,4.777777778,-130.7777778,0.416666636,-0.27314813,1,0,0,0.1331,submitButton,0.166666642,-0.226851891,0,0,0,0,32,32,20,1,36,67759,1,180,2022-02-24_18h31.33.548,orientation adjustment 1,2021.2.3,Win32,60.13590715,,,,,,,
,,,,,,,,,,,,,,,,,,,,,,-59.44444444,-60,20,75,-232.4444444,7.555555556,7.555555556,-322.4444444,-0.130555517,-0.379629665,1,0,0,2.5993,submitButton,0.384259229,-0.195370354,0,0,0,0,33,33,44,1,60,67759,1,180,2022-02-24_18h31.33.548,orientation adjustment 1,2021.2.3,Win32,60.13590715,,,,,,,
,,,,,,,,,,,,,,,,,,,,,,64.44444444,55,20,75,238.4444444,3.444444444,3.444444444,148.4444444,-0.177777795,-0.376851887,1,0,0,2.5659,submitButton,0.183333308,-0.292592574,0,0,0,0,34,34,39,1,55,67759,1,180,2022-02-24_18h31.33.548,orientation adjustment 1,2021.2.3,Win32,60.13590715,,,,,,,
,,,,,,,,,,,,,,,,,,,,,,-64.44444444,-64,20,75,-50.44444444,13.55555556,13.55555556,-140.4444444,0.183333308,-0.292592574,1,0,0,1.3499,submitButton,0.310185157,-0.286111149,0,0,0,0,35,35,48,1,64,67759,1,180,2022-02-24_18h31.33.548,orientation adjustment 1,2021.2.3,Win32,60.13590715,,,,,,,
,,,,,,,,,,,,,,,,,,,,,,-30,-47,20,75,-40,7,7,-130,0.230555529,-0.275925907,1,0,0,0.0334,submitButton,0.094444421,-0.354629666,0,0,0,0,36,36,31,1,47,67759,1,180,2022-02-24_18h31.33.548,orientation adjustment 1,2021.2.3,Win32,60.13590715,,,,,,,
,,,,,,,,,,,,,,,,,,,,,,-53.33333333,43,20,75,40.66666667,2.333333333,2.333333333,-49.33333333,-0.356481494,-0.398148127,1,0,0,1.5497,submitButton,-0.154629647,-0.329629666,0,0,0,0,37,37,27,1,43,67759,1,180,2022-02-24_18h31.33.548,orientation adjustment 1,2021.2.3,Win32,60.13590715,,,,,,,
,,,,,,,,,,,,,,,,,,,,,,-21.66666667,-34,20,75,-21.66666667,12.33333333,12.33333333,-111.6666667,0.218518492,-0.306481462,1,0,0,0.1329,submitButton,0.004629665,-0.346296333,0,0,0,0,38,38,18,1,34,67759,1,180,2022-02-24_18h31.33.548,orientation adjustment 1,2021.2.3,Win32,60.13590715,,,,,,,
,,,,,,,,,,,,,,,,,,,,,,-75,-52,20,75,-44,8,8,-134,0.183333308,-0.303703685,1,0,0,0.0668,submitButton,-0.128703665,-0.377777813,0,0,0,0,39,39,36,1,52,67759,1,180,2022-02-24_18h31.33.548,orientation adjustment 1,2021.2.3,Win32,60.13590715,,,,,,,
,,,,,,,,,,,,,,,,,,,,,,-23.33333333,-21,20,75,-11.33333333,9.666666667,9.666666667,-101.3333333,0.193518493,-0.292592574,1,0,0,0.0334,submitButton,-0.051851872,-0.320370351,0,0,0,0,40,40,5,1,21,67759,1,180,2022-02-24_18h31.33.548,orientation adjustment 1,2021.2.3,Win32,60.13590715,,,,,,,
,,,,,,,,,,,,,,,,,,,,,,-27.22222222,-27,20,75,-26.22222222,0.777777778,0.777777778,-116.2222222,0.195370345,-0.296296334,1,0,0,0.0334,submitButton,0.113888865,-0.295370351,0,0,0,0,41,41,11,1,27,67759,1,180,2022-02-24_18h31.33.548,orientation adjustment 1,2021.2.3,Win32,60.13590715,,,,,,,
,,,,,,,,,,,,,,,,,,,,,,-67.77777778,53,20,75,62.22222222,9.222222222,9.222222222,-27.77777778,0.212962937,-0.270370352,1,0,0,1.45,submitButton,0.057407441,-0.316666704,0,0,0,0,42,42,37,1,53,67759,1,180,2022-02-24_18h31.33.548,orientation adjustment 1,2021.2.3,Win32,60.13590715,,,,,,,
,,,,,,,,,,,,,,,,,,,,,,-56.11111111,-16,20,75,-28.11111111,12.11111111,12.11111111,-118.1111111,0.178703678,-0.30925924,1,0,0,0.1663,submitButton,-0.273148163,-0.40648146,0,0,0,0,43,43,0,1,16,67759,1,180,2022-02-24_18h31.33.548,orientation adjustment 1,2021.2.3,Win32,60.13590715,,,,,,,
,,,,,,,,,,,,,,,,,,,,,,-29.44444444,66,20,75,57.55555556,8.444444444,8.444444444,-32.44444444,0.19629627,-0.323148129,1,0,0,0.8995,submitButton,0.374074044,-0.402777813,1,0,0,0,44,44,50,1,66,67759,1,180,2022-02-24_18h31.33.548,orientation adjustment 1,2021.2.3,Win32,60.13590715,pause_continueButton,,,,,,
,,,,,,,,,,,,,,,,,,,,,,-40,20,20,75,-51,71,71,-141,0.379629599,-0.298148129,1,0,0,2.7656,submitButton,-0.297222236,-0.408333368,0,0,0,0,45,45,4,1,20,67759,1,180,2022-02-24_18h31.33.548,orientation adjustment 1,2021.2.3,Win32,60.13590715,,,,,,,
,,,,,,,,,,,,,,,,,,,,,,-53.88888889,-44,20,75,-212.8888889,11.11111111,11.11111111,-302.8888889,0.362962933,-0.292592574,1,0,0,0.1167,submitButton,0.239814788,-0.249074113,0,0,0,0,46,46,28,1,44,67759,1,180,2022-02-24_18h31.33.548,orientation adjustment 1,2021.2.3,Win32,60.13590715,,,,,,,
,,,,,,,,,,,,,,,,,,,,,,75,-58,20,75,-49,9,9,-139,0.428703672,-0.299074112,1,0,0,0.0168,submitButton,0.021296331,-0.350925906,0,0,0,0,47,47,42,1,58,67759,1,180,2022-02-24_18h31.33.548,orientation adjustment 1,2021.2.3,Win32,60.13590715,,,,,,,
,,,,,,,,,,,,,,,,,,,,,,-70.55555556,49,20,75,44.44444444,4.555555556,4.555555556,-45.55555556,0.233333307,-0.305555593,1,0,0,0.2829,submitButton,0.195370345,-0.265740779,0,0,0,0,48,48,33,1,49,67759,1,180,2022-02-24_18h31.33.548,orientation adjustment 1,2021.2.3,Win32,60.13590715,,,,,,,
,,,,,,,,,,,,,,,,,,,,,,65.55555556,-24,20,75,148.5555556,7.444444444,7.444444444,58.55555556,0.195370345,-0.265740779,1,0,0,1.5495,submitButton,0.11944442,-0.33333337,0,0,0,0,49,49,8,1,24,67759,1,180,2022-02-24_18h31.33.548,orientation adjustment 1,2021.2.3,Win32,60.13590715,,,,,,,
,,,,,,,,,,,,,,,,,,,,,,-30.55555556,65,20,75,68.44444444,3.444444444,3.444444444,-21.55555556,0.161111086,-0.298148129,1,0,0,0.0835,submitButton,0.202777752,-0.37037035,0,0,0,0,50,50,49,1,65,67759,1,180,2022-02-24_18h31.33.548,orientation adjustment 1,2021.2.3,Win32,60.13590715,,,,,,,
,,,,,,,,,,,,,,,,,,,,,,-25.55555556,28,20,75,41.44444444,13.44444444,13.44444444,-48.55555556,-0.295370385,-0.40555559,1,0,0,1.083,submitButton,0.301851823,-0.320370351,0,0,0,0,51,51,12,1,28,67759,1,180,2022-02-24_18h31.33.548,orientation adjustment 1,2021.2.3,Win32,60.13590715,,,,,,,
,,,,,,,,,,,,,,,,,,,,,,66.66666667,-61,20,75,-56.33333333,4.666666667,4.666666667,-146.3333333,0.446296264,-0.281481463,1,0,0,0.5164,submitButton,0.236111084,-0.275925907,0,0,0,0,52,52,45,1,61,67759,1,180,2022-02-24_18h31.33.548,orientation adjustment 1,2021.2.3,Win32,60.13590715,,,,,,,
,,,,,,,,,,,,,,,,,,,,,,-25.55555556,-18,20,75,-23.55555556,5.555555556,5.555555556,-113.5555556,-0.199074091,-0.398148127,1,0,0,0.8329,submitButton,0.151851827,-0.286111149,0,0,0,0,53,53,2,1,18,67759,1,180,2022-02-24_18h31.33.548,orientation adjustment 1,2021.2.3,Win32,60.13590715,,,,,,,
,,,,,,,,,,,,,,,,,,,,,,-53.88888889,-50,20,75,-30.88888889,19.11111111,19.11111111,-120.8888889,0.179629604,-0.286111149,1,0,0,0.0333,submitButton,0.294444416,-0.311111148,0,0,0,0,54,54,34,1,50,67759,1,180,2022-02-24_18h31.33.548,orientation adjustment 1,2021.2.3,Win32,60.13590715,,,,,,,
,,,,,,,,,,,,,,,,,,,,,,-72.77777778,-31,20,75,-31.77777778,0.777777778,0.777777778,-121.7777778,0.239814788,-0.275000038,1,0,0,0.4832,submitButton,0.214814789,-0.296296334,0,0,0,0,55,55,15,1,31,67759,1,180,2022-02-24_18h31.33.548,orientation adjustment 1,2021.2.3,Win32,60.13590715,,,,,,,
,,,,,,,,,,,,,,,,,,,,,,36.66666667,22,20,75,11.66666667,10.33333333,10.33333333,-78.33333333,0.39537034,-0.293518556,1,0,0,0.2663,submitButton,0.057407441,-0.371296332,0,0,0,0,56,56,6,1,22,67759,1,180,2022-02-24_18h31.33.548,orientation adjustment 1,2021.2.3,Win32,60.13590715,,,,,,,
,,,,,,,,,,,,,,,,,,,,,,63.88888889,-23,20,75,-24.11111111,1.111111111,1.111111111,-114.1111111,0.337962934,-0.29722226,1,0,0,0.0339,submitButton,0.070370347,-0.354629666,0,0,0,0,57,57,7,1,23,67759,1,180,2022-02-24_18h31.33.548,orientation adjustment 1,2021.2.3,Win32,60.13590715,,,,,,,
,,,,,,,,,,,,,,,,,,,,,,-28.88888889,75,20,75,73.11111111,1.888888889,1.888888889,-16.88888889,0.212037011,-0.325925906,1,0,0,0.4998,submitButton,0.161111086,-0.334259239,0,0,0,0,58,58,59,1,75,67759,1,180,2022-02-24_18h31.33.548,orientation adjustment 1,2021.2.3,Win32,60.13590715,,,,,,,
,,,,,,,,,,,,,,,,,,,,,,60,-56,20,75,-60,4,4,-150,0.358333304,-0.294444482,1,0,0,0.6499,submitButton,0.182407382,-0.409259238,1,0,0,0,59,59,40,1,56,67759,1,180,2022-02-24_18h31.33.548,orientation adjustment 1,2021.2.3,Win32,60.13590715,pause_continueButton,,,,,,
,,,,,,,,,,,,,,,,,,,,,,30.55555556,-25,20,75,-35.44444444,10.44444444,10.44444444,-125.4444444,0.385185155,-0.294444482,1,0,0,0.1166,submitButton,0.143518494,-0.23611115,0,0,0,1,0,60,9,1,25,67759,1,180,2022-02-24_18h31.33.548,orientation adjustment 1,2021.2.3,Win32,60.13590715,,,,,,,
,,,,,,,,,,,,,,,,,,,,,,-52.22222222,56,20,75,53.77777778,2.222222222,2.222222222,-36.22222222,0.19629627,-0.282407445,1,0,0,1.3317,submitButton,0.060185163,-0.313888926,0,0,0,1,1,61,40,1,56,67759,1,180,2022-02-24_18h31.33.548,orientation adjustment 1,2021.2.3,Win32,60.13590715,,,,,,,
,,,,,,,,,,,,,,,,,,,,,,-75,18,20,75,33,15,15,-57,-0.185185202,-0.400925904,1,0,0,2.0161,submitButton,0.175925901,-0.330555592,0,0,0,1,2,62,2,1,18,67759,1,180,2022-02-24_18h31.33.548,orientation adjustment 1,2021.2.3,Win32,60.13590715,,,,,,,
,,,,,,,,,,,,,,,,,,,,,,22.77777778,37,20,75,32.77777778,4.222222222,4.222222222,-57.22222222,0.391666636,-0.298148129,1,0,0,0.2664,submitButton,-0.010185206,-0.397222257,0,0,0,1,3,63,21,1,37,67759,1,180,2022-02-24_18h31.33.548,orientation adjustment 1,2021.2.3,Win32,60.13590715,,,,,,,
,,,,,,,,,,,,,,,,,,,,,,-24.44444444,70,20,75,67.55555556,2.444444444,2.444444444,-22.44444444,-0.226851868,-0.422222257,1,0,0,1.149,submitButton,0.100925902,-0.363888925,0,0,0,1,4,64,54,1,70,67759,1,180,2022-02-24_18h31.33.548,orientation adjustment 1,2021.2.3,Win32,60.13590715,,,,,,,
,,,,,,,,,,,,,,,,,,,,,,48.88888889,31,20,75,45.88888889,14.88888889,14.88888889,-44.11111111,-0.191666683,-0.395370349,1,0,0,1.1164,submitButton,0.122222198,-0.367592572,0,0,0,1,5,65,15,1,31,67759,1,180,2022-02-24_18h31.33.548,orientation adjustment 1,2021.2.3,Win32,60.13590715,,,,,,,
,,,,,,,,,,,,,,,,,,,,,,-33.33333333,-24,20,75,-23.33333333,0.666666667,0.666666667,-113.3333333,0.206481455,-0.27685189,1,0,0,0.5832,submitButton,0.190740715,-0.299074112,0,0,0,1,6,66,8,1,24,67759,1,180,2022-02-24_18h31.33.548,orientation adjustment 1,2021.2.3,Win32,60.13590715,,,,,,,
,,,,,,,,,,,,,,,,,,,,,,41.11111111,69,20,75,246.1111111,2.888888889,2.888888889,156.1111111,-0.350925939,-0.436111145,1,0,0,3.2491,submitButton,0.117592569,-0.387037016,0,0,0,1,7,67,53,1,69,67759,1,180,2022-02-24_18h31.33.548,orientation adjustment 1,2021.2.3,Win32,60.13590715,,,,,,,
,,,,,,,,,,,,,,,,,,,,,,-57.22222222,62,20,75,59.77777778,2.222222222,2.222222222,-30.22222222,0.237962936,-0.285185223,1,0,0,0.198,submitButton,-0.284259274,-0.387037016,0,0,0,1,8,68,46,1,62,67759,1,180,2022-02-24_18h31.33.548,orientation adjustment 1,2021.2.3,Win32,60.13590715,,,,,,,
,,,,,,,,,,,,,,,,,,,,,,-26.11111111,32,20,75,42.88888889,10.88888889,10.88888889,-47.11111111,0.195370345,-0.312037018,1,0,0,0.0167,submitButton,-0.30092594,-0.385185221,0,0,0,1,9,69,16,1,32,67759,1,180,2022-02-24_18h31.33.548,orientation adjustment 1,2021.2.3,Win32,60.13590715,,,,,,,
,,,,,,,,,,,,,,,,,,,,,,32.22222222,-50,20,75,-53.77777778,3.777777778,3.777777778,-143.7777778,-0.132407425,-0.38148146,1,0,0,1.4459,submitButton,0.03055559,-0.329629666,0,0,0,1,10,70,34,1,50,67759,1,180,2022-02-24_18h31.33.548,orientation adjustment 1,2021.2.3,Win32,60.13590715,,,,,,,
,,,,,,,,,,,,,,,,,,,,,,56.66666667,-66,20,75,-56.33333333,9.666666667,9.666666667,-146.3333333,0.402777747,-0.289814796,1,0,0,0.0169,submitButton,0.137962938,-0.314814795,0,0,0,1,11,71,50,1,66,67759,1,180,2022-02-24_18h31.33.548,orientation adjustment 1,2021.2.3,Win32,60.13590715,,,,,,,
,,,,,,,,,,,,,,,,,,,,,,62.77777778,38,20,75,126.7777778,88.77777778,88.77777778,36.77777778,0.201851826,-0.301851889,1,0,0,0.9165,submitButton,0.197222196,-0.371296332,0,0,0,1,12,72,22,1,38,67759,1,180,2022-02-24_18h31.33.548,orientation adjustment 1,2021.2.3,Win32,60.13590715,,,,,,,
,,,,,,,,,,,,,,,,,,,,,,55.55555556,47,20,75,57.55555556,10.55555556,10.55555556,-32.44444444,0.408333302,-0.327777815,1,0,0,0.1463,submitButton,0.284259231,-0.312037018,0,0,0,1,13,73,31,1,47,67759,1,180,2022-02-24_18h31.33.548,orientation adjustment 1,2021.2.3,Win32,60.13590715,,,,,,,
,,,,,,,,,,,,,,,,,,,,,,-73.88888889,55,20,75,59.11111111,4.111111111,4.111111111,-30.88888889,0.233333307,-0.283333371,1,0,0,0.3667,submitButton,0.514814781,-0.40555559,1,0,0,1,14,74,39,1,55,67759,1,180,2022-02-24_18h31.33.548,orientation adjustment 1,2021.2.3,Win32,60.13590715,pause_continueButton,,,,,,
,,,,,,,,,,,,,,,,,,,,,,-47.22222222,-16,20,75,-28.22222222,12.22222222,12.22222222,-118.2222222,0.23703701,-0.323148129,1,0,0,0.1295,submitButton,0.10833331,-0.353703683,0,0,0,1,15,75,0,1,16,67759,1,180,2022-02-24_18h31.33.548,orientation adjustment 1,2021.2.3,Win32,60.13590715,,,,,,,
,,,,,,,,,,,,,,,,,,,,,,-22.22222222,51,20,75,53.77777778,2.777777778,2.777777778,-36.22222222,0.158333308,-0.325925906,1,0,0,0.4328,submitButton,0.104629606,-0.362037016,0,0,0,1,16,76,35,1,51,67759,1,180,2022-02-24_18h31.33.548,orientation adjustment 1,2021.2.3,Win32,60.13590715,,,,,,,
,,,,,,,,,,,,,,,,,,,,,,-68.33333333,-42,20,75,-207.3333333,14.66666667,14.66666667,-297.3333333,0.405555525,-0.322222259,1,0,0,1.9127,submitButton,-0.177777795,-0.40555559,0,0,0,1,17,77,26,1,42,67759,1,180,2022-02-24_18h31.33.548,orientation adjustment 1,2021.2.3,Win32,60.13590715,,,,,,,
,,,,,,,,,,,,,,,,,,,,,,62.22222222,30,20,75,38.22222222,8.222222222,8.222222222,-51.77777778,0.410185154,-0.312037018,1,0,0,0.4628,submitButton,-0.050925889,-0.408333368,0,0,0,1,18,78,14,1,30,67759,1,180,2022-02-24_18h31.33.548,orientation adjustment 1,2021.2.3,Win32,60.13590715,,,,,,,
,,,,,,,,,,,,,,,,,,,,,,-33.88888889,-34,20,75,-129.8888889,84.11111111,84.11111111,-219.8888889,0.366666637,-0.322222259,1,0,0,0.6958,submitButton,0.300925898,-0.213888928,0,0,0,1,19,79,18,1,34,67759,1,180,2022-02-24_18h31.33.548,orientation adjustment 1,2021.2.3,Win32,60.13590715,,,,,,,
,,,,,,,,,,,,,,,,,,,,,,-46.66666667,-35,20,75,-34.66666667,0.333333333,0.333333333,-124.6666667,0.210185159,-0.296296334,1,0,0,0.113,submitButton,0.057407441,-0.330555592,0,0,0,1,20,80,19,1,35,67759,1,180,2022-02-24_18h31.33.548,orientation adjustment 1,2021.2.3,Win32,60.13590715,,,,,,,
,,,,,,,,,,,,,,,,,,,,,,61.11111111,-49,20,75,-40.88888889,8.111111111,8.111111111,-130.8888889,0.412037006,-0.292592574,1,0,0,0.1784,submitButton,-0.05462965,-0.356481461,0,0,0,1,21,81,33,1,49,67759,1,180,2022-02-24_18h31.33.548,orientation adjustment 1,2021.2.3,Win32,60.13590715,,,,,,,
,,,,,,,,,,,,,,,,,,,,,,-30,28,20,75,39,11,11,-51,0.210185159,-0.318518556,1,0,0,0.1632,submitButton,-0.242592608,-0.386111146,0,0,0,1,22,82,12,1,28,67759,1,180,2022-02-24_18h31.33.548,orientation adjustment 1,2021.2.3,Win32,60.13590715,,,,,,,
,,,,,,,,,,,,,,,,,,,,,,-53.33333333,-59,20,75,-51.33333333,7.666666667,7.666666667,-141.3333333,0.19629627,-0.307407445,1,0,0,0.3131,submitButton,0.409259228,-0.226851891,0,0,0,1,23,83,43,1,59,67759,1,180,2022-02-24_18h31.33.548,orientation adjustment 1,2021.2.3,Win32,60.13590715,,,,,,,
,,,,,,,,,,,,,,,,,,,,,,-68.88888889,67,20,75,58.11111111,8.888888889,8.888888889,-31.88888889,0.213888863,-0.289814796,1,0,0,1.0996,submitButton,-0.008333298,-0.312037018,0,0,0,1,24,84,51,1,67,67759,1,180,2022-02-24_18h31.33.548,orientation adjustment 1,2021.2.3,Win32,60.13590715,,,,,,,
,,,,,,,,,,,,,,,,,,,,,,72.22222222,19,20,75,40.22222222,21.22222222,21.22222222,-49.77777778,0.397222192,-0.294444482,1,0,0,0.167,submitButton,-0.121296315,-0.375000036,0,0,0,1,25,85,3,1,19,67759,1,180,2022-02-24_18h31.33.548,orientation adjustment 1,2021.2.3,Win32,60.13590715,,,,,,,
,,,,,,,,,,,,,,,,,,,,,,-40,72,20,75,60,12,12,-30,0.22129627,-0.284259241,1,0,0,0.2996,submitButton,0.022222257,-0.323148129,0,0,0,1,26,86,56,1,72,67759,1,180,2022-02-24_18h31.33.548,orientation adjustment 1,2021.2.3,Win32,60.13590715,,,,,,,
,,,,,,,,,,,,,,,,,,,,,,31.11111111,27,20,75,25.11111111,1.888888889,1.888888889,-64.88888889,0.360185155,-0.265740779,1,0,0,0.1963,submitButton,0.023148126,-0.362962999,0,0,0,1,27,87,11,1,27,67759,1,180,2022-02-24_18h31.33.548,orientation adjustment 1,2021.2.3,Win32,60.13590715,,,,,,,
,,,,,,,,,,,,,,,,,,,,,,-48.88888889,46,20,75,42.11111111,3.888888889,3.888888889,-47.88888889,0.21666664,-0.300925907,1,0,0,0.1295,submitButton,-0.248148163,-0.418518553,0,0,0,1,28,88,30,1,46,67759,1,180,2022-02-24_18h31.33.548,orientation adjustment 1,2021.2.3,Win32,60.13590715,,,,,,,
,,,,,,,,,,,,,,,,,,,,,,66.66666667,65,20,75,248.6666667,3.666666667,3.666666667,158.6666667,0.199999974,-0.303703685,1,0,0,0.263,submitButton,0.533333299,-0.404629665,1,0,0,1,29,89,49,1,65,67759,1,180,2022-02-24_18h31.33.548,orientation adjustment 1,2021.2.3,Win32,60.13590715,pause_continueButton,,,,,,
,,,,,,,,,,,,,,,,,,,,,,-20.55555556,43,20,75,44.44444444,1.444444444,1.444444444,-45.55555556,0.218518492,-0.300000037,1,0,0,0.1337,submitButton,0.051851886,-0.379629665,0,0,0,1,30,90,27,1,43,67759,1,180,2022-02-24_18h31.33.548,orientation adjustment 1,2021.2.3,Win32,60.13590715,,,,,,,
,,,,,,,,,,,,,,,,,,,,,,-63.33333333,-26,20,75,-33.33333333,7.333333333,7.333333333,-123.3333333,-0.140740759,-0.400925904,1,0,0,1.3626,submitButton,0.208333307,-0.320370351,0,0,0,1,31,91,10,1,26,67759,1,180,2022-02-24_18h31.33.548,orientation adjustment 1,2021.2.3,Win32,60.13590715,,,,,,,
,,,,,,,,,,,,,,,,,,,,,,-43.33333333,-74,20,75,-248.3333333,5.666666667,5.666666667,-338.3333333,-0.174999961,-0.409259238,1,0,0,2.9956,submitButton,0.098148125,-0.327777815,0,0,0,1,32,92,58,1,74,67759,1,180,2022-02-24_18h31.33.548,orientation adjustment 1,2021.2.3,Win32,60.13590715,,,,,,,
,,,,,,,,,,,,,,,,,,,,,,47.22222222,-45,20,75,-43.77777778,1.222222222,1.222222222,-133.7777778,0.391666636,-0.315740778,1,0,0,0.0836,submitButton,0.060185163,-0.285185223,0,0,0,1,33,93,29,1,45,67759,1,180,2022-02-24_18h31.33.548,orientation adjustment 1,2021.2.3,Win32,60.13590715,,,,,,,
,,,,,,,,,,,,,,,,,,,,,,-46.11111111,-75,20,75,-64.11111111,10.88888889,10.88888889,-154.1111111,-0.354629642,-0.402777813,1,0,0,1.8624,submitButton,0.01018522,-0.418518553,0,0,0,1,34,94,59,1,75,67759,1,180,2022-02-24_18h31.33.548,orientation adjustment 1,2021.2.3,Win32,60.13590715,,,,,,,
,,,,,,,,,,,,,,,,,,,,,,45,-53,20,75,-58,5,5,-148,0.343518489,-0.310185222,1,0,0,0.8994,submitButton,0.172222197,-0.315740778,0,0,0,1,35,95,37,1,53,67759,1,180,2022-02-24_18h31.33.548,orientation adjustment 1,2021.2.3,Win32,60.13590715,,,,,,,
,,,,,,,,,,,,,,,,,,,,,,60.55555556,-22,20,75,-42.44444444,20.44444444,20.44444444,-132.4444444,0.43148145,-0.250925908,1,0,0,1.4959,submitButton,0.201851826,-0.304629667,0,0,0,1,36,96,6,1,22,67759,1,180,2022-02-24_18h31.33.548,orientation adjustment 1,2021.2.3,Win32,60.13590715,,,,,,,
,,,,,,,,,,,,,,,,,,,,,,56.66666667,-64,20,75,-65.33333333,1.333333333,1.333333333,-155.3333333,-0.161111072,-0.400925904,1,0,0,1.7625,submitButton,-0.028703668,-0.387962998,0,0,0,1,37,97,48,1,64,67759,1,180,2022-02-24_18h31.33.548,orientation adjustment 1,2021.2.3,Win32,60.13590715,,,,,,,
,,,,,,,,,,,,,,,,,,,,,,-30,68,20,75,70,2,2,-20,-0.188888906,-0.413888924,1,0,0,1.2996,submitButton,-0.019444409,-0.387962998,0,0,0,1,38,98,52,1,68,67759,1,180,2022-02-24_18h31.33.548,orientation adjustment 1,2021.2.3,Win32,60.13590715,,,,,,,
,,,,,,,,,,,,,,,,,,,,,,-42.22222222,58,20,75,60.77777778,2.777777778,2.777777778,-29.22222222,-0.182407424,-0.399074109,1,0,0,1.4623,submitButton,-0.044444408,-0.359259239,0,0,0,1,39,99,42,1,58,67759,1,180,2022-02-24_18h31.33.548,orientation adjustment 1,2021.2.3,Win32,60.13590715,,,,,,,
,,,,,,,,,,,,,,,,,,,,,,26.66666667,48,20,75,47.66666667,0.333333333,0.333333333,-42.33333333,0.372222192,-0.277777816,1,0,0,0.0831,submitButton,0.102777754,-0.337962999,0,0,0,1,40,100,32,1,48,67759,1,180,2022-02-24_18h31.33.548,orientation adjustment 1,2021.2.3,Win32,60.13590715,,,,,,,
,,,,,,,,,,,,,,,,,,,,,,-62.22222222,-39,20,75,-38.22222222,0.777777778,0.777777778,-128.2222222,-0.124999962,-0.38148146,1,0,0,1.4791,submitButton,0.072222199,-0.313888926,0,0,0,1,41,101,23,1,39,67759,1,180,2022-02-24_18h31.33.548,orientation adjustment 1,2021.2.3,Win32,60.13590715,,,,,,,
,,,,,,,,,,,,,,,,,,,,,,60,-54,20,75,-54,0,0,-144,-0.106481444,-0.387962998,1,0,0,1.6331,submitButton,0.127777754,-0.341666703,0,0,0,1,42,102,38,1,54,67759,1,180,2022-02-24_18h31.33.548,orientation adjustment 1,2021.2.3,Win32,60.13590715,,,,,,,
,,,,,,,,,,,,,,,,,,,,,,-66.11111111,61,20,75,59.88888889,1.111111111,1.111111111,-30.11111111,-0.195370387,-0.400925904,1,0,0,1.3296,submitButton,0.156481457,-0.337962999,0,0,0,1,43,103,45,1,61,67759,1,180,2022-02-24_18h31.33.548,orientation adjustment 1,2021.2.3,Win32,60.13590715,,,,,,,
,,,,,,,,,,,,,,,,,,,,,,69.44444444,-29,20,75,-35.55555556,6.555555556,6.555555556,-125.5555556,-0.225000016,-0.40648146,1,0,0,2.2954,submitButton,0.587037115,-0.420370348,1,0,0,1,44,104,13,1,29,67759,1,180,2022-02-24_18h31.33.548,orientation adjustment 1,2021.2.3,Win32,60.13590715,pause_continueButton,,,,,,
,,,,,,,,,,,,,,,,,,,,,,-51.11111111,23,20,75,38.88888889,15.88888889,15.88888889,-51.11111111,-0.112962981,-0.398148127,1,0,0,1.6456,submitButton,0.188888863,-0.378703683,0,0,0,1,45,105,7,1,23,67759,1,180,2022-02-24_18h31.33.548,orientation adjustment 1,2021.2.3,Win32,60.13590715,,,,,,,
,,,,,,,,,,,,,,,,,,,,,,67.22222222,-60,20,75,-60.77777778,0.777777778,0.777777778,-150.7777778,-0.135185203,-0.388888924,1,0,0,1.896,submitButton,0.136111087,-0.312037018,0,0,0,1,46,106,44,1,60,67759,1,180,2022-02-24_18h31.33.548,orientation adjustment 1,2021.2.3,Win32,60.13590715,,,,,,,
,,,,,,,,,,,,,,,,,,,,,,62.77777778,-63,20,75,-54.22222222,8.777777778,8.777777778,-144.2222222,0.337037008,-0.27222226,1,0,0,0.0796,submitButton,0.309259231,-0.259259241,0,0,0,1,47,107,47,1,63,67759,1,180,2022-02-24_18h31.33.548,orientation adjustment 1,2021.2.3,Win32,60.13590715,,,,,,,
,,,,,,,,,,,,,,,,,,,,,,73.33333333,-20,20,75,148.3333333,11.66666667,11.66666667,58.33333333,0.191666641,-0.270370352,1,0,0,1.696,submitButton,-0.164814776,-0.413888924,0,0,0,1,48,108,4,1,20,67759,1,180,2022-02-24_18h31.33.548,orientation adjustment 1,2021.2.3,Win32,60.13590715,,,,,,,
,,,,,,,,,,,,,,,,,,,,,,-40.55555556,21,20,75,34.44444444,13.44444444,13.44444444,-55.55555556,-0.279629644,-0.382407443,1,0,0,1.5624,submitButton,-0.279629644,-0.382407443,0,0,0,1,49,109,5,1,21,67759,1,180,2022-02-24_18h31.33.548,orientation adjustment 1,2021.2.3,Win32,60.13590715,,,,,,,
,,,,,,,,,,,,,,,,,,,,,,40.55555556,33,20,75,30.55555556,2.444444444,2.444444444,-59.44444444,0.37499997,-0.281481463,1,0,0,0.4666,submitButton,-0.175925886,-0.40555559,0,0,0,1,50,110,17,1,33,67759,1,180,2022-02-24_18h31.33.548,orientation adjustment 1,2021.2.3,Win32,60.13590715,,,,,,,
,,,,,,,,,,,,,,,,,,,,,,-56.11111111,17,20,75,32.88888889,15.88888889,15.88888889,-57.11111111,-0.185185202,-0.384259238,1,0,0,1.6292,submitButton,-0.185185202,-0.384259238,0,0,0,1,51,111,1,1,17,67759,1,180,2022-02-24_18h31.33.548,orientation adjustment 1,2021.2.3,Win32,60.13590715,,,,,,,
,,,,,,,,,,,,,,,,,,,,,,-40,-52,20,75,-50,2,2,-140,0.217592566,-0.29722226,1,0,0,0.7002,submitButton,0.076851829,-0.287963001,0,0,0,1,52,112,36,1,52,67759,1,180,2022-02-24_18h31.33.548,orientation adjustment 1,2021.2.3,Win32,60.13590715,,,,,,,
,,,,,,,,,,,,,,,,,,,,,,-50.55555556,57,20,75,60.44444444,3.444444444,3.444444444,-29.55555556,-0.209259275,-0.403703682,1,0,0,1.3125,submitButton,-0.209259275,-0.403703682,0,0,0,1,53,113,41,1,57,67759,1,180,2022-02-24_18h31.33.548,orientation adjustment 1,2021.2.3,Win32,60.13590715,,,,,,,
,,,,,,,,,,,,,,,,,,,,,,-66.66666667,73,20,75,63.33333333,9.666666667,9.666666667,-26.66666667,-0.211111127,-0.416666701,1,0,0,1.3629,submitButton,-0.211111127,-0.416666701,0,0,0,1,54,114,57,1,73,67759,1,180,2022-02-24_18h31.33.548,orientation adjustment 1,2021.2.3,Win32,60.13590715,,,,,,,
,,,,,,,,,,,,,,,,,,,,,,57.77777778,40,20,75,230.7777778,10.77777778,10.77777778,140.7777778,0.19629627,-0.284259241,1,0,0,2.1793,submitButton,-0.24444446,-0.375925905,0,0,0,1,55,115,24,1,40,67759,1,180,2022-02-24_18h31.33.548,orientation adjustment 1,2021.2.3,Win32,60.13590715,,,,,,,
,,,,,,,,,,,,,,,,,,,,,,66.66666667,44,20,75,48.66666667,4.666666667,4.666666667,-41.33333333,0.422222191,-0.283333371,1,0,0,0.3128,submitButton,0.05555559,-0.256481463,0,0,0,1,56,116,28,1,44,67759,1,180,2022-02-24_18h31.33.548,orientation adjustment 1,2021.2.3,Win32,60.13590715,,,,,,,
,,,,,,,,,,,,,,,,,,,,,,30,36,20,75,37,1,1,-53,-0.146296314,-0.407407442,1,0,0,1.1164,submitButton,-0.146296314,-0.407407442,0,0,0,1,57,117,20,1,36,67759,1,180,2022-02-24_18h31.33.548,orientation adjustment 1,2021.2.3,Win32,60.13590715,,,,,,,
,,,,,,,,,,,,,,,,,,,,,,-63.88888889,-71,20,75,-57.88888889,13.11111111,13.11111111,-147.8888889,-0.28055557,-0.447222256,1,0,0,1.2628,submitButton,-0.052777741,-0.375000036,0,0,0,1,58,118,55,1,71,67759,1,180,2022-02-24_18h31.33.548,orientation adjustment 1,2021.2.3,Win32,60.13590715,,,,,,,
,,,,,,,,,,,,,,,,,,,,,,-51.11111111,41,20,75,34.88888889,6.111111111,6.111111111,-55.11111111,0.192592567,-0.302777815,1,0,0,0.3461,submitButton,0.546296262,-0.415740775,1,0,0,1,59,119,25,1,41,67759,1,180,2022-02-24_18h31.33.548,orientation adjustment 1,2021.2.3,Win32,60.13590715,pause_continueButton,,,,,,
,,,,,,,,,,,,,,,,,,,,,,56.11111111,24,20,75,39.11111111,15.11111111,15.11111111,-50.88888889,0.45185182,-0.325000037,1,0,0,0.113,submitButton,0.074999977,-0.34907411,0,0,0,2,0,120,8,1,24,67759,1,180,2022-02-24_18h31.33.548,orientation adjustment 1,2021.2.3,Win32,60.13590715,,,,,,,
,,,,,,,,,,,,,,,,,,,,,,-69.44444444,-73,20,75,-60.44444444,12.55555556,12.55555556,-150.4444444,-0.237037053,-0.408333368,1,0,0,1.7295,submitButton,0.086111088,-0.346296333,0,0,0,2,1,121,57,1,73,67759,1,180,2022-02-24_18h31.33.548,orientation adjustment 1,2021.2.3,Win32,60.13590715,,,,,,,
,,,,,,,,,,,,,,,,,,,,,,22.22222222,-71,20,75,-68.77777778,2.222222222,2.222222222,-158.7777778,0.39537034,-0.299074112,1,0,0,0.113,submitButton,-0.008333298,-0.287037018,0,0,0,2,2,122,55,1,71,67759,1,180,2022-02-24_18h31.33.548,orientation adjustment 1,2021.2.3,Win32,60.13590715,,,,,,,
,,,,,,,,,,,,,,,,,,,,,,-67.77777778,61,20,75,57.22222222,3.777777778,3.777777778,-32.77777778,-0.206481498,-0.383333369,1,0,0,1.3462,submitButton,0.12407405,-0.195370354,0,0,0,2,3,123,45,1,61,67759,1,180,2022-02-24_18h31.33.548,orientation adjustment 1,2021.2.3,Win32,60.13590715,,,,,,,
,,,,,,,,,,,,,,,,,,,,,,-28.33333333,26,20,75,29.66666667,3.666666667,3.666666667,-60.33333333,0.192592567,-0.282407445,1,0,0,0.9294,submitButton,0.184259234,-0.187037021,0,0,0,2,4,124,10,1,26,67759,1,180,2022-02-24_18h31.33.548,orientation adjustment 1,2021.2.3,Win32,60.13590715,,,,,,,
,,,,,,,,,,,,,,,,,,,,,,-21.66666667,42,20,75,37.33333333,4.666666667,4.666666667,-52.66666667,-0.201851868,-0.387962998,1,0,0,0.9168,submitButton,-0.038888853,-0.275925907,0,0,0,2,5,125,26,1,42,67759,1,180,2022-02-24_18h31.33.548,orientation adjustment 1,2021.2.3,Win32,60.13590715,,,,,,,
,,,,,,,,,,,,,,,,,,,,,,26.11111111,32,20,75,36.11111111,4.111111111,4.111111111,-53.88888889,-0.184259276,-0.40648146,1,0,0,0.9667,submitButton,-0.15925922,-0.379629665,0,0,0,2,6,126,16,1,32,67759,1,180,2022-02-24_18h31.33.548,orientation adjustment 1,2021.2.3,Win32,60.13590715,,,,,,,
,,,,,,,,,,,,,,,,,,,,,,-26.66666667,-56,20,75,-48.66666667,7.333333333,7.333333333,-138.6666667,-0.258333348,-0.412037015,1,0,0,0.996,submitButton,0.199999974,-0.301851889,0,0,0,2,7,127,40,1,56,67759,1,180,2022-02-24_18h31.33.548,orientation adjustment 1,2021.2.3,Win32,60.13590715,,,,,,,
,,,,,,,,,,,,,,,,,,,,,,-38.88888889,-54,20,75,-46.88888889,7.111111111,7.111111111,-136.8888889,-0.112036999,-0.389814794,1,0,0,1.2626,submitButton,0.127777754,-0.298148129,0,0,0,2,8,128,38,1,54,67759,1,180,2022-02-24_18h31.33.548,orientation adjustment 1,2021.2.3,Win32,60.13590715,,,,,,,
,,,,,,,,,,,,,,,,,,,,,,-42.22222222,33,20,75,28.77777778,4.222222222,4.222222222,-61.22222222,-0.306481495,-0.39444448,1,0,0,1.3795,submitButton,0.133333309,-0.300925907,0,0,0,2,9,129,17,1,33,67759,1,180,2022-02-24_18h31.33.548,orientation adjustment 1,2021.2.3,Win32,60.13590715,,,,,,,
,,,,,,,,,,,,,,,,,,,,,,25.55555556,-20,20,75,-28.44444444,8.444444444,8.444444444,-118.4444444,-0.18333335,-0.38148146,1,0,0,1.0961,submitButton,-0.18333335,-0.38148146,1,0,0,2,10,130,4,1,20,67759,1,180,2022-02-24_18h31.33.548,orientation adjustment 1,2021.2.3,Win32,60.13590715,,,,,,,
,,,,,,,,,,,,,,,,,,,,,,-43.33333333,57,20,75,52.66666667,4.333333333,4.333333333,-37.33333333,0.240740714,-0.307407445,1,0,0,0.2962,submitButton,-0.118518537,-0.38148146,0,0,0,2,11,131,41,1,57,67759,1,180,2022-02-24_18h31.33.548,orientation adjustment 1,2021.2.3,Win32,60.13590715,,,,,,,
,,,,,,,,,,,,,,,,,,,,,,62.77777778,43,20,75,216.7777778,6.222222222,6.222222222,126.7777778,0.234259232,-0.287037018,1,0,0,1.7129,submitButton,0.039814793,-0.253703686,0,0,0,2,12,132,27,1,43,67759,1,180,2022-02-24_18h31.33.548,orientation adjustment 1,2021.2.3,Win32,60.13590715,,,,,,,
,,,,,,,,,,,,,,,,,,,,,,-27.77777778,-34,20,75,-36.77777778,2.777777778,2.777777778,-126.7777778,-0.167592553,-0.375000036,1,0,0,0.8001,submitButton,-0.160185203,-0.365740777,0,0,0,2,13,133,18,1,34,67759,1,180,2022-02-24_18h31.33.548,orientation adjustment 1,2021.2.3,Win32,60.13590715,,,,,,,
,,,,,,,,,,,,,,,,,,,,,,-55.55555556,58,20,75,51.44444444,6.555555556,6.555555556,-38.55555556,-0.323148162,-0.415740775,1,0,0,0.9296,submitButton,0.562962928,-0.415740775,1,0,0,2,14,134,42,1,58,67759,1,180,2022-02-24_18h31.33.548,orientation adjustment 1,2021.2.3,Win32,60.13590715,pause_continueButton,,,,,,
,,,,,,,,,,,,,,,,,,,,,,51.11111111,-65,20,75,-48.88888889,16.11111111,16.11111111,-138.8888889,-0.113888851,-0.392592571,1,0,0,1.2619,submitButton,0.276851824,-0.27314813,0,0,0,2,15,135,49,1,65,67759,1,180,2022-02-24_18h31.33.548,orientation adjustment 1,2021.2.3,Win32,60.13590715,,,,,,,
,,,,,,,,,,,,,,,,,,,,,,-67.22222222,75,20,75,60.77777778,14.22222222,14.22222222,-29.22222222,0.174999975,-0.300925907,1,0,0,0.4293,submitButton,0.099999976,-0.326851889,0,0,0,2,16,136,59,1,75,67759,1,180,2022-02-24_18h31.33.548,orientation adjustment 1,2021.2.3,Win32,60.13590715,,,,,,,
,,,,,,,,,,,,,,,,,,,,,,63.33333333,74,20,75,63.33333333,10.66666667,10.66666667,-26.66666667,0.425925895,-0.302777815,1,0,0,0.0504,submitButton,0.122222198,-0.292592574,0,0,0,2,17,137,58,1,74,67759,1,180,2022-02-24_18h31.33.548,orientation adjustment 1,2021.2.3,Win32,60.13590715,,,,,,,
,,,,,,,,,,,,,,,,,,,,,,75,-66,20,75,120,6,6,30,0.176851826,-0.265740779,1,0,0,0.4998,submitButton,0.044444479,-0.270370352,0,0,0,2,18,138,50,1,66,67759,1,180,2022-02-24_18h31.33.548,orientation adjustment 1,2021.2.3,Win32,60.13590715,,,,,,,
,,,,,,,,,,,,,,,,,,,,,,38.88888889,-72,20,75,-62.11111111,9.888888889,9.888888889,-152.1111111,-0.275000015,-0.415740775,1,0,0,1.1296,submitButton,0.032407442,-0.304629667,0,0,0,2,19,139,56,1,72,67759,1,180,2022-02-24_18h31.33.548,orientation adjustment 1,2021.2.3,Win32,60.13590715,,,,,,,
,,,,,,,,,,,,,,,,,,,,,,28.88888889,-31,20,75,-32.11111111,1.111111111,1.111111111,-122.1111111,-0.324074088,-0.426851886,1,0,0,1.1795,submitButton,-0.072222185,-0.292592574,0,0,0,2,20,140,15,1,31,67759,1,180,2022-02-24_18h31.33.548,orientation adjustment 1,2021.2.3,Win32,60.13590715,,,,,,,
,,,,,,,,,,,,,,,,,,,,,,-30.55555556,-63,20,75,-56.55555556,6.444444444,6.444444444,-146.5555556,0.210185159,-0.296296334,1,0,0,0.0501,submitButton,-0.100925888,-0.262037019,0,0,0,2,21,141,47,1,63,67759,1,180,2022-02-24_18h31.33.548,orientation adjustment 1,2021.2.3,Win32,60.13590715,,,,,,,
,,,,,,,,,,,,,,,,,,,,,,-35,21,20,75,32,11,11,-58,-0.238888904,-0.378703683,1,0,0,1.0125,submitButton,0.06296294,-0.282407445,0,0,0,2,22,142,5,1,21,67759,1,180,2022-02-24_18h31.33.548,orientation adjustment 1,2021.2.3,Win32,60.13590715,,,,,,,
,,,,,,,,,,,,,,,,,,,,,,-53.33333333,-29,20,75,-22.33333333,6.666666667,6.666666667,-112.3333333,0.208333307,-0.287037018,1,0,0,0.7629,submitButton,-0.031481445,-0.264814797,0,0,0,2,23,143,13,1,29,67759,1,180,2022-02-24_18h31.33.548,orientation adjustment 1,2021.2.3,Win32,60.13590715,,,,,,,
,,,,,,,,,,,,,,,,,,,,,,62.77777778,-46,20,75,-41.22222222,4.777777778,4.777777778,-131.2222222,0.406481451,-0.293518556,1,0,0,0.0828,submitButton,-0.015740762,-0.263888927,0,0,0,2,24,144,30,1,46,67759,1,180,2022-02-24_18h31.33.548,orientation adjustment 1,2021.2.3,Win32,60.13590715,,,,,,,
,,,,,,,,,,,,,,,,,,,,,,59.44444444,44,20,75,225.4444444,1.444444444,1.444444444,135.4444444,-0.198148165,-0.390740776,1,0,0,2.3793,submitButton,0.037962997,-0.260185224,0,0,0,2,25,145,28,1,44,67759,1,180,2022-02-24_18h31.33.548,orientation adjustment 1,2021.2.3,Win32,60.13590715,,,,,,,
,,,,,,,,,,,,,,,,,,,,,,-40,-70,20,75,-61,9,9,-151,-0.221296312,-0.414814793,1,0,0,1.1295,submitButton,0.000925905,-0.275925907,0,0,0,2,26,146,54,1,70,67759,1,180,2022-02-24_18h31.33.548,orientation adjustment 1,2021.2.3,Win32,60.13590715,,,,,,,
,,,,,,,,,,,,,,,,,,,,,,-62.77777778,17,20,75,27.22222222,10.22222222,10.22222222,-62.77777778,0.218518492,-0.294444482,1,0,0,1.1126,submitButton,0.182407382,-0.382407443,0,0,0,2,27,147,1,1,17,67759,1,180,2022-02-24_18h31.33.548,orientation adjustment 1,2021.2.3,Win32,60.13590715,,,,,,,
,,,,,,,,,,,,,,,,,,,,,,-28.88888889,52,20,75,62.11111111,10.11111111,10.11111111,-27.88888889,-0.222222238,-0.404629665,1,0,0,0.7629,submitButton,0.094444421,-0.283333371,0,0,0,2,28,148,36,1,52,67759,1,180,2022-02-24_18h31.33.548,orientation adjustment 1,2021.2.3,Win32,60.13590715,,,,,,,
,,,,,,,,,,,,,,,,,,,,,,20,-27,20,75,-32,5,5,-122,0.368518489,-0.292592574,1,0,0,0.1138,submitButton,0.575000078,-0.40555559,1,0,0,2,29,149,11,1,27,67759,1,180,2022-02-24_18h31.33.548,orientation adjustment 1,2021.2.3,Win32,60.13590715,pause_continueButton,,,,,,
,,,,,,,,,,,,,,,,,,,,,,20,53,20,75,46,7,7,-44,-0.287037051,-0.419444479,1,0,0,1.2459,submitButton,0.019444479,-0.352777814,0,0,0,2,30,150,37,1,53,67759,1,180,2022-02-24_18h31.33.548,orientation adjustment 1,2021.2.3,Win32,60.13590715,,,,,,,
,,,,,,,,,,,,,,,,,,,,,,-31.66666667,40,20,75,41.33333333,1.333333333,1.333333333,-48.66666667,-0.169444405,-0.40648146,1,0,0,0.8798,submitButton,0.070370347,-0.282407445,0,0,0,2,31,151,24,1,40,67759,1,180,2022-02-24_18h31.33.548,orientation adjustment 1,2021.2.3,Win32,60.13590715,,,,,,,
,,,,,,,,,,,,,,,,,,,,,,21.11111111,22,20,75,21.11111111,0.888888889,0.888888889,-68.88888889,-0.136111073,-0.401851887,1,0,0,0.9127,submitButton,0.12407405,-0.363888925,0,0,0,2,32,152,6,1,22,67759,1,180,2022-02-24_18h31.33.548,orientation adjustment 1,2021.2.3,Win32,60.13590715,,,,,,,
,,,,,,,,,,,,,,,,,,,,,,-21.11111111,-35,20,75,-25.11111111,9.888888889,9.888888889,-115.1111111,0.274999972,-0.318518556,1,0,0,0.0167,submitButton,0.077777755,-0.312037018,0,0,0,2,33,153,19,1,35,67759,1,180,2022-02-24_18h31.33.548,orientation adjustment 1,2021.2.3,Win32,60.13590715,,,,,,,
,,,,,,,,,,,,,,,,,,,,,,-36.66666667,-41,20,75,-29.66666667,11.33333333,11.33333333,-119.6666667,-0.152777739,-0.416666701,1,0,0,1.1629,submitButton,-0.152777739,-0.416666701,0,0,0,2,34,154,25,1,41,67759,1,180,2022-02-24_18h31.33.548,orientation adjustment 1,2021.2.3,Win32,60.13590715,,,,,,,
,,,,,,,,,,,,,,,,,,,,,,-65,-49,20,75,-41,8,8,-131,0.222222196,-0.289814796,1,0,0,1.3294,submitButton,-0.132407425,-0.408333368,0,0,0,2,35,155,33,1,49,67759,1,180,2022-02-24_18h31.33.548,orientation adjustment 1,2021.2.3,Win32,60.13590715,,,,,,,
,,,,,,,,,,,,,,,,,,,,,,-66.11111111,68,20,75,59.88888889,8.111111111,8.111111111,-30.11111111,-0.198148165,-0.392592571,1,0,0,1.5959,submitButton,-0.198148165,-0.392592571,0,0,0,2,36,156,52,1,68,67759,1,180,2022-02-24_18h31.33.548,orientation adjustment 1,2021.2.3,Win32,60.13590715,,,,,,,
,,,,,,,,,,,,,,,,,,,,,,71.66666667,-59,20,75,-52.33333333,6.666666667,6.666666667,-142.3333333,-0.201851868,-0.379629665,1,0,0,1.6456,submitButton,-0.201851868,-0.379629665,0,0,0,2,37,157,43,1,59,67759,1,180,2022-02-24_18h31.33.548,orientation adjustment 1,2021.2.3,Win32,60.13590715,,,,,,,
,,,,,,,,,,,,,,,,,,,,,,-37.77777778,28,20,75,47.22222222,19.22222222,19.22222222,-42.77777778,0.151851827,-0.307407445,1,0,0,0.0166,submitButton,-0.094444407,-0.348148128,0,0,0,2,38,158,12,1,28,67759,1,180,2022-02-24_18h31.33.548,orientation adjustment 1,2021.2.3,Win32,60.13590715,,,,,,,
,,,,,,,,,,,,,,,,,,,,,,45.55555556,39,20,75,49.55555556,10.55555556,10.55555556,-40.44444444,0.321296267,-0.298148129,1,0,0,0.1334,submitButton,-0.125925888,-0.403703682,0,0,0,2,39,159,23,1,39,67759,1,180,2022-02-24_18h31.33.548,orientation adjustment 1,2021.2.3,Win32,60.13590715,,,,,,,
,,,,,,,,,,,,,,,,,,,,,,67.77777778,51,20,75,235.7777778,4.777777778,4.777777778,145.7777778,0.220370344,-0.325925906,1,0,0,2.08,submitButton,0.034259237,-0.312963,0,0,0,2,40,160,35,1,51,67759,1,180,2022-02-24_18h31.33.548,orientation adjustment 1,2021.2.3,Win32,60.13590715,,,,,,,
,,,,,,,,,,,,,,,,,,,,,,-20,-19,20,75,-16,3,3,-106,-0.20833335,-0.36944448,1,0,0,0.5794,submitButton,0.012962998,-0.340740777,0,0,0,2,41,161,3,1,19,67759,1,180,2022-02-24_18h31.33.548,orientation adjustment 1,2021.2.3,Win32,60.13590715,,,,,,,
,,,,,,,,,,,,,,,,,,,,,,-44.44444444,-48,20,75,-32.44444444,15.55555556,15.55555556,-122.4444444,-0.161111072,-0.403703682,1,0,0,1.3626,submitButton,0.122222198,-0.379629665,0,0,0,2,42,162,32,1,48,67759,1,180,2022-02-24_18h31.33.548,orientation adjustment 1,2021.2.3,Win32,60.13590715,,,,,,,
,,,,,,,,,,,,,,,,,,,,,,73.88888889,18,20,75,24.88888889,6.888888889,6.888888889,-65.11111111,0.437962931,-0.300000037,1,0,0,0.1462,submitButton,-0.130555517,-0.382407443,0,0,0,2,43,163,2,1,18,67759,1,180,2022-02-24_18h31.33.548,orientation adjustment 1,2021.2.3,Win32,60.13590715,,,,,,,
,,,,,,,,,,,,,,,,,,,,,,58.33333333,45,20,75,39.33333333,5.666666667,5.666666667,-50.66666667,0.391666636,-0.302777815,1,0,0,0.1002,submitButton,0.581481559,-0.401851887,1,0,0,2,44,164,29,1,45,67759,1,180,2022-02-24_18h31.33.548,orientation adjustment 1,2021.2.3,Win32,60.13590715,pause_continueButton,,,,,,
,,,,,,,,,,,,,,,,,,,,,,28.33333333,37,20,75,37.33333333,0.333333333,0.333333333,-52.66666667,-0.111111073,-0.409259238,1,0,0,1.013,submitButton,-0.012962984,-0.386111146,0,0,0,2,45,165,21,1,37,67759,1,180,2022-02-24_18h31.33.548,orientation adjustment 1,2021.2.3,Win32,60.13590715,,,,,,,
,,,,,,,,,,,,,,,,,,,,,,-58.88888889,-30,20,75,-26.88888889,3.111111111,3.111111111,-116.8888889,-0.142592554,-0.425000034,1,0,0,1.5626,submitButton,-0.142592554,-0.425000034,0,0,0,2,46,166,14,1,30,67759,1,180,2022-02-24_18h31.33.548,orientation adjustment 1,2021.2.3,Win32,60.13590715,,,,,,,
,,,,,,,,,,,,,,,,,,,,,,-20,50,20,75,52,2,2,-38,-0.152777739,-0.400000035,1,0,0,0.6129,submitButton,-0.074999963,-0.38148146,0,0,0,2,47,167,34,1,50,67759,1,180,2022-02-24_18h31.33.548,orientation adjustment 1,2021.2.3,Win32,60.13590715,,,,,,,
,,,,,,,,,,,,,,,,,,,,,,-33.88888889,64,20,75,67.11111111,3.111111111,3.111111111,-22.88888889,-0.166666627,-0.38148146,1,0,0,0.7128,submitButton,-0.166666627,-0.38148146,0,0,0,2,48,168,48,1,64,67759,1,180,2022-02-24_18h31.33.548,orientation adjustment 1,2021.2.3,Win32,60.13590715,,,,,,,
,,,,,,,,,,,,,,,,,,,,,,74.44444444,38,20,75,229.4444444,11.44444444,11.44444444,139.4444444,-0.165740758,-0.390740776,1,0,0,2.2291,submitButton,0.048148126,-0.346296333,0,0,0,2,49,169,22,1,38,67759,1,180,2022-02-24_18h31.33.548,orientation adjustment 1,2021.2.3,Win32,60.13590715,,,,,,,
,,,,,,,,,,,,,,,,,,,,,,46.11111111,36,20,75,36.11111111,0.111111111,0.111111111,-53.88888889,-0.185185202,-0.388888924,1,0,0,1.1958,submitButton,0.068518496,-0.328703684,0,0,0,2,50,170,20,1,36,67759,1,180,2022-02-24_18h31.33.548,orientation adjustment 1,2021.2.3,Win32,60.13590715,,,,,,,
,,,,,,,,,,,,,,,,,,,,,,-30.55555556,67,20,75,73.44444444,6.444444444,6.444444444,-16.55555556,-0.278703718,-0.386111146,1,0,0,2.5456,submitButton,0.037962997,-0.323148129,0,0,0,2,51,171,51,1,67,67759,1,180,2022-02-24_18h31.33.548,orientation adjustment 1,2021.2.3,Win32,60.13590715,,,,,,,
,,,,,,,,,,,,,,,,,,,,,,-27.22222222,25,20,75,35.77777778,10.77777778,10.77777778,-54.22222222,-0.267592607,-0.387037016,1,0,0,0.8289,submitButton,-0.109259221,-0.337037017,0,0,0,2,52,172,9,1,25,67759,1,180,2022-02-24_18h31.33.548,orientation adjustment 1,2021.2.3,Win32,60.13590715,,,,,,,
,,,,,,,,,,,,,,,,,,,,,,48.33333333,47,20,75,40.33333333,6.666666667,6.666666667,-49.66666667,0.360185155,-0.302777815,1,0,0,0.0834,submitButton,-0.270370385,-0.404629665,0,0,0,2,53,173,31,1,47,67759,1,180,2022-02-24_18h31.33.548,orientation adjustment 1,2021.2.3,Win32,60.13590715,,,,,,,
,,,,,,,,,,,,,,,,,,,,,,72.77777778,-16,20,75,-26.22222222,10.22222222,10.22222222,-116.2222222,-0.250000015,-0.412037015,1,0,0,2.0788,submitButton,0.076851829,-0.350000036,0,0,0,2,54,174,0,1,16,67759,1,180,2022-02-24_18h31.33.548,orientation adjustment 1,2021.2.3,Win32,60.13590715,,,,,,,
,,,,,,,,,,,,,,,,,,,,,,-55,69,20,75,59,10,10,-31,-0.225000016,-0.399074109,1,0,0,0.9801,submitButton,-0.225000016,-0.399074109,0,0,0,2,55,175,53,1,69,67759,1,180,2022-02-24_18h31.33.548,orientation adjustment 1,2021.2.3,Win32,60.13590715,,,,,,,
,,,,,,,,,,,,,,,,,,,,,,60.55555556,-23,20,75,-17.44444444,5.555555556,5.555555556,-107.4444444,0.211111085,-0.275925907,1,0,0,2.029,submitButton,-0.02962965,-0.365740777,0,0,0,2,56,176,7,1,23,67759,1,180,2022-02-24_18h31.33.548,orientation adjustment 1,2021.2.3,Win32,60.13590715,,,,,,,
,,,,,,,,,,,,,,,,,,,,,,-73.33333333,-55,20,75,-232.3333333,2.666666667,2.666666667,-322.3333333,-0.262962978,-0.398148127,1,0,0,2.3294,submitButton,0.110185161,-0.352777814,0,0,0,2,57,177,39,1,55,67759,1,180,2022-02-24_18h31.33.548,orientation adjustment 1,2021.2.3,Win32,60.13590715,,,,,,,
,,,,,,,,,,,,,,,,,,,,,,40.55555556,60,20,75,59.55555556,0.444444444,0.444444444,-30.44444444,-0.12685187,-0.400925904,1,0,0,1.4797,submitButton,-0.12685187,-0.400925904,0,0,0,2,58,178,44,1,60,67759,1,180,2022-02-24_18h31.33.548,orientation adjustment 1,2021.2.3,Win32,60.13590715,,,,,,,
,,,,,,,,,,,,,,,,,,,,,,-74.44444444,62,20,75,54.55555556,7.444444444,7.444444444,-35.44444444,-0.192592609,-0.389814794,1,0,0,1.4295,submitButton,-0.188888906,-0.389814794,0,0,0,2,59,179,46,1,62,67759,1,180,2022-02-24_18h31.33.548,orientation adjustment 1,2021.2.3,Win32,60.13590715,,,,,,,
,,,,,,,,,,,,,,,,,,,,,,,,,,,,,,,,,,,,,,,,,,,,,,,,67759,1,180,2022-02-24_18h31.33.548,orientation adjustment 1,2021.2.3,Win32,60.13590715,,0.368518489,-0.416666701,1,0,0,EndButtonTxt
