consentMouse1.x,consentMouse1.y,consentMouse1.leftButton,consentMouse1.midButton,consentMouse1.rightButton,consentMouse1.clicked_name,consent_Mouse.x,consent_Mouse.y,consent_Mouse.leftButton,consent_Mouse.midButton,consent_Mouse.rightButton,consent_Mouse.clicked_name,startMouse.x,startMouse.y,startMouse.leftButton,startMouse.midButton,startMouse.rightButton,startMouse_2.x,startMouse_2.y,startMouse_2.leftButton,startMouse_2.midButton,startMouse_2.rightButton,start_distance,fixedOri,minimalDistance,maxOri,this_ori,accuracy,presented_accuracy,presented_this_ori,submitMouse.x,submitMouse.y,submitMouse.leftButton,submitMouse.midButton,submitMouse.rightButton,submitMouse.time,submitMouse.clicked_name,pauseMouse.x,pauseMouse.y,pauseMouse.leftButton,pauseMouse.midButton,pauseMouse.rightButton,trials.thisRepN,trials.thisTrialN,trials.thisN,trials.thisIndex,trials.ran,startOri,participant,condition,nTrials,date,expName,psychopyVersion,OS,frameRate,pauseMouse.clicked_name,EndButtonMouse.x,EndButtonMouse.y,EndButtonMouse.leftButton,EndButtonMouse.midButton,EndButtonMouse.rightButton,EndButtonMouse.clicked_name
0.299074074,-0.402777778,1,0,0,consent_button1,0.383333333,-0.401851852,1,0,0,consent_button,-0.028703704,-0.225925926,1,0,0,-0.013888889,-0.366666667,1,0,0,-71.66666667,38,20,75,-33.66666667,71.66666667,71.66666667,-123.6666667,-0.494444444,-0.400925926,1,0,0,8.752,submitButton,-0.491666667,-0.394444444,0,0,0,0,0,0,22,1,38,68875,1,180,2022-02-10_12h16.01.004,orientation adjustment 1,2021.2.3,Win32,60.04563468,,,,,,,
,,,,,,,,,,,,,,,,,,,,,,-52.22222222,71,20,75,18.77777778,52.22222222,52.22222222,-71.22222222,-0.483333333,-0.387037037,1,0,0,2.5019,submitButton,-0.483333333,-0.387037037,0,0,0,0,1,1,55,1,71,68875,1,180,2022-02-10_12h16.01.004,orientation adjustment 1,2021.2.3,Win32,60.04563468,,,,,,,
,,,,,,,,,,,,,,,,,,,,,,37.77777778,-51,20,75,-13.22222222,37.77777778,37.77777778,-103.2222222,-0.480555556,-0.390740741,1,0,0,1.4742,submitButton,-0.480555556,-0.390740741,0,0,0,0,2,2,35,1,51,68875,1,180,2022-02-10_12h16.01.004,orientation adjustment 1,2021.2.3,Win32,60.04563468,,,,,,,
,,,,,,,,,,,,,,,,,,,,,,50,-61,20,75,-11,50,50,-101,-0.475,-0.386111111,1,0,0,0.7665,submitButton,-0.475,-0.386111111,0,0,0,0,3,3,45,1,61,68875,1,180,2022-02-10_12h16.01.004,orientation adjustment 1,2021.2.3,Win32,60.04563468,,,,,,,
,,,,,,,,,,,,,,,,,,,,,,-52.22222222,-25,20,75,-77.22222222,52.22222222,52.22222222,-167.2222222,-0.475,-0.386111111,1,0,0,0.4668,submitButton,-0.475,-0.386111111,0,0,0,0,4,4,9,1,25,68875,1,180,2022-02-10_12h16.01.004,orientation adjustment 1,2021.2.3,Win32,60.04563468,,,,,,,
,,,,,,,,,,,,,,,,,,,,,,-73.33333333,74,20,75,0.666666667,73.33333333,73.33333333,-89.33333333,-0.475,-0.386111111,1,0,0,0.2495,submitButton,-0.473148148,-0.383333333,0,0,0,0,5,5,58,1,74,68875,1,180,2022-02-10_12h16.01.004,orientation adjustment 1,2021.2.3,Win32,60.04563468,,,,,,,
,,,,,,,,,,,,,,,,,,,,,,22.77777778,-68,20,75,-45.22222222,22.77777778,22.77777778,-135.2222222,-0.473148148,-0.383333333,1,0,0,0.8003,submitButton,-0.473148148,-0.383333333,0,0,0,0,6,6,52,1,68,68875,1,180,2022-02-10_12h16.01.004,orientation adjustment 1,2021.2.3,Win32,60.04563468,,,,,,,
,,,,,,,,,,,,,,,,,,,,,,-20.55555556,-52,20,75,-72.55555556,20.55555556,20.55555556,-162.5555556,-0.473148148,-0.383333333,1,0,0,0.2159,submitButton,-0.473148148,-0.383333333,0,0,0,0,7,7,36,1,52,68875,1,180,2022-02-10_12h16.01.004,orientation adjustment 1,2021.2.3,Win32,60.04563468,,,,,,,
,,,,,,,,,,,,,,,,,,,,,,-60,-59,20,75,-119,60,60,-209,-0.473148148,-0.383333333,1,0,0,0.4002,submitButton,-0.473148148,-0.383333333,0,0,0,0,8,8,43,1,59,68875,1,180,2022-02-10_12h16.01.004,orientation adjustment 1,2021.2.3,Win32,60.04563468,,,,,,,
,,,,,,,,,,,,,,,,,,,,,,-35,32,20,75,-3,35,35,-93,-0.473148148,-0.383333333,1,0,0,0.6671,submitButton,-0.473148148,-0.383333333,0,0,0,0,9,9,16,1,32,68875,1,180,2022-02-10_12h16.01.004,orientation adjustment 1,2021.2.3,Win32,60.04563468,,,,,,,
,,,,,,,,,,,,,,,,,,,,,,27.22222222,21,20,75,48.22222222,27.22222222,27.22222222,-41.77777778,-0.473148148,-0.383333333,1,0,0,0.3181,submitButton,-0.473148148,-0.383333333,0,0,0,0,10,10,5,1,21,68875,1,180,2022-02-10_12h16.01.004,orientation adjustment 1,2021.2.3,Win32,60.04563468,,,,,,,
,,,,,,,,,,,,,,,,,,,,,,56.11111111,37,20,75,93.11111111,56.11111111,56.11111111,3.111111111,-0.467592593,-0.376851852,1,0,0,1.0503,submitButton,-0.467592593,-0.376851852,0,0,0,0,11,11,21,1,37,68875,1,180,2022-02-10_12h16.01.004,orientation adjustment 1,2021.2.3,Win32,60.04563468,,,,,,,
,,,,,,,,,,,,,,,,,,,,,,-33.33333333,31,20,75,-2.333333333,33.33333333,33.33333333,-92.33333333,-0.466666667,-0.374074074,1,0,0,0.3321,submitButton,-0.47037037,-0.377777778,0,0,0,0,12,12,15,1,31,68875,1,180,2022-02-10_12h16.01.004,orientation adjustment 1,2021.2.3,Win32,60.04563468,,,,,,,
,,,,,,,,,,,,,,,,,,,,,,52.77777778,-35,20,75,17.77777778,52.77777778,52.77777778,-72.22222222,-0.47037037,-0.377777778,1,0,0,0.0417,submitButton,-0.47037037,-0.377777778,0,0,0,0,13,13,19,1,35,68875,1,180,2022-02-10_12h16.01.004,orientation adjustment 1,2021.2.3,Win32,60.04563468,,,,,,,
,,,,,,,,,,,,,,,,,,,,,,-70,-29,20,75,-99,70,70,-189,-0.47037037,-0.377777778,1,0,0,0.7913,submitButton,0.262037037,-0.409259259,1,0,0,0,14,14,13,1,29,68875,1,180,2022-02-10_12h16.01.004,orientation adjustment 1,2021.2.3,Win32,60.04563468,pause_continueButton,,,,,,
,,,,,,,,,,,,,,,,,,,,,,-44.44444444,-56,20,75,-100.4444444,44.44444444,44.44444444,-190.4444444,-0.265740741,-0.315740741,1,0,0,0.391,submitButton,-0.326851852,-0.349074074,0,0,0,0,15,15,40,1,56,68875,1,180,2022-02-10_12h16.01.004,orientation adjustment 1,2021.2.3,Win32,60.04563468,,,,,,,
,,,,,,,,,,,,,,,,,,,,,,42.77777778,-67,20,75,-24.22222222,42.77777778,42.77777778,-114.2222222,-0.430555556,-0.377777778,1,0,0,0.3839,submitButton,-0.425,-0.372222222,0,0,0,0,16,16,51,1,67,68875,1,180,2022-02-10_12h16.01.004,orientation adjustment 1,2021.2.3,Win32,60.04563468,,,,,,,
,,,,,,,,,,,,,,,,,,,,,,66.66666667,-66,20,75,0.666666667,66.66666667,66.66666667,-89.33333333,-0.42037037,-0.369444444,1,0,0,0.5157,submitButton,-0.432407407,-0.347222222,0,0,0,0,17,17,50,1,66,68875,1,180,2022-02-10_12h16.01.004,orientation adjustment 1,2021.2.3,Win32,60.04563468,,,,,,,
,,,,,,,,,,,,,,,,,,,,,,49.44444444,-42,20,75,7.444444444,49.44444444,49.44444444,-82.55555556,-0.426851852,-0.342592593,1,0,0,0.9169,submitButton,-0.422222222,-0.386111111,0,0,0,0,18,18,26,1,42,68875,1,180,2022-02-10_12h16.01.004,orientation adjustment 1,2021.2.3,Win32,60.04563468,,,,,,,
,,,,,,,,,,,,,,,,,,,,,,53.88888889,-36,20,75,17.88888889,53.88888889,53.88888889,-72.11111111,-0.425,-0.387037037,1,0,0,0.6336,submitButton,-0.425,-0.387037037,0,0,0,0,19,19,20,1,36,68875,1,180,2022-02-10_12h16.01.004,orientation adjustment 1,2021.2.3,Win32,60.04563468,,,,,,,
,,,,,,,,,,,,,,,,,,,,,,-44.44444444,-19,20,75,-63.44444444,44.44444444,44.44444444,-153.4444444,-0.424074074,-0.392592593,1,0,0,0.5921,submitButton,-0.424074074,-0.392592593,0,0,0,0,20,20,3,1,19,68875,1,180,2022-02-10_12h16.01.004,orientation adjustment 1,2021.2.3,Win32,60.04563468,,,,,,,
,,,,,,,,,,,,,,,,,,,,,,52.77777778,49,20,75,101.7777778,52.77777778,52.77777778,11.77777778,-0.424074074,-0.392592593,1,0,0,0.3668,submitButton,-0.424074074,-0.392592593,0,0,0,0,21,21,33,1,49,68875,1,180,2022-02-10_12h16.01.004,orientation adjustment 1,2021.2.3,Win32,60.04563468,,,,,,,
,,,,,,,,,,,,,,,,,,,,,,-21.66666667,58,20,75,36.33333333,21.66666667,21.66666667,-53.66666667,-0.424074074,-0.392592593,1,0,0,0.2843,submitButton,-0.424074074,-0.392592593,0,0,0,0,22,22,42,1,58,68875,1,180,2022-02-10_12h16.01.004,orientation adjustment 1,2021.2.3,Win32,60.04563468,,,,,,,
,,,,,,,,,,,,,,,,,,,,,,31.66666667,16,20,75,47.66666667,31.66666667,31.66666667,-42.33333333,-0.424074074,-0.394444444,1,0,0,0.3656,submitButton,-0.424074074,-0.394444444,0,0,0,0,23,23,0,1,16,68875,1,180,2022-02-10_12h16.01.004,orientation adjustment 1,2021.2.3,Win32,60.04563468,,,,,,,
,,,,,,,,,,,,,,,,,,,,,,-48.33333333,47,20,75,-1.333333333,48.33333333,48.33333333,-91.33333333,-0.425925926,-0.399074074,1,0,0,0.3581,submitButton,-0.428703704,-0.403703704,0,0,0,0,24,24,31,1,47,68875,1,180,2022-02-10_12h16.01.004,orientation adjustment 1,2021.2.3,Win32,60.04563468,,,,,,,
,,,,,,,,,,,,,,,,,,,,,,-23.88888889,18,20,75,-5.888888889,23.88888889,23.88888889,-95.88888889,-0.428703704,-0.40462963,1,0,0,0.5661,submitButton,-0.432407407,-0.412037037,0,0,0,0,25,25,2,1,18,68875,1,180,2022-02-10_12h16.01.004,orientation adjustment 1,2021.2.3,Win32,60.04563468,,,,,,,
,,,,,,,,,,,,,,,,,,,,,,-39.44444444,73,20,75,33.55555556,39.44444444,39.44444444,-56.44444444,-0.434259259,-0.42962963,1,0,0,0.267,submitButton,-0.360185185,-0.45,0,0,0,0,26,26,57,1,73,68875,1,180,2022-02-10_12h16.01.004,orientation adjustment 1,2021.2.3,Win32,60.04563468,,,,,,,
,,,,,,,,,,,,,,,,,,,,,,-63.88888889,45,20,75,-18.88888889,63.88888889,63.88888889,-108.8888889,-0.339814815,-0.434259259,1,0,0,0.4187,submitButton,-0.359259259,-0.413888889,0,0,0,0,27,27,29,1,45,68875,1,180,2022-02-10_12h16.01.004,orientation adjustment 1,2021.2.3,Win32,60.04563468,,,,,,,
,,,,,,,,,,,,,,,,,,,,,,-32.77777778,46,20,75,13.22222222,32.77777778,32.77777778,-76.77777778,-0.358333333,-0.422222222,1,0,0,0.3495,submitButton,-0.358333333,-0.428703704,0,0,0,0,28,28,30,1,46,68875,1,180,2022-02-10_12h16.01.004,orientation adjustment 1,2021.2.3,Win32,60.04563468,,,,,,,
,,,,,,,,,,,,,,,,,,,,,,22.22222222,69,20,75,91.22222222,22.22222222,22.22222222,1.222222222,-0.373148148,-0.431481481,1,0,0,0.6347,submitButton,0.369444444,-0.387037037,1,0,0,0,29,29,53,1,69,68875,1,180,2022-02-10_12h16.01.004,orientation adjustment 1,2021.2.3,Win32,60.04563468,pause_continueButton,,,,,,
,,,,,,,,,,,,,,,,,,,,,,46.11111111,-55,20,75,-8.888888889,46.11111111,46.11111111,-98.88888889,-0.533333333,-0.333333333,1,0,0,2.5845,submitButton,-0.509259259,-0.423148148,0,0,0,0,30,30,39,1,55,68875,1,180,2022-02-10_12h16.01.004,orientation adjustment 1,2021.2.3,Win32,60.04563468,,,,,,,
,,,,,,,,,,,,,,,,,,,,,,23.33333333,-75,20,75,-51.66666667,23.33333333,23.33333333,-141.6666667,-0.534259259,-0.407407407,1,0,0,0.4653,submitButton,-0.534259259,-0.407407407,0,0,0,0,31,31,59,1,75,68875,1,180,2022-02-10_12h16.01.004,orientation adjustment 1,2021.2.3,Win32,60.04563468,,,,,,,
,,,,,,,,,,,,,,,,,,,,,,46.11111111,-44,20,75,2.111111111,46.11111111,46.11111111,-87.88888889,-0.535185185,-0.409259259,1,0,0,0.6996,submitButton,-0.534259259,-0.409259259,0,0,0,0,32,32,28,1,44,68875,1,180,2022-02-10_12h16.01.004,orientation adjustment 1,2021.2.3,Win32,60.04563468,,,,,,,
,,,,,,,,,,,,,,,,,,,,,,66.11111111,22,20,75,88.11111111,66.11111111,66.11111111,-1.888888889,-0.533333333,-0.409259259,1,0,0,0.668,submitButton,-0.531481481,-0.409259259,0,0,0,0,33,33,6,1,22,68875,1,180,2022-02-10_12h16.01.004,orientation adjustment 1,2021.2.3,Win32,60.04563468,,,,,,,
,,,,,,,,,,,,,,,,,,,,,,-27.22222222,28,20,75,0.777777778,27.22222222,27.22222222,-89.22222222,-0.531481481,-0.409259259,1,0,0,0.3007,submitButton,-0.532407407,-0.409259259,0,0,0,0,34,34,12,1,28,68875,1,180,2022-02-10_12h16.01.004,orientation adjustment 1,2021.2.3,Win32,60.04563468,,,,,,,
,,,,,,,,,,,,,,,,,,,,,,33.33333333,60,20,75,93.33333333,33.33333333,33.33333333,3.333333333,-0.525925926,-0.40462963,1,0,0,0.3001,submitButton,-0.525925926,-0.40462963,0,0,0,0,35,35,44,1,60,68875,1,180,2022-02-10_12h16.01.004,orientation adjustment 1,2021.2.3,Win32,60.04563468,,,,,,,
,,,,,,,,,,,,,,,,,,,,,,26.66666667,-62,20,75,-35.33333333,26.66666667,26.66666667,-125.3333333,-0.527777778,-0.40462963,1,0,0,0.6832,submitButton,-0.525925926,-0.403703704,0,0,0,0,36,36,46,1,62,68875,1,180,2022-02-10_12h16.01.004,orientation adjustment 1,2021.2.3,Win32,60.04563468,,,,,,,
,,,,,,,,,,,,,,,,,,,,,,-23.33333333,-64,20,75,-87.33333333,23.33333333,23.33333333,-177.3333333,-0.45,-0.412037037,1,0,0,1.066,submitButton,-0.475925926,-0.418518519,0,0,0,0,37,37,48,1,64,68875,1,180,2022-02-10_12h16.01.004,orientation adjustment 1,2021.2.3,Win32,60.04563468,,,,,,,
,,,,,,,,,,,,,,,,,,,,,,44.44444444,63,20,75,107.4444444,44.44444444,44.44444444,17.44444444,-0.505555556,-0.412962963,1,0,0,0.3333,submitButton,-0.50462963,-0.412962963,0,0,0,0,38,38,47,1,63,68875,1,180,2022-02-10_12h16.01.004,orientation adjustment 1,2021.2.3,Win32,60.04563468,,,,,,,
,,,,,,,,,,,,,,,,,,,,,,-31.66666667,-57,20,75,-88.66666667,31.66666667,31.66666667,-178.6666667,-0.525,-0.402777778,1,0,0,0.3325,submitButton,-0.525,-0.402777778,0,0,0,0,39,39,41,1,57,68875,1,180,2022-02-10_12h16.01.004,orientation adjustment 1,2021.2.3,Win32,60.04563468,,,,,,,
,,,,,,,,,,,,,,,,,,,,,,66.66666667,-54,20,75,12.66666667,66.66666667,66.66666667,-77.33333333,-0.527777778,-0.406481481,1,0,0,0.3665,submitButton,-0.527777778,-0.409259259,0,0,0,0,40,40,38,1,54,68875,1,180,2022-02-10_12h16.01.004,orientation adjustment 1,2021.2.3,Win32,60.04563468,,,,,,,
,,,,,,,,,,,,,,,,,,,,,,-61.66666667,-27,20,75,-88.66666667,61.66666667,61.66666667,-178.6666667,-0.530555556,-0.411111111,1,0,0,0.3344,submitButton,-0.531481481,-0.412037037,0,0,0,0,41,41,11,1,27,68875,1,180,2022-02-10_12h16.01.004,orientation adjustment 1,2021.2.3,Win32,60.04563468,,,,,,,
,,,,,,,,,,,,,,,,,,,,,,-71.66666667,70,20,75,-1.666666667,71.66666667,71.66666667,-91.66666667,-0.531481481,-0.412037037,1,0,0,0.4005,submitButton,-0.531481481,-0.412962963,0,0,0,0,42,42,54,1,70,68875,1,180,2022-02-10_12h16.01.004,orientation adjustment 1,2021.2.3,Win32,60.04563468,,,,,,,
,,,,,,,,,,,,,,,,,,,,,,-70.55555556,24,20,75,-46.55555556,70.55555556,70.55555556,-136.5555556,-0.531481481,-0.412037037,1,0,0,0.3495,submitButton,-0.531481481,-0.412037037,0,0,0,0,43,43,8,1,24,68875,1,180,2022-02-10_12h16.01.004,orientation adjustment 1,2021.2.3,Win32,60.04563468,,,,,,,
,,,,,,,,,,,,,,,,,,,,,,-27.22222222,-40,20,75,-67.22222222,27.22222222,27.22222222,-157.2222222,-0.52962963,-0.408333333,1,0,0,0.4843,submitButton,0.384259259,-0.4,1,0,0,0,44,44,24,1,40,68875,1,180,2022-02-10_12h16.01.004,orientation adjustment 1,2021.2.3,Win32,60.04563468,pause_continueButton,,,,,,
,,,,,,,,,,,,,,,,,,,,,,-62.22222222,33,20,75,-29.22222222,62.22222222,62.22222222,-119.2222222,-0.271296296,-0.426851852,1,0,0,0.7733,submitButton,-0.269444444,-0.423148148,0,0,0,0,45,45,17,1,33,68875,1,180,2022-02-10_12h16.01.004,orientation adjustment 1,2021.2.3,Win32,60.04563468,,,,,,,
,,,,,,,,,,,,,,,,,,,,,,36.66666667,30,20,75,66.66666667,36.66666667,36.66666667,-23.33333333,-0.34537037,-0.411111111,1,0,0,0.3767,submitButton,-0.34537037,-0.411111111,0,0,0,0,46,46,14,1,30,68875,1,180,2022-02-10_12h16.01.004,orientation adjustment 1,2021.2.3,Win32,60.04563468,,,,,,,
,,,,,,,,,,,,,,,,,,,,,,42.22222222,41,20,75,83.22222222,42.22222222,42.22222222,-6.777777778,-0.367592593,-0.419444444,1,0,0,0.7999,submitButton,-0.365740741,-0.418518519,0,0,0,0,47,47,25,1,41,68875,1,180,2022-02-10_12h16.01.004,orientation adjustment 1,2021.2.3,Win32,60.04563468,,,,,,,
,,,,,,,,,,,,,,,,,,,,,,-72.22222222,-17,20,75,-89.22222222,72.22222222,72.22222222,-179.2222222,-0.384259259,-0.391666667,1,0,0,0.4824,submitButton,-0.384259259,-0.394444444,0,0,0,0,48,48,1,1,17,68875,1,180,2022-02-10_12h16.01.004,orientation adjustment 1,2021.2.3,Win32,60.04563468,,,,,,,
,,,,,,,,,,,,,,,,,,,,,,-61.11111111,-20,20,75,-81.11111111,61.11111111,61.11111111,-171.1111111,-0.403703704,-0.418518519,1,0,0,0.6829,submitButton,-0.403703704,-0.417592593,0,0,0,0,49,49,4,1,20,68875,1,180,2022-02-10_12h16.01.004,orientation adjustment 1,2021.2.3,Win32,60.04563468,,,,,,,
,,,,,,,,,,,,,,,,,,,,,,-65,-53,20,75,-118,65,65,-208,-0.40462963,-0.417592593,1,0,0,1.8746,submitButton,-0.408333333,-0.428703704,0,0,0,0,50,50,37,1,53,68875,1,180,2022-02-10_12h16.01.004,orientation adjustment 1,2021.2.3,Win32,60.04563468,,,,,,,
,,,,,,,,,,,,,,,,,,,,,,-35,-26,20,75,-61,35,35,-151,-0.405555556,-0.423148148,1,0,0,0.683,submitButton,-0.402777778,-0.423148148,0,0,0,0,51,51,10,1,26,68875,1,180,2022-02-10_12h16.01.004,orientation adjustment 1,2021.2.3,Win32,60.04563468,,,,,,,
,,,,,,,,,,,,,,,,,,,,,,-68.88888889,39,20,75,-29.88888889,68.88888889,68.88888889,-119.8888889,-0.40462963,-0.424074074,1,0,0,0.3663,submitButton,-0.40462963,-0.424074074,0,0,0,0,52,52,23,1,39,68875,1,180,2022-02-10_12h16.01.004,orientation adjustment 1,2021.2.3,Win32,60.04563468,,,,,,,
,,,,,,,,,,,,,,,,,,,,,,71.66666667,-23,20,75,48.66666667,71.66666667,71.66666667,-41.33333333,-0.382407407,-0.411111111,1,0,0,0.8172,submitButton,-0.396296296,-0.42037037,0,0,0,0,53,53,7,1,23,68875,1,180,2022-02-10_12h16.01.004,orientation adjustment 1,2021.2.3,Win32,60.04563468,,,,,,,
,,,,,,,,,,,,,,,,,,,,,,20.55555556,50,20,75,70.55555556,20.55555556,20.55555556,-19.44444444,-0.398148148,-0.421296296,1,0,0,0.3337,submitButton,-0.398148148,-0.421296296,0,0,0,0,54,54,34,1,50,68875,1,180,2022-02-10_12h16.01.004,orientation adjustment 1,2021.2.3,Win32,60.04563468,,,,,,,
,,,,,,,,,,,,,,,,,,,,,,-48.33333333,43,20,75,-5.333333333,48.33333333,48.33333333,-95.33333333,-0.398148148,-0.421296296,1,0,0,0.3335,submitButton,-0.398148148,-0.421296296,0,0,0,0,55,55,27,1,43,68875,1,180,2022-02-10_12h16.01.004,orientation adjustment 1,2021.2.3,Win32,60.04563468,,,,,,,
,,,,,,,,,,,,,,,,,,,,,,60.55555556,-48,20,75,12.55555556,60.55555556,60.55555556,-77.44444444,-0.398148148,-0.421296296,1,0,0,0.2744,submitButton,-0.398148148,-0.42037037,0,0,0,0,56,56,32,1,48,68875,1,180,2022-02-10_12h16.01.004,orientation adjustment 1,2021.2.3,Win32,60.04563468,,,,,,,
,,,,,,,,,,,,,,,,,,,,,,-33.88888889,-72,20,75,-105.8888889,33.88888889,33.88888889,-195.8888889,-0.398148148,-0.42037037,1,0,0,0.3414,submitButton,-0.398148148,-0.42037037,0,0,0,0,57,57,56,1,72,68875,1,180,2022-02-10_12h16.01.004,orientation adjustment 1,2021.2.3,Win32,60.04563468,,,,,,,
,,,,,,,,,,,,,,,,,,,,,,33.33333333,34,20,75,67.33333333,33.33333333,33.33333333,-22.66666667,-0.398148148,-0.42037037,1,0,0,1.0662,submitButton,-0.398148148,-0.42037037,0,0,0,0,58,58,18,1,34,68875,1,180,2022-02-10_12h16.01.004,orientation adjustment 1,2021.2.3,Win32,60.04563468,,,,,,,
,,,,,,,,,,,,,,,,,,,,,,66.66666667,-65,20,75,1.666666667,66.66666667,66.66666667,-88.33333333,-0.403703704,-0.411111111,1,0,0,0.3829,submitButton,0.274074074,-0.4,1,0,0,0,59,59,49,1,65,68875,1,180,2022-02-10_12h16.01.004,orientation adjustment 1,2021.2.3,Win32,60.04563468,pause_continueButton,,,,,,
,,,,,,,,,,,,,,,,,,,,,,62.77777778,-68,20,75,-5.222222222,62.77777778,62.77777778,-95.22222222,-0.389814815,-0.376851852,1,0,0,1.8564,submitButton,-0.334259259,-0.356481481,0,0,0,1,0,60,52,1,68,68875,1,180,2022-02-10_12h16.01.004,orientation adjustment 1,2021.2.3,Win32,60.04563468,,,,,,,
,,,,,,,,,,,,,,,,,,,,,,-51.66666667,-25,20,75,-76.66666667,51.66666667,51.66666667,-166.6666667,-0.331481481,-0.387962963,1,0,0,0.9584,submitButton,-0.075925926,-0.144444444,0,0,0,1,1,61,9,1,25,68875,1,180,2022-02-10_12h16.01.004,orientation adjustment 1,2021.2.3,Win32,60.04563468,,,,,,,
,,,,,,,,,,,,,,,,,,,,,,25.55555556,57,20,75,82.55555556,25.55555556,25.55555556,-7.444444444,-0.421296296,-0.40462963,1,0,0,0.6173,submitButton,0.080555556,-0.294444444,0,0,0,1,2,62,41,1,57,68875,1,180,2022-02-10_12h16.01.004,orientation adjustment 1,2021.2.3,Win32,60.04563468,,,,,,,
,,,,,,,,,,,,,,,,,,,,,,69.44444444,53,20,75,122.4444444,69.44444444,69.44444444,32.44444444,-0.352777778,-0.349074074,1,0,0,0.6868,submitButton,-0.260185185,-0.335185185,0,0,0,1,3,63,37,1,53,68875,1,180,2022-02-10_12h16.01.004,orientation adjustment 1,2021.2.3,Win32,60.04563468,,,,,,,
,,,,,,,,,,,,,,,,,,,,,,38.88888889,27,20,75,65.88888889,38.88888889,38.88888889,-24.11111111,-0.552777778,-0.410185185,1,0,0,0.7753,submitButton,-0.378703704,-0.337962963,0,0,0,1,4,64,11,1,27,68875,1,180,2022-02-10_12h16.01.004,orientation adjustment 1,2021.2.3,Win32,60.04563468,,,,,,,
,,,,,,,,,,,,,,,,,,,,,,72.22222222,-36,20,75,36.22222222,72.22222222,72.22222222,-53.77777778,-0.391666667,-0.399074074,1,0,0,1.0328,submitButton,-0.368518519,-0.396296296,0,0,0,1,5,65,20,1,36,68875,1,180,2022-02-10_12h16.01.004,orientation adjustment 1,2021.2.3,Win32,60.04563468,,,,,,,
,,,,,,,,,,,,,,,,,,,,,,37.77777778,-39,20,75,-1.222222222,37.77777778,37.77777778,-91.22222222,-0.423148148,-0.417592593,1,0,0,0.6095,submitButton,-0.423148148,-0.412962963,0,0,0,1,6,66,23,1,39,68875,1,180,2022-02-10_12h16.01.004,orientation adjustment 1,2021.2.3,Win32,60.04563468,,,,,,,
,,,,,,,,,,,,,,,,,,,,,,-70,49,20,75,-21,70,70,-111,-0.422222222,-0.406481481,1,0,0,0.3001,submitButton,-0.421296296,-0.456481481,0,0,0,1,7,67,33,1,49,68875,1,180,2022-02-10_12h16.01.004,orientation adjustment 1,2021.2.3,Win32,60.04563468,,,,,,,
,,,,,,,,,,,,,,,,,,,,,,-63.88888889,-29,20,75,-92.88888889,63.88888889,63.88888889,-182.8888889,-0.423148148,-0.422222222,1,0,0,3.5524,submitButton,-0.190740741,-0.289814815,0,0,0,1,8,68,13,1,29,68875,1,180,2022-02-10_12h16.01.004,orientation adjustment 1,2021.2.3,Win32,60.04563468,,,,,,,
,,,,,,,,,,,,,,,,,,,,,,-42.77777778,73,20,75,30.22222222,42.77777778,42.77777778,-59.77777778,-0.500925926,-0.389814815,1,0,0,2.9828,submitButton,-0.500925926,-0.388888889,0,0,0,1,9,69,57,1,73,68875,1,180,2022-02-10_12h16.01.004,orientation adjustment 1,2021.2.3,Win32,60.04563468,,,,,,,
,,,,,,,,,,,,,,,,,,,,,,-40,-74,20,75,-114,40,40,-204,-0.432407407,-0.423148148,1,0,0,0.4351,submitButton,-0.418518519,-0.418518519,0,0,0,1,10,70,58,1,74,68875,1,180,2022-02-10_12h16.01.004,orientation adjustment 1,2021.2.3,Win32,60.04563468,,,,,,,
,,,,,,,,,,,,,,,,,,,,,,-69.44444444,-42,20,75,-111.4444444,69.44444444,69.44444444,-201.4444444,-0.60462963,-0.401851852,1,0,0,5.1652,submitButton,-0.598148148,-0.393518519,0,0,0,1,11,71,26,1,42,68875,1,180,2022-02-10_12h16.01.004,orientation adjustment 1,2021.2.3,Win32,60.04563468,,,,,,,
,,,,,,,,,,,,,,,,,,,,,,-45.55555556,21,20,75,-24.55555556,45.55555556,45.55555556,-114.5555556,-0.463888889,-0.401851852,1,0,0,0.9,submitButton,-0.461111111,-0.396296296,0,0,0,1,12,72,5,1,21,68875,1,180,2022-02-10_12h16.01.004,orientation adjustment 1,2021.2.3,Win32,60.04563468,,,,,,,
,,,,,,,,,,,,,,,,,,,,,,-72.22222222,-56,20,75,-128.2222222,72.22222222,72.22222222,-218.2222222,-0.162962963,-0.499074074,1,0,0,0.5503,submitButton,-0.376851852,-0.387962963,0,0,0,1,13,73,40,1,56,68875,1,180,2022-02-10_12h16.01.004,orientation adjustment 1,2021.2.3,Win32,60.04563468,,,,,,,
,,,,,,,,,,,,,,,,,,,,,,20,-38,20,75,-18,20,20,-108,-0.351851852,-0.4,1,0,0,0.6173,submitButton,0.408333333,-0.397222222,1,0,0,1,14,74,22,1,38,68875,1,180,2022-02-10_12h16.01.004,orientation adjustment 1,2021.2.3,Win32,60.04563468,pause_continueButton,,,,,,
,,,,,,,,,,,,,,,,,,,,,,-36.66666667,20,20,75,-16.66666667,36.66666667,36.66666667,-106.6666667,-0.353703704,-0.411111111,1,0,0,0.5664,submitButton,-0.244444444,-0.343518519,0,0,0,1,15,75,4,1,20,68875,1,180,2022-02-10_12h16.01.004,orientation adjustment 1,2021.2.3,Win32,60.04563468,,,,,,,
,,,,,,,,,,,,,,,,,,,,,,-46.66666667,-54,20,75,-100.6666667,46.66666667,46.66666667,-190.6666667,-0.485185185,-0.407407407,1,0,0,0.4163,submitButton,-0.050925926,-0.27962963,0,0,0,1,16,76,38,1,54,68875,1,180,2022-02-10_12h16.01.004,orientation adjustment 1,2021.2.3,Win32,60.04563468,,,,,,,
,,,,,,,,,,,,,,,,,,,,,,-67.77777778,-17,20,75,-84.77777778,67.77777778,67.77777778,-174.7777778,-0.537037037,-0.388888889,1,0,0,0.4146,submitButton,-0.385185185,-0.385185185,0,0,0,1,17,77,1,1,17,68875,1,180,2022-02-10_12h16.01.004,orientation adjustment 1,2021.2.3,Win32,60.04563468,,,,,,,
,,,,,,,,,,,,,,,,,,,,,,-24.44444444,-37,20,75,-61.44444444,24.44444444,24.44444444,-151.4444444,-0.410185185,-0.421296296,1,0,0,1.2411,submitButton,-0.412962963,-0.421296296,0,0,0,1,18,78,21,1,37,68875,1,180,2022-02-10_12h16.01.004,orientation adjustment 1,2021.2.3,Win32,60.04563468,,,,,,,
,,,,,,,,,,,,,,,,,,,,,,30,-48,20,75,-18,30,30,-108,-0.387037037,-0.409259259,1,0,0,0.633,submitButton,-0.398148148,-0.390740741,0,0,0,1,19,79,32,1,48,68875,1,180,2022-02-10_12h16.01.004,orientation adjustment 1,2021.2.3,Win32,60.04563468,,,,,,,
,,,,,,,,,,,,,,,,,,,,,,-73.88888889,-64,20,75,-137.8888889,73.88888889,73.88888889,-227.8888889,-0.403703704,-0.384259259,1,0,0,0.7264,submitButton,-0.40462963,-0.392592593,0,0,0,1,20,80,48,1,64,68875,1,180,2022-02-10_12h16.01.004,orientation adjustment 1,2021.2.3,Win32,60.04563468,,,,,,,
,,,,,,,,,,,,,,,,,,,,,,-60,46,20,75,-14,60,60,-104,-0.397222222,-0.387962963,1,0,0,0.6096,submitButton,-0.421296296,-0.409259259,0,0,0,1,21,81,30,1,46,68875,1,180,2022-02-10_12h16.01.004,orientation adjustment 1,2021.2.3,Win32,60.04563468,,,,,,,
,,,,,,,,,,,,,,,,,,,,,,-37.77777778,59,20,75,21.22222222,37.77777778,37.77777778,-68.77777778,-0.47962963,-0.37962963,1,0,0,0.5405,submitButton,-0.491666667,-0.389814815,0,0,0,1,22,82,43,1,59,68875,1,180,2022-02-10_12h16.01.004,orientation adjustment 1,2021.2.3,Win32,60.04563468,,,,,,,
,,,,,,,,,,,,,,,,,,,,,,-52.22222222,69,20,75,16.77777778,52.22222222,52.22222222,-73.22222222,-0.433333333,-0.409259259,1,0,0,0.4346,submitButton,-0.432407407,-0.40462963,0,0,0,1,23,83,53,1,69,68875,1,180,2022-02-10_12h16.01.004,orientation adjustment 1,2021.2.3,Win32,60.04563468,,,,,,,
,,,,,,,,,,,,,,,,,,,,,,21.66666667,-61,20,75,-39.33333333,21.66666667,21.66666667,-129.3333333,-0.494444444,-0.383333333,1,0,0,0.3487,submitButton,-0.490740741,-0.383333333,0,0,0,1,24,84,45,1,61,68875,1,180,2022-02-10_12h16.01.004,orientation adjustment 1,2021.2.3,Win32,60.04563468,,,,,,,
,,,,,,,,,,,,,,,,,,,,,,-47.22222222,-70,20,75,-117.2222222,47.22222222,47.22222222,-207.2222222,-0.487037037,-0.383333333,1,0,0,0.3916,submitButton,-0.487037037,-0.383333333,0,0,0,1,25,85,54,1,70,68875,1,180,2022-02-10_12h16.01.004,orientation adjustment 1,2021.2.3,Win32,60.04563468,,,,,,,
,,,,,,,,,,,,,,,,,,,,,,48.88888889,-22,20,75,26.88888889,48.88888889,48.88888889,-63.11111111,-0.487037037,-0.383333333,1,0,0,1.0002,submitButton,-0.487037037,-0.383333333,0,0,0,1,26,86,6,1,22,68875,1,180,2022-02-10_12h16.01.004,orientation adjustment 1,2021.2.3,Win32,60.04563468,,,,,,,
,,,,,,,,,,,,,,,,,,,,,,-65.55555556,18,20,75,-47.55555556,65.55555556,65.55555556,-137.5555556,-0.487037037,-0.383333333,1,0,0,0.5509,submitButton,-0.493518519,-0.383333333,0,0,0,1,27,87,2,1,18,68875,1,180,2022-02-10_12h16.01.004,orientation adjustment 1,2021.2.3,Win32,60.04563468,,,,,,,
,,,,,,,,,,,,,,,,,,,,,,-67.22222222,-58,20,75,-125.2222222,67.22222222,67.22222222,-215.2222222,-0.493518519,-0.383333333,1,0,0,0.7674,submitButton,-0.493518519,-0.383333333,0,0,0,1,28,88,42,1,58,68875,1,180,2022-02-10_12h16.01.004,orientation adjustment 1,2021.2.3,Win32,60.04563468,,,,,,,
,,,,,,,,,,,,,,,,,,,,,,29.44444444,34,20,75,63.44444444,29.44444444,29.44444444,-26.55555556,-0.493518519,-0.383333333,1,0,0,0.0503,submitButton,0.331481481,-0.425,1,0,0,1,29,89,18,1,34,68875,1,180,2022-02-10_12h16.01.004,orientation adjustment 1,2021.2.3,Win32,60.04563468,pause_continueButton,,,,,,
,,,,,,,,,,,,,,,,,,,,,,30,-47,20,75,-17,30,30,-107,-0.588888889,-0.324074074,1,0,0,1.5414,submitButton,-0.507407407,-0.387037037,0,0,0,1,30,90,31,1,47,68875,1,180,2022-02-10_12h16.01.004,orientation adjustment 1,2021.2.3,Win32,60.04563468,,,,,,,
,,,,,,,,,,,,,,,,,,,,,,-60.55555556,-45,20,75,-105.5555556,60.55555556,60.55555556,-195.5555556,-0.507407407,-0.387037037,1,0,0,0.3088,submitButton,-0.507407407,-0.387037037,0,0,0,1,31,91,29,1,45,68875,1,180,2022-02-10_12h16.01.004,orientation adjustment 1,2021.2.3,Win32,60.04563468,,,,,,,
,,,,,,,,,,,,,,,,,,,,,,-61.66666667,-52,20,75,-113.6666667,61.66666667,61.66666667,-203.6666667,-0.506481481,-0.387037037,1,0,0,0.3169,submitButton,-0.506481481,-0.387037037,0,0,0,1,32,92,36,1,52,68875,1,180,2022-02-10_12h16.01.004,orientation adjustment 1,2021.2.3,Win32,60.04563468,,,,,,,
,,,,,,,,,,,,,,,,,,,,,,-40.55555556,24,20,75,-16.55555556,40.55555556,40.55555556,-106.5555556,-0.506481481,-0.387037037,1,0,0,0.276,submitButton,-0.506481481,-0.387037037,0,0,0,1,33,93,8,1,24,68875,1,180,2022-02-10_12h16.01.004,orientation adjustment 1,2021.2.3,Win32,60.04563468,,,,,,,
,,,,,,,,,,,,,,,,,,,,,,40.55555556,28,20,75,68.55555556,40.55555556,40.55555556,-21.44444444,-0.537962963,-0.382407407,1,0,0,2.5671,submitButton,-0.537962963,-0.382407407,0,0,0,1,34,94,12,1,28,68875,1,180,2022-02-10_12h16.01.004,orientation adjustment 1,2021.2.3,Win32,60.04563468,,,,,,,
,,,,,,,,,,,,,,,,,,,,,,-21.11111111,-67,20,75,-88.11111111,21.11111111,21.11111111,-178.1111111,-0.537962963,-0.382407407,1,0,0,0.4498,submitButton,-0.533333333,-0.381481481,0,0,0,1,35,95,51,1,67,68875,1,180,2022-02-10_12h16.01.004,orientation adjustment 1,2021.2.3,Win32,60.04563468,,,,,,,
,,,,,,,,,,,,,,,,,,,,,,31.66666667,33,20,75,64.66666667,31.66666667,31.66666667,-25.33333333,-0.533333333,-0.381481481,1,0,0,1.7344,submitButton,-0.533333333,-0.381481481,0,0,0,1,36,96,17,1,33,68875,1,180,2022-02-10_12h16.01.004,orientation adjustment 1,2021.2.3,Win32,60.04563468,,,,,,,
,,,,,,,,,,,,,,,,,,,,,,64.44444444,41,20,75,105.4444444,64.44444444,64.44444444,15.44444444,-0.533333333,-0.381481481,1,0,0,0.2668,submitButton,-0.533333333,-0.381481481,0,0,0,1,37,97,25,1,41,68875,1,180,2022-02-10_12h16.01.004,orientation adjustment 1,2021.2.3,Win32,60.04563468,,,,,,,
,,,,,,,,,,,,,,,,,,,,,,23.33333333,-30,20,75,-6.666666667,23.33333333,23.33333333,-96.66666667,-0.533333333,-0.381481481,1,0,0,0.266,submitButton,-0.533333333,-0.381481481,0,0,0,1,38,98,14,1,30,68875,1,180,2022-02-10_12h16.01.004,orientation adjustment 1,2021.2.3,Win32,60.04563468,,,,,,,
,,,,,,,,,,,,,,,,,,,,,,73.33333333,43,20,75,116.3333333,73.33333333,73.33333333,26.33333333,-0.533333333,-0.381481481,1,0,0,0.2844,submitButton,-0.533333333,-0.381481481,0,0,0,1,39,99,27,1,43,68875,1,180,2022-02-10_12h16.01.004,orientation adjustment 1,2021.2.3,Win32,60.04563468,,,,,,,
,,,,,,,,,,,,,,,,,,,,,,30,55,20,75,85,30,30,-5,-0.532407407,-0.384259259,1,0,0,0.5758,submitButton,-0.532407407,-0.384259259,0,0,0,1,40,100,39,1,55,68875,1,180,2022-02-10_12h16.01.004,orientation adjustment 1,2021.2.3,Win32,60.04563468,,,,,,,
,,,,,,,,,,,,,,,,,,,,,,-55,-19,20,75,-74,55,55,-164,-0.532407407,-0.384259259,1,0,0,0.3511,submitButton,-0.532407407,-0.384259259,0,0,0,1,41,101,3,1,19,68875,1,180,2022-02-10_12h16.01.004,orientation adjustment 1,2021.2.3,Win32,60.04563468,,,,,,,
,,,,,,,,,,,,,,,,,,,,,,-32.77777778,26,20,75,-6.777777778,32.77777778,32.77777778,-96.77777778,-0.532407407,-0.384259259,1,0,0,0.2949,submitButton,-0.532407407,-0.384259259,0,0,0,1,42,102,10,1,26,68875,1,180,2022-02-10_12h16.01.004,orientation adjustment 1,2021.2.3,Win32,60.04563468,,,,,,,
,,,,,,,,,,,,,,,,,,,,,,26.66666667,-71,20,75,-44.33333333,26.66666667,26.66666667,-134.3333333,-0.532407407,-0.384259259,1,0,0,0.4164,submitButton,-0.532407407,-0.384259259,0,0,0,1,43,103,55,1,71,68875,1,180,2022-02-10_12h16.01.004,orientation adjustment 1,2021.2.3,Win32,60.04563468,,,,,,,
,,,,,,,,,,,,,,,,,,,,,,-22.77777778,62,20,75,39.22222222,22.77777778,22.77777778,-50.77777778,-0.532407407,-0.384259259,1,0,0,0.0663,submitButton,0.387962963,-0.390740741,1,0,0,1,44,104,46,1,62,68875,1,180,2022-02-10_12h16.01.004,orientation adjustment 1,2021.2.3,Win32,60.04563468,pause_continueButton,,,,,,
,,,,,,,,,,,,,,,,,,,,,,33.88888889,-60,20,75,-26.11111111,33.88888889,33.88888889,-116.1111111,-0.374074074,-0.406481481,1,0,0,1.8167,submitButton,-0.373148148,-0.40462963,0,0,0,1,45,105,44,1,60,68875,1,180,2022-02-10_12h16.01.004,orientation adjustment 1,2021.2.3,Win32,60.04563468,,,,,,,
,,,,,,,,,,,,,,,,,,,,,,21.11111111,-32,20,75,-10.88888889,21.11111111,21.11111111,-100.8888889,-0.373148148,-0.40462963,1,0,0,0.5834,submitButton,-0.373148148,-0.40462963,0,0,0,1,46,106,16,1,32,68875,1,180,2022-02-10_12h16.01.004,orientation adjustment 1,2021.2.3,Win32,60.04563468,,,,,,,
,,,,,,,,,,,,,,,,,,,,,,-34.44444444,16,20,75,-18.44444444,34.44444444,34.44444444,-108.4444444,-0.373148148,-0.40462963,1,0,0,0.3835,submitButton,-0.373148148,-0.403703704,0,0,0,1,47,107,0,1,16,68875,1,180,2022-02-10_12h16.01.004,orientation adjustment 1,2021.2.3,Win32,60.04563468,,,,,,,
,,,,,,,,,,,,,,,,,,,,,,-29.44444444,-40,20,75,-69.44444444,29.44444444,29.44444444,-159.4444444,-0.373148148,-0.403703704,1,0,0,0.3509,submitButton,-0.373148148,-0.403703704,0,0,0,1,48,108,24,1,40,68875,1,180,2022-02-10_12h16.01.004,orientation adjustment 1,2021.2.3,Win32,60.04563468,,,,,,,
,,,,,,,,,,,,,,,,,,,,,,-25.55555556,75,20,75,49.44444444,25.55555556,25.55555556,-40.55555556,-0.373148148,-0.403703704,1,0,0,0.3168,submitButton,-0.373148148,-0.403703704,0,0,0,1,49,109,59,1,75,68875,1,180,2022-02-10_12h16.01.004,orientation adjustment 1,2021.2.3,Win32,60.04563468,,,,,,,
,,,,,,,,,,,,,,,,,,,,,,-28.88888889,50,20,75,21.11111111,28.88888889,28.88888889,-68.88888889,-0.373148148,-0.403703704,1,0,0,0.3492,submitButton,-0.373148148,-0.403703704,0,0,0,1,50,110,34,1,50,68875,1,180,2022-02-10_12h16.01.004,orientation adjustment 1,2021.2.3,Win32,60.04563468,,,,,,,
,,,,,,,,,,,,,,,,,,,,,,-70.55555556,-44,20,75,-114.5555556,70.55555556,70.55555556,-204.5555556,-0.373148148,-0.403703704,1,0,0,0.3007,submitButton,-0.373148148,-0.403703704,0,0,0,1,51,111,28,1,44,68875,1,180,2022-02-10_12h16.01.004,orientation adjustment 1,2021.2.3,Win32,60.04563468,,,,,,,
,,,,,,,,,,,,,,,,,,,,,,-57.22222222,63,20,75,5.777777778,57.22222222,57.22222222,-84.22222222,-0.373148148,-0.403703704,1,0,0,0.6997,submitButton,-0.373148148,-0.403703704,0,0,0,1,52,112,47,1,63,68875,1,180,2022-02-10_12h16.01.004,orientation adjustment 1,2021.2.3,Win32,60.04563468,,,,,,,
,,,,,,,,,,,,,,,,,,,,,,46.66666667,-35,20,75,11.66666667,46.66666667,46.66666667,-78.33333333,-0.373148148,-0.403703704,1,0,0,0.2104,submitButton,-0.373148148,-0.403703704,0,0,0,1,53,113,19,1,35,68875,1,180,2022-02-10_12h16.01.004,orientation adjustment 1,2021.2.3,Win32,60.04563468,,,,,,,
,,,,,,,,,,,,,,,,,,,,,,32.22222222,-65,20,75,-32.77777778,32.22222222,32.22222222,-122.7777778,-0.373148148,-0.403703704,1,0,0,0.2488,submitButton,-0.373148148,-0.403703704,0,0,0,1,54,114,49,1,65,68875,1,180,2022-02-10_12h16.01.004,orientation adjustment 1,2021.2.3,Win32,60.04563468,,,,,,,
,,,,,,,,,,,,,,,,,,,,,,-31.66666667,-31,20,75,-62.66666667,31.66666667,31.66666667,-152.6666667,-0.383333333,-0.42962963,1,0,0,0.3163,submitButton,-0.350925926,-0.393518519,0,0,0,1,55,115,15,1,31,68875,1,180,2022-02-10_12h16.01.004,orientation adjustment 1,2021.2.3,Win32,60.04563468,,,,,,,
,,,,,,,,,,,,,,,,,,,,,,60.55555556,-23,20,75,37.55555556,60.55555556,60.55555556,-52.44444444,-0.350925926,-0.393518519,1,0,0,0.3155,submitButton,-0.35,-0.392592593,0,0,0,1,56,116,7,1,23,68875,1,180,2022-02-10_12h16.01.004,orientation adjustment 1,2021.2.3,Win32,60.04563468,,,,,,,
,,,,,,,,,,,,,,,,,,,,,,52.22222222,66,20,75,118.2222222,52.22222222,52.22222222,28.22222222,-0.34537037,-0.391666667,1,0,0,0.3758,submitButton,-0.34537037,-0.391666667,0,0,0,1,57,117,50,1,66,68875,1,180,2022-02-10_12h16.01.004,orientation adjustment 1,2021.2.3,Win32,60.04563468,,,,,,,
,,,,,,,,,,,,,,,,,,,,,,-63.88888889,-72,20,75,-135.8888889,63.88888889,63.88888889,-225.8888889,-0.34537037,-0.391666667,1,0,0,0.35,submitButton,-0.34537037,-0.399074074,0,0,0,1,58,118,56,1,72,68875,1,180,2022-02-10_12h16.01.004,orientation adjustment 1,2021.2.3,Win32,60.04563468,,,,,,,
,,,,,,,,,,,,,,,,,,,,,,-22.22222222,-51,20,75,-73.22222222,22.22222222,22.22222222,-163.2222222,-0.373148148,-0.396296296,1,0,0,1.0661,submitButton,0.263888889,-0.402777778,1,0,0,1,59,119,35,1,51,68875,1,180,2022-02-10_12h16.01.004,orientation adjustment 1,2021.2.3,Win32,60.04563468,pause_continueButton,,,,,,
,,,,,,,,,,,,,,,,,,,,,,-61.11111111,64,20,75,2.888888889,61.11111111,61.11111111,-87.11111111,-0.364814815,-0.398148148,1,0,0,0.9331,submitButton,-0.363888889,-0.398148148,0,0,0,2,0,120,48,1,64,68875,1,180,2022-02-10_12h16.01.004,orientation adjustment 1,2021.2.3,Win32,60.04563468,,,,,,,
,,,,,,,,,,,,,,,,,,,,,,-71.11111111,-20,20,75,-91.11111111,71.11111111,71.11111111,-181.1111111,-0.360185185,-0.363888889,1,0,0,0.4173,submitButton,-0.361111111,-0.386111111,0,0,0,2,1,121,4,1,20,68875,1,180,2022-02-10_12h16.01.004,orientation adjustment 1,2021.2.3,Win32,60.04563468,,,,,,,
,,,,,,,,,,,,,,,,,,,,,,-42.22222222,-30,20,75,-72.22222222,42.22222222,42.22222222,-162.2222222,-0.361111111,-0.386111111,1,0,0,0.3508,submitButton,-0.361111111,-0.386111111,0,0,0,2,2,122,14,1,30,68875,1,180,2022-02-10_12h16.01.004,orientation adjustment 1,2021.2.3,Win32,60.04563468,,,,,,,
,,,,,,,,,,,,,,,,,,,,,,46.66666667,66,20,75,112.6666667,46.66666667,46.66666667,22.66666667,-0.361111111,-0.386111111,1,0,0,0.3508,submitButton,-0.361111111,-0.386111111,0,0,0,2,3,123,50,1,66,68875,1,180,2022-02-10_12h16.01.004,orientation adjustment 1,2021.2.3,Win32,60.04563468,,,,,,,
,,,,,,,,,,,,,,,,,,,,,,-55,-34,20,75,-89,55,55,-179,-0.361111111,-0.386111111,1,0,0,0.3004,submitButton,-0.361111111,-0.386111111,0,0,0,2,4,124,18,1,34,68875,1,180,2022-02-10_12h16.01.004,orientation adjustment 1,2021.2.3,Win32,60.04563468,,,,,,,
,,,,,,,,,,,,,,,,,,,,,,-53.33333333,-37,20,75,-90.33333333,53.33333333,53.33333333,-180.3333333,-0.361111111,-0.386111111,1,0,0,0.4492,submitButton,-0.361111111,-0.386111111,0,0,0,2,5,125,21,1,37,68875,1,180,2022-02-10_12h16.01.004,orientation adjustment 1,2021.2.3,Win32,60.04563468,,,,,,,
,,,,,,,,,,,,,,,,,,,,,,41.11111111,65,20,75,106.1111111,41.11111111,41.11111111,16.11111111,-0.361111111,-0.386111111,1,0,0,0.3006,submitButton,-0.361111111,-0.386111111,0,0,0,2,6,126,49,1,65,68875,1,180,2022-02-10_12h16.01.004,orientation adjustment 1,2021.2.3,Win32,60.04563468,,,,,,,
,,,,,,,,,,,,,,,,,,,,,,-68.88888889,-40,20,75,-108.8888889,68.88888889,68.88888889,-198.8888889,-0.361111111,-0.386111111,1,0,0,0.3328,submitButton,-0.361111111,-0.386111111,0,0,0,2,7,127,24,1,40,68875,1,180,2022-02-10_12h16.01.004,orientation adjustment 1,2021.2.3,Win32,60.04563468,,,,,,,
,,,,,,,,,,,,,,,,,,,,,,35.55555556,-32,20,75,3.555555556,35.55555556,35.55555556,-86.44444444,-0.361111111,-0.386111111,1,0,0,0.3663,submitButton,-0.361111111,-0.386111111,0,0,0,2,8,128,16,1,32,68875,1,180,2022-02-10_12h16.01.004,orientation adjustment 1,2021.2.3,Win32,60.04563468,,,,,,,
,,,,,,,,,,,,,,,,,,,,,,56.66666667,-23,20,75,33.66666667,56.66666667,56.66666667,-56.33333333,-0.361111111,-0.386111111,1,0,0,0.4844,submitButton,-0.362037037,-0.387037037,0,0,0,2,9,129,7,1,23,68875,1,180,2022-02-10_12h16.01.004,orientation adjustment 1,2021.2.3,Win32,60.04563468,,,,,,,
,,,,,,,,,,,,,,,,,,,,,,-23.33333333,54,20,75,30.66666667,23.33333333,23.33333333,-59.33333333,-0.362037037,-0.387037037,1,0,0,0.4989,submitButton,-0.362037037,-0.387037037,0,0,0,2,10,130,38,1,54,68875,1,180,2022-02-10_12h16.01.004,orientation adjustment 1,2021.2.3,Win32,60.04563468,,,,,,,
,,,,,,,,,,,,,,,,,,,,,,-40.55555556,-71,20,75,-111.5555556,40.55555556,40.55555556,-201.5555556,-0.362037037,-0.387037037,1,0,0,0.4332,submitButton,-0.362037037,-0.387037037,0,0,0,2,11,131,55,1,71,68875,1,180,2022-02-10_12h16.01.004,orientation adjustment 1,2021.2.3,Win32,60.04563468,,,,,,,
,,,,,,,,,,,,,,,,,,,,,,60,-33,20,75,27,60,60,-63,-0.362037037,-0.387037037,1,0,0,0.2837,submitButton,-0.362037037,-0.387037037,0,0,0,2,12,132,17,1,33,68875,1,180,2022-02-10_12h16.01.004,orientation adjustment 1,2021.2.3,Win32,60.04563468,,,,,,,
,,,,,,,,,,,,,,,,,,,,,,-40.55555556,75,20,75,34.44444444,40.55555556,40.55555556,-55.55555556,-0.362037037,-0.387037037,1,0,0,0.3344,submitButton,-0.362037037,-0.387037037,0,0,0,2,13,133,59,1,75,68875,1,180,2022-02-10_12h16.01.004,orientation adjustment 1,2021.2.3,Win32,60.04563468,,,,,,,
,,,,,,,,,,,,,,,,,,,,,,52.77777778,-19,20,75,33.77777778,52.77777778,52.77777778,-56.22222222,-0.362037037,-0.387037037,1,0,0,0.5825,submitButton,0.436111111,-0.411111111,1,0,0,2,14,134,3,1,19,68875,1,180,2022-02-10_12h16.01.004,orientation adjustment 1,2021.2.3,Win32,60.04563468,pause_continueButton,,,,,,
,,,,,,,,,,,,,,,,,,,,,,51.11111111,-16,20,75,35.11111111,51.11111111,51.11111111,-54.88888889,-0.45462963,-0.405555556,1,0,0,1.3507,submitButton,-0.444444444,-0.4,0,0,0,2,15,135,0,1,16,68875,1,180,2022-02-10_12h16.01.004,orientation adjustment 1,2021.2.3,Win32,60.04563468,,,,,,,
,,,,,,,,,,,,,,,,,,,,,,-42.22222222,-69,20,75,-111.2222222,42.22222222,42.22222222,-201.2222222,-0.435185185,-0.39537037,1,0,0,0.3012,submitButton,-0.435185185,-0.39537037,0,0,0,2,16,136,53,1,69,68875,1,180,2022-02-10_12h16.01.004,orientation adjustment 1,2021.2.3,Win32,60.04563468,,,,,,,
,,,,,,,,,,,,,,,,,,,,,,62.77777778,45,20,75,107.7777778,62.77777778,62.77777778,17.77777778,-0.435185185,-0.39537037,1,0,0,0.3161,submitButton,-0.435185185,-0.39537037,0,0,0,2,17,137,29,1,45,68875,1,180,2022-02-10_12h16.01.004,orientation adjustment 1,2021.2.3,Win32,60.04563468,,,,,,,
,,,,,,,,,,,,,,,,,,,,,,42.22222222,26,20,75,68.22222222,42.22222222,42.22222222,-21.77777778,-0.435185185,-0.39537037,1,0,0,0.3508,submitButton,-0.435185185,-0.397222222,0,0,0,2,18,138,10,1,26,68875,1,180,2022-02-10_12h16.01.004,orientation adjustment 1,2021.2.3,Win32,60.04563468,,,,,,,
,,,,,,,,,,,,,,,,,,,,,,-43.33333333,-28,20,75,-71.33333333,43.33333333,43.33333333,-161.3333333,-0.437037037,-0.398148148,1,0,0,0.2842,submitButton,-0.437037037,-0.398148148,0,0,0,2,19,139,12,1,28,68875,1,180,2022-02-10_12h16.01.004,orientation adjustment 1,2021.2.3,Win32,60.04563468,,,,,,,
,,,,,,,,,,,,,,,,,,,,,,75,-61,20,75,14,75,75,-76,-0.437037037,-0.398148148,1,0,0,0.2677,submitButton,-0.437037037,-0.398148148,0,0,0,2,20,140,45,1,61,68875,1,180,2022-02-10_12h16.01.004,orientation adjustment 1,2021.2.3,Win32,60.04563468,,,,,,,
,,,,,,,,,,,,,,,,,,,,,,42.22222222,56,20,75,98.22222222,42.22222222,42.22222222,8.222222222,-0.431481481,-0.397222222,1,0,0,0.2999,submitButton,-0.431481481,-0.397222222,0,0,0,2,21,141,40,1,56,68875,1,180,2022-02-10_12h16.01.004,orientation adjustment 1,2021.2.3,Win32,60.04563468,,,,,,,
,,,,,,,,,,,,,,,,,,,,,,-61.66666667,-67,20,75,-128.6666667,61.66666667,61.66666667,-218.6666667,-0.431481481,-0.397222222,1,0,0,0.3167,submitButton,-0.431481481,-0.401851852,0,0,0,2,22,142,51,1,67,68875,1,180,2022-02-10_12h16.01.004,orientation adjustment 1,2021.2.3,Win32,60.04563468,,,,,,,
,,,,,,,,,,,,,,,,,,,,,,42.22222222,47,20,75,89.22222222,42.22222222,42.22222222,-0.777777778,-0.431481481,-0.401851852,1,0,0,0.3329,submitButton,-0.431481481,-0.401851852,0,0,0,2,23,143,31,1,47,68875,1,180,2022-02-10_12h16.01.004,orientation adjustment 1,2021.2.3,Win32,60.04563468,,,,,,,
,,,,,,,,,,,,,,,,,,,,,,-36.11111111,-57,20,75,-93.11111111,36.11111111,36.11111111,-183.1111111,-0.431481481,-0.40462963,1,0,0,0.3501,submitButton,-0.42962963,-0.405555556,0,0,0,2,24,144,41,1,57,68875,1,180,2022-02-10_12h16.01.004,orientation adjustment 1,2021.2.3,Win32,60.04563468,,,,,,,
,,,,,,,,,,,,,,,,,,,,,,-73.88888889,-51,20,75,-124.8888889,73.88888889,73.88888889,-214.8888889,-0.42962963,-0.405555556,1,0,0,0.4238,submitButton,-0.42962963,-0.405555556,0,0,0,2,25,145,35,1,51,68875,1,180,2022-02-10_12h16.01.004,orientation adjustment 1,2021.2.3,Win32,60.04563468,,,,,,,
,,,,,,,,,,,,,,,,,,,,,,31.66666667,68,20,75,99.66666667,31.66666667,31.66666667,9.666666667,-0.42962963,-0.405555556,1,0,0,0.8514,submitButton,-0.42962963,-0.405555556,0,0,0,2,26,146,52,1,68,68875,1,180,2022-02-10_12h16.01.004,orientation adjustment 1,2021.2.3,Win32,60.04563468,,,,,,,
,,,,,,,,,,,,,,,,,,,,,,-33.33333333,48,20,75,14.66666667,33.33333333,33.33333333,-75.33333333,-0.428703704,-0.405555556,1,0,0,0.3325,submitButton,-0.428703704,-0.405555556,0,0,0,2,27,147,32,1,48,68875,1,180,2022-02-10_12h16.01.004,orientation adjustment 1,2021.2.3,Win32,60.04563468,,,,,,,
,,,,,,,,,,,,,,,,,,,,,,26.66666667,55,20,75,81.66666667,26.66666667,26.66666667,-8.333333333,-0.434259259,-0.408333333,1,0,0,0.584,submitButton,-0.434259259,-0.408333333,0,0,0,2,28,148,39,1,55,68875,1,180,2022-02-10_12h16.01.004,orientation adjustment 1,2021.2.3,Win32,60.04563468,,,,,,,
,,,,,,,,,,,,,,,,,,,,,,-34.44444444,-59,20,75,-93.44444444,34.44444444,34.44444444,-183.4444444,-0.434259259,-0.408333333,1,0,0,0.3334,submitButton,0.32962963,-0.40462963,1,0,0,2,29,149,43,1,59,68875,1,180,2022-02-10_12h16.01.004,orientation adjustment 1,2021.2.3,Win32,60.04563468,pause_continueButton,,,,,,
,,,,,,,,,,,,,,,,,,,,,,-23.88888889,52,20,75,28.11111111,23.88888889,23.88888889,-61.88888889,-0.421296296,-0.412037037,1,0,0,2.6157,submitButton,-0.421296296,-0.410185185,0,0,0,2,30,150,36,1,52,68875,1,180,2022-02-10_12h16.01.004,orientation adjustment 1,2021.2.3,Win32,60.04563468,,,,,,,
,,,,,,,,,,,,,,,,,,,,,,-32.77777778,-58,20,75,-90.77777778,32.77777778,32.77777778,-180.7777778,-0.457407407,-0.394444444,1,0,0,1.0737,submitButton,-0.540740741,-0.392592593,0,0,0,2,31,151,42,1,58,68875,1,180,2022-02-10_12h16.01.004,orientation adjustment 1,2021.2.3,Win32,60.04563468,,,,,,,
,,,,,,,,,,,,,,,,,,,,,,-38.88888889,70,20,75,31.11111111,38.88888889,38.88888889,-58.88888889,-0.540740741,-0.392592593,1,0,0,0.8109,submitButton,-0.541666667,-0.387962963,0,0,0,2,32,152,54,1,70,68875,1,180,2022-02-10_12h16.01.004,orientation adjustment 1,2021.2.3,Win32,60.04563468,,,,,,,
,,,,,,,,,,,,,,,,,,,,,,61.11111111,62,20,75,123.1111111,61.11111111,61.11111111,33.11111111,-0.541666667,-0.387962963,1,0,0,0.2998,submitButton,-0.541666667,-0.387962963,0,0,0,2,33,153,46,1,62,68875,1,180,2022-02-10_12h16.01.004,orientation adjustment 1,2021.2.3,Win32,60.04563468,,,,,,,
,,,,,,,,,,,,,,,,,,,,,,-28.88888889,-42,20,75,-70.88888889,28.88888889,28.88888889,-160.8888889,-0.546296296,-0.400925926,1,0,0,0.4919,submitButton,-0.546296296,-0.400925926,0,0,0,2,34,154,26,1,42,68875,1,180,2022-02-10_12h16.01.004,orientation adjustment 1,2021.2.3,Win32,60.04563468,,,,,,,
,,,,,,,,,,,,,,,,,,,,,,-50,-46,20,75,-96,50,50,-186,-0.553703704,-0.407407407,1,0,0,2.3747,submitButton,-0.553703704,-0.407407407,0,0,0,2,35,155,30,1,46,68875,1,180,2022-02-10_12h16.01.004,orientation adjustment 1,2021.2.3,Win32,60.04563468,,,,,,,
,,,,,,,,,,,,,,,,,,,,,,-40,72,20,75,32,40,40,-58,-0.553703704,-0.407407407,1,0,0,0.3509,submitButton,-0.553703704,-0.407407407,0,0,0,2,36,156,56,1,72,68875,1,180,2022-02-10_12h16.01.004,orientation adjustment 1,2021.2.3,Win32,60.04563468,,,,,,,
,,,,,,,,,,,,,,,,,,,,,,-22.22222222,-53,20,75,-75.22222222,22.22222222,22.22222222,-165.2222222,-0.558333333,-0.410185185,1,0,0,0.433,submitButton,-0.558333333,-0.411111111,0,0,0,2,37,157,37,1,53,68875,1,180,2022-02-10_12h16.01.004,orientation adjustment 1,2021.2.3,Win32,60.04563468,,,,,,,
,,,,,,,,,,,,,,,,,,,,,,42.77777778,-38,20,75,4.777777778,42.77777778,42.77777778,-85.22222222,-0.558333333,-0.411111111,1,0,0,0.3747,submitButton,-0.558333333,-0.411111111,0,0,0,2,38,158,22,1,38,68875,1,180,2022-02-10_12h16.01.004,orientation adjustment 1,2021.2.3,Win32,60.04563468,,,,,,,
,,,,,,,,,,,,,,,,,,,,,,61.11111111,-25,20,75,36.11111111,61.11111111,61.11111111,-53.88888889,-0.558333333,-0.411111111,1,0,0,0.3853,submitButton,-0.558333333,-0.411111111,0,0,0,2,39,159,9,1,25,68875,1,180,2022-02-10_12h16.01.004,orientation adjustment 1,2021.2.3,Win32,60.04563468,,,,,,,
,,,,,,,,,,,,,,,,,,,,,,-66.11111111,73,20,75,6.888888889,66.11111111,66.11111111,-83.11111111,-0.558333333,-0.411111111,1,0,0,0.4156,submitButton,-0.558333333,-0.411111111,0,0,0,2,40,160,57,1,73,68875,1,180,2022-02-10_12h16.01.004,orientation adjustment 1,2021.2.3,Win32,60.04563468,,,,,,,
,,,,,,,,,,,,,,,,,,,,,,51.66666667,-49,20,75,2.666666667,51.66666667,51.66666667,-87.33333333,-0.558333333,-0.411111111,1,0,0,0.7911,submitButton,-0.558333333,-0.411111111,0,0,0,2,41,161,33,1,49,68875,1,180,2022-02-10_12h16.01.004,orientation adjustment 1,2021.2.3,Win32,60.04563468,,,,,,,
,,,,,,,,,,,,,,,,,,,,,,-57.77777778,39,20,75,-18.77777778,57.77777778,57.77777778,-108.7777778,-0.558333333,-0.411111111,1,0,0,0.7166,submitButton,-0.558333333,-0.411111111,0,0,0,2,42,162,23,1,39,68875,1,180,2022-02-10_12h16.01.004,orientation adjustment 1,2021.2.3,Win32,60.04563468,,,,,,,
,,,,,,,,,,,,,,,,,,,,,,-38.88888889,60,20,75,21.11111111,38.88888889,38.88888889,-68.88888889,-0.556481481,-0.399074074,1,0,0,1.866,submitButton,-0.538888889,-0.403703704,0,0,0,2,43,163,44,1,60,68875,1,180,2022-02-10_12h16.01.004,orientation adjustment 1,2021.2.3,Win32,60.04563468,,,,,,,
,,,,,,,,,,,,,,,,,,,,,,20,35,20,75,55,20,20,-35,-0.544444444,-0.40462963,1,0,0,0.5669,submitButton,0.252777778,-0.386111111,1,0,0,2,44,164,19,1,35,68875,1,180,2022-02-10_12h16.01.004,orientation adjustment 1,2021.2.3,Win32,60.04563468,pause_continueButton,,,,,,
,,,,,,,,,,,,,,,,,,,,,,49.44444444,-17,20,75,32.44444444,49.44444444,49.44444444,-57.55555556,-0.550925926,-0.406481481,1,0,0,2.8178,submitButton,-0.550925926,-0.406481481,0,0,0,2,45,165,1,1,17,68875,1,180,2022-02-10_12h16.01.004,orientation adjustment 1,2021.2.3,Win32,60.04563468,,,,,,,
,,,,,,,,,,,,,,,,,,,,,,-30.55555556,-43,20,75,-73.55555556,30.55555556,30.55555556,-163.5555556,-0.550925926,-0.406481481,1,0,0,0.4013,submitButton,-0.550925926,-0.406481481,0,0,0,2,46,166,27,1,43,68875,1,180,2022-02-10_12h16.01.004,orientation adjustment 1,2021.2.3,Win32,60.04563468,,,,,,,
,,,,,,,,,,,,,,,,,,,,,,-57.77777778,-18,20,75,-75.77777778,57.77777778,57.77777778,-165.7777778,-0.550925926,-0.406481481,1,0,0,1.5842,submitButton,-0.550925926,-0.406481481,0,0,0,2,47,167,2,1,18,68875,1,180,2022-02-10_12h16.01.004,orientation adjustment 1,2021.2.3,Win32,60.04563468,,,,,,,
,,,,,,,,,,,,,,,,,,,,,,58.88888889,24,20,75,82.88888889,58.88888889,58.88888889,-7.111111111,-0.550925926,-0.406481481,1,0,0,0.2658,submitButton,-0.550925926,-0.406481481,0,0,0,2,48,168,8,1,24,68875,1,180,2022-02-10_12h16.01.004,orientation adjustment 1,2021.2.3,Win32,60.04563468,,,,,,,
,,,,,,,,,,,,,,,,,,,,,,-73.88888889,44,20,75,-29.88888889,73.88888889,73.88888889,-119.8888889,-0.550925926,-0.406481481,1,0,0,0.6596,submitButton,-0.550925926,-0.406481481,0,0,0,2,49,169,28,1,44,68875,1,180,2022-02-10_12h16.01.004,orientation adjustment 1,2021.2.3,Win32,60.04563468,,,,,,,
,,,,,,,,,,,,,,,,,,,,,,-40.55555556,31,20,75,-9.555555556,40.55555556,40.55555556,-99.55555556,-0.550925926,-0.406481481,1,0,0,0.4765,submitButton,-0.550925926,-0.406481481,0,0,0,2,50,170,15,1,31,68875,1,180,2022-02-10_12h16.01.004,orientation adjustment 1,2021.2.3,Win32,60.04563468,,,,,,,
,,,,,,,,,,,,,,,,,,,,,,65.55555556,-21,20,75,44.55555556,65.55555556,65.55555556,-45.44444444,-0.550925926,-0.406481481,1,0,0,0.5913,submitButton,-0.550925926,-0.406481481,0,0,0,2,51,171,5,1,21,68875,1,180,2022-02-10_12h16.01.004,orientation adjustment 1,2021.2.3,Win32,60.04563468,,,,,,,
,,,,,,,,,,,,,,,,,,,,,,40.55555556,-27,20,75,13.55555556,40.55555556,40.55555556,-76.44444444,-0.550925926,-0.406481481,1,0,0,0.6158,submitButton,-0.550925926,-0.406481481,0,0,0,2,52,172,11,1,27,68875,1,180,2022-02-10_12h16.01.004,orientation adjustment 1,2021.2.3,Win32,60.04563468,,,,,,,
,,,,,,,,,,,,,,,,,,,,,,-75,-74,20,75,-149,75,75,-239,-0.552777778,-0.411111111,1,0,0,0.9011,submitButton,-0.558333333,-0.414814815,0,0,0,2,53,173,58,1,74,68875,1,180,2022-02-10_12h16.01.004,orientation adjustment 1,2021.2.3,Win32,60.04563468,,,,,,,
,,,,,,,,,,,,,,,,,,,,,,61.66666667,36,20,75,97.66666667,61.66666667,61.66666667,7.666666667,-0.560185185,-0.400925926,1,0,0,0.5322,submitButton,-0.557407407,-0.399074074,0,0,0,2,54,174,20,1,36,68875,1,180,2022-02-10_12h16.01.004,orientation adjustment 1,2021.2.3,Win32,60.04563468,,,,,,,
,,,,,,,,,,,,,,,,,,,,,,48.33333333,50,20,75,98.33333333,48.33333333,48.33333333,8.333333333,-0.557407407,-0.399074074,1,0,0,0.407,submitButton,-0.557407407,-0.399074074,0,0,0,2,55,175,34,1,50,68875,1,180,2022-02-10_12h16.01.004,orientation adjustment 1,2021.2.3,Win32,60.04563468,,,,,,,
,,,,,,,,,,,,,,,,,,,,,,57.22222222,29,20,75,86.22222222,57.22222222,57.22222222,-3.777777778,-0.557407407,-0.399074074,1,0,0,0.3191,submitButton,-0.557407407,-0.399074074,0,0,0,2,56,176,13,1,29,68875,1,180,2022-02-10_12h16.01.004,orientation adjustment 1,2021.2.3,Win32,60.04563468,,,,,,,
,,,,,,,,,,,,,,,,,,,,,,53.33333333,22,20,75,75.33333333,53.33333333,53.33333333,-14.66666667,-0.557407407,-0.399074074,1,0,0,0.3154,submitButton,-0.526851852,-0.417592593,0,0,0,2,57,177,6,1,22,68875,1,180,2022-02-10_12h16.01.004,orientation adjustment 1,2021.2.3,Win32,60.04563468,,,,,,,
,,,,,,,,,,,,,,,,,,,,,,-68.88888889,-41,20,75,-109.8888889,68.88888889,68.88888889,-199.8888889,-0.55,-0.401851852,1,0,0,2.5997,submitButton,-0.55,-0.4,0,0,0,2,58,178,25,1,41,68875,1,180,2022-02-10_12h16.01.004,orientation adjustment 1,2021.2.3,Win32,60.04563468,,,,,,,
,,,,,,,,,,,,,,,,,,,,,,-45,-63,20,75,-108,45,45,-198,-0.55,-0.4,1,0,0,0.584,submitButton,-0.55,-0.4,0,0,0,2,59,179,47,1,63,68875,1,180,2022-02-10_12h16.01.004,orientation adjustment 1,2021.2.3,Win32,60.04563468,,,,,,,
,,,,,,,,,,,,,,,,,,,,,,,,,,,,,,,,,,,,,,,,,,,,,,,,68875,1,180,2022-02-10_12h16.01.004,orientation adjustment 1,2021.2.3,Win32,60.04563468,,0.283333333,-0.40462963,1,0,0,EndButtonTxt
