consentMouse1.x,consentMouse1.y,consentMouse1.leftButton,consentMouse1.midButton,consentMouse1.rightButton,consentMouse1.clicked_name,consent_Mouse.x,consent_Mouse.y,consent_Mouse.leftButton,consent_Mouse.midButton,consent_Mouse.rightButton,consent_Mouse.clicked_name,startMouse.x,startMouse.y,startMouse.leftButton,startMouse.midButton,startMouse.rightButton,startMouse_2.x,startMouse_2.y,startMouse_2.leftButton,startMouse_2.midButton,startMouse_2.rightButton,start_distance,fixedOri,minimalDistance,maxOri,this_ori,accuracy,presented_accuracy,presented_this_ori,submitMouse.x,submitMouse.y,submitMouse.leftButton,submitMouse.midButton,submitMouse.rightButton,submitMouse.time,submitMouse.clicked_name,pauseMouse.x,pauseMouse.y,pauseMouse.leftButton,pauseMouse.midButton,pauseMouse.rightButton,trials.thisRepN,trials.thisTrialN,trials.thisN,trials.thisIndex,trials.ran,startOri,participant,condition,nTrials,date,expName,psychopyVersion,OS,frameRate,pauseMouse.clicked_name,EndButtonMouse.x,EndButtonMouse.y,EndButtonMouse.leftButton,EndButtonMouse.midButton,EndButtonMouse.rightButton,EndButtonMouse.clicked_name
0.333333333,-0.398888889,1,0,0,consent_button1,0.356666667,-0.41,1,0,0,consent_button,0.056666667,-0.28,1,0,0,0.035555556,-0.396666667,1,0,0,-57.22222222,66,20,75,87.77777778,21.77777778,21.77777778,-2.222222222,0.207777778,-0.297777778,1,0,0,2.065,submitButton,-0.168888889,-0.303333333,0,0,0,0,0,0,50,1,66,68965,1,180,2022-02-10_10h08.54.674,orientation adjustment 1,2021.2.3,MacIntel,62.5,,,,,,,
,,,,,,,,,,,,,,,,,,,,,,-51.66666667,-62,20,75,-225.6666667,16.33333333,16.33333333,-315.6666667,0.392222222,-0.278888889,1,0,0,0.034,submitButton,-0.257777778,-0.393333333,0,0,0,0,1,1,46,1,62,68965,1,180,2022-02-10_10h08.54.674,orientation adjustment 1,2021.2.3,MacIntel,62.5,,,,,,,
,,,,,,,,,,,,,,,,,,,,,,-75,-17,20,75,-223,26,26,-313,0.381111111,-0.291111111,1,0,0,0.201,submitButton,-0.172222222,-0.403333333,0,0,0,0,2,2,1,1,17,68965,1,180,2022-02-10_10h08.54.674,orientation adjustment 1,2021.2.3,MacIntel,62.5,,,,,,,
,,,,,,,,,,,,,,,,,,,,,,29.44444444,65,20,75,201.4444444,43.55555556,43.55555556,111.4444444,0.19,-0.328888889,1,0,0,1.349,submitButton,-0.25,-0.401111111,0,0,0,0,3,3,49,1,65,68965,1,180,2022-02-10_10h08.54.674,orientation adjustment 1,2021.2.3,MacIntel,62.5,,,,,,,
,,,,,,,,,,,,,,,,,,,,,,-40.55555556,68,20,75,49.44444444,18.55555556,18.55555556,-40.55555556,-0.12,-0.4,1,0,0,0.634,submitButton,-0.12,-0.4,0,0,0,0,4,4,52,1,68,68965,1,180,2022-02-10_10h08.54.674,orientation adjustment 1,2021.2.3,MacIntel,62.5,,,,,,,
,,,,,,,,,,,,,,,,,,,,,,-28.33333333,-50,20,75,-57.33333333,7.333333333,7.333333333,-147.3333333,0.235555556,-0.317777778,1,0,0,0.416,submitButton,-0.137777778,-0.381111111,0,0,0,0,5,5,34,1,50,68965,1,180,2022-02-10_10h08.54.674,orientation adjustment 1,2021.2.3,MacIntel,62.5,,,,,,,
,,,,,,,,,,,,,,,,,,,,,,31.11111111,-63,20,75,-52.88888889,10.11111111,10.11111111,-142.8888889,0.38,-0.306666667,1,0,0,0.367,submitButton,-0.298888889,-0.423333333,0,0,0,0,6,6,47,1,63,68965,1,180,2022-02-10_10h08.54.674,orientation adjustment 1,2021.2.3,MacIntel,62.5,,,,,,,
,,,,,,,,,,,,,,,,,,,,,,52.77777778,-22,20,75,-34.22222222,12.22222222,12.22222222,-124.2222222,0.375555556,-0.301111111,1,0,0,0.799,submitButton,-0.284444444,-0.422222222,0,0,0,0,7,7,6,1,22,68965,1,180,2022-02-10_10h08.54.674,orientation adjustment 1,2021.2.3,MacIntel,62.5,,,,,,,
,,,,,,,,,,,,,,,,,,,,,,-57.22222222,-34,20,75,-209.2222222,4.777777778,4.777777778,-299.2222222,-0.113333333,-0.416666667,1,0,0,2.351,submitButton,-0.113333333,-0.416666667,0,0,0,0,8,8,18,1,34,68965,1,180,2022-02-10_10h08.54.674,orientation adjustment 1,2021.2.3,MacIntel,62.5,,,,,,,
,,,,,,,,,,,,,,,,,,,,,,53.88888889,71,20,75,231.8888889,19.11111111,19.11111111,141.8888889,-0.177777778,-0.417777778,1,0,0,1.8,submitButton,-0.177777778,-0.417777778,0,0,0,0,9,9,55,1,71,68965,1,180,2022-02-10_10h08.54.674,orientation adjustment 1,2021.2.3,MacIntel,62.5,,,,,,,
,,,,,,,,,,,,,,,,,,,,,,39.44444444,-47,20,75,-33.55555556,13.44444444,13.44444444,-123.5555556,0.408888889,-0.298888889,1,0,0,2.15,submitButton,-0.268888889,-0.42,0,0,0,0,10,10,31,1,47,68965,1,180,2022-02-10_10h08.54.674,orientation adjustment 1,2021.2.3,MacIntel,62.5,,,,,,,
,,,,,,,,,,,,,,,,,,,,,,-43.88888889,-33,20,75,-61.88888889,28.88888889,28.88888889,-151.8888889,0.191111111,-0.305555556,1,0,0,0.351,submitButton,-0.124444444,-0.422222222,0,0,0,0,11,11,17,1,33,68965,1,180,2022-02-10_10h08.54.674,orientation adjustment 1,2021.2.3,MacIntel,62.5,,,,,,,
,,,,,,,,,,,,,,,,,,,,,,-38.33333333,-28,20,75,-54.33333333,26.33333333,26.33333333,-144.3333333,-0.161111111,-0.41,1,0,0,0.918,submitButton,-0.161111111,-0.41,0,0,0,0,12,12,12,1,28,68965,1,180,2022-02-10_10h08.54.674,orientation adjustment 1,2021.2.3,MacIntel,62.5,,,,,,,
,,,,,,,,,,,,,,,,,,,,,,46.11111111,-56,20,75,-32.88888889,23.11111111,23.11111111,-122.8888889,0.388888889,-0.285555556,1,0,0,0.5,submitButton,-0.256666667,-0.418888889,0,0,0,0,13,13,40,1,56,68965,1,180,2022-02-10_10h08.54.674,orientation adjustment 1,2021.2.3,MacIntel,62.5,,,,,,,
,,,,,,,,,,,,,,,,,,,,,,52.22222222,-51,20,75,-40.77777778,10.22222222,10.22222222,-130.7777778,0.414444444,-0.284444444,1,0,0,0.15,submitButton,0.382222222,-0.401111111,1,0,0,0,14,14,35,1,51,68965,1,180,2022-02-10_10h08.54.674,orientation adjustment 1,2021.2.3,MacIntel,62.5,pause_continueButton,,,,,,
,,,,,,,,,,,,,,,,,,,,,,71.66666667,-73,20,75,-37.33333333,35.66666667,35.66666667,-127.3333333,-0.2,-0.387777778,1,0,0,1.266,submitButton,0.238888889,-0.237777778,0,0,0,0,15,15,57,1,73,68965,1,180,2022-02-10_10h08.54.674,orientation adjustment 1,2021.2.3,MacIntel,62.5,,,,,,,
,,,,,,,,,,,,,,,,,,,,,,-31.11111111,43,20,75,38.88888889,4.111111111,4.111111111,-51.11111111,-0.147777778,-0.392222222,1,0,0,0.568,submitButton,0.126666667,-0.288888889,0,0,0,0,16,16,27,1,43,68965,1,180,2022-02-10_10h08.54.674,orientation adjustment 1,2021.2.3,MacIntel,62.5,,,,,,,
,,,,,,,,,,,,,,,,,,,,,,25,69,20,75,242,7,7,152,-0.132222222,-0.398888889,1,0,0,2.817,submitButton,-0.131111111,-0.397777778,0,0,0,0,17,17,53,1,69,68965,1,180,2022-02-10_10h08.54.674,orientation adjustment 1,2021.2.3,MacIntel,62.5,,,,,,,
,,,,,,,,,,,,,,,,,,,,,,-45.55555556,37,20,75,22.44444444,14.55555556,14.55555556,-67.55555556,-0.12,-0.381111111,1,0,0,0.8,submitButton,0.18,-0.313333333,0,0,0,0,18,18,21,1,37,68965,1,180,2022-02-10_10h08.54.674,orientation adjustment 1,2021.2.3,MacIntel,62.5,,,,,,,
,,,,,,,,,,,,,,,,,,,,,,45,42,20,75,201,21,21,111,-0.145555556,-0.407777778,1,0,0,2.383,submitButton,0.237777778,-0.336666667,0,0,0,0,19,19,26,1,42,68965,1,180,2022-02-10_10h08.54.674,orientation adjustment 1,2021.2.3,MacIntel,62.5,,,,,,,
,,,,,,,,,,,,,,,,,,,,,,-72.22222222,39,20,75,23.77777778,15.22222222,15.22222222,-66.22222222,0.21,-0.31,1,0,0,1.032,submitButton,0.304444444,-0.341111111,0,0,0,0,20,20,23,1,39,68965,1,180,2022-02-10_10h08.54.674,orientation adjustment 1,2021.2.3,MacIntel,62.5,,,,,,,
,,,,,,,,,,,,,,,,,,,,,,-68.88888889,19,20,75,39.11111111,20.11111111,20.11111111,-50.88888889,0.226666667,-0.324444444,1,0,0,1.216,submitButton,0.325555556,-0.265555556,0,0,0,0,21,21,3,1,19,68965,1,180,2022-02-10_10h08.54.674,orientation adjustment 1,2021.2.3,MacIntel,62.5,,,,,,,
,,,,,,,,,,,,,,,,,,,,,,47.22222222,25,20,75,211.2222222,6.222222222,6.222222222,121.2222222,0.164444444,-0.306666667,1,0,0,4.748,submitButton,-0.25,-0.375555556,0,0,0,0,22,22,9,1,25,68965,1,180,2022-02-10_10h08.54.674,orientation adjustment 1,2021.2.3,MacIntel,62.5,,,,,,,
,,,,,,,,,,,,,,,,,,,,,,52.22222222,-61,20,75,-42.77777778,18.22222222,18.22222222,-132.7777778,-0.355555556,-0.374444444,1,0,0,1.283,submitButton,0.258888889,-0.255555556,0,0,0,0,23,23,45,1,61,68965,1,180,2022-02-10_10h08.54.674,orientation adjustment 1,2021.2.3,MacIntel,62.5,,,,,,,
,,,,,,,,,,,,,,,,,,,,,,32.77777778,58,20,75,223.7777778,14.22222222,14.22222222,133.7777778,-0.144444444,-0.41,1,0,0,2.616,submitButton,0.157777778,-0.31,0,0,0,0,24,24,42,1,58,68965,1,180,2022-02-10_10h08.54.674,orientation adjustment 1,2021.2.3,MacIntel,62.5,,,,,,,
,,,,,,,,,,,,,,,,,,,,,,36.11111111,-18,20,75,-34.88888889,16.88888889,16.88888889,-124.8888889,-0.147777778,-0.44,1,0,0,1.466,submitButton,0.142222222,-0.271111111,0,0,0,0,25,25,2,1,18,68965,1,180,2022-02-10_10h08.54.674,orientation adjustment 1,2021.2.3,MacIntel,62.5,,,,,,,
,,,,,,,,,,,,,,,,,,,,,,22.77777778,-24,20,75,-42.22222222,18.22222222,18.22222222,-132.2222222,-0.138888889,-0.402222222,1,0,0,1.068,submitButton,-0.135555556,-0.403333333,0,0,0,0,26,26,8,1,24,68965,1,180,2022-02-10_10h08.54.674,orientation adjustment 1,2021.2.3,MacIntel,62.5,,,,,,,
,,,,,,,,,,,,,,,,,,,,,,-60.55555556,-40,20,75,-228.5555556,8.555555556,8.555555556,-318.5555556,-0.178888889,-0.396666667,1,0,0,2.566,submitButton,0.243333333,-0.266666667,0,0,0,0,27,27,24,1,40,68965,1,180,2022-02-10_10h08.54.674,orientation adjustment 1,2021.2.3,MacIntel,62.5,,,,,,,
,,,,,,,,,,,,,,,,,,,,,,-20.55555556,-64,20,75,-69.55555556,5.555555556,5.555555556,-159.5555556,0.214444444,-0.337777778,1,0,0,0.953,submitButton,0.047777778,-0.41,0,0,0,0,28,28,48,1,64,68965,1,180,2022-02-10_10h08.54.674,orientation adjustment 1,2021.2.3,MacIntel,62.5,,,,,,,
,,,,,,,,,,,,,,,,,,,,,,-24.44444444,-23,20,75,-47.44444444,24.44444444,24.44444444,-137.4444444,-0.137777778,-0.391111111,1,0,0,0.647,submitButton,0.222222222,-0.393333333,1,0,0,0,29,29,7,1,23,68965,1,180,2022-02-10_10h08.54.674,orientation adjustment 1,2021.2.3,MacIntel,62.5,pause_continueButton,,,,,,
,,,,,,,,,,,,,,,,,,,,,,59.44444444,29,20,75,205.4444444,3.555555556,3.555555556,115.4444444,-0.144444444,-0.448888889,1,0,0,2.333,submitButton,0.213333333,-0.351111111,0,0,0,0,30,30,13,1,29,68965,1,180,2022-02-10_10h08.54.674,orientation adjustment 1,2021.2.3,MacIntel,62.5,,,,,,,
,,,,,,,,,,,,,,,,,,,,,,-63.33333333,-21,20,75,-61.33333333,40.33333333,40.33333333,-151.3333333,0.232222222,-0.307777778,1,0,0,0.05,submitButton,-0.116666667,-0.415555556,0,0,0,0,31,31,5,1,21,68965,1,180,2022-02-10_10h08.54.674,orientation adjustment 1,2021.2.3,MacIntel,62.5,,,,,,,
,,,,,,,,,,,,,,,,,,,,,,-21.66666667,-41,20,75,-50.66666667,9.666666667,9.666666667,-140.6666667,0.232222222,-0.316666667,1,0,0,0.233,submitButton,0.238888889,-0.306666667,0,0,0,0,32,32,25,1,41,68965,1,180,2022-02-10_10h08.54.674,orientation adjustment 1,2021.2.3,MacIntel,62.5,,,,,,,
,,,,,,,,,,,,,,,,,,,,,,33.33333333,-48,20,75,-46.66666667,1.333333333,1.333333333,-136.6666667,0.385555556,-0.308888889,1,0,0,0.131,submitButton,-0.097777778,-0.407777778,0,0,0,0,33,33,32,1,48,68965,1,180,2022-02-10_10h08.54.674,orientation adjustment 1,2021.2.3,MacIntel,62.5,,,,,,,
,,,,,,,,,,,,,,,,,,,,,,-69.44444444,70,20,75,42.55555556,27.44444444,27.44444444,-47.44444444,-0.107777778,-0.4,1,0,0,0.85,submitButton,0.213333333,-0.262222222,0,0,0,0,34,34,54,1,70,68965,1,180,2022-02-10_10h08.54.674,orientation adjustment 1,2021.2.3,MacIntel,62.5,,,,,,,
,,,,,,,,,,,,,,,,,,,,,,-50,44,20,75,39,5,5,-51,-0.16,-0.39,1,0,0,0.934,submitButton,0.208888889,-0.256666667,0,0,0,0,35,35,28,1,44,68965,1,180,2022-02-10_10h08.54.674,orientation adjustment 1,2021.2.3,MacIntel,62.5,,,,,,,
,,,,,,,,,,,,,,,,,,,,,,50.55555556,-20,20,75,-32.44444444,12.44444444,12.44444444,-122.4444444,0.411111111,-0.297777778,1,0,0,0.717,submitButton,0.186666667,-0.285555556,0,0,0,0,36,36,4,1,20,68965,1,180,2022-02-10_10h08.54.674,orientation adjustment 1,2021.2.3,MacIntel,62.5,,,,,,,
,,,,,,,,,,,,,,,,,,,,,,53.33333333,30,20,75,204.3333333,5.666666667,5.666666667,114.3333333,-0.154444444,-0.435555556,1,0,0,2.252,submitButton,0.146666667,-0.241111111,0,0,0,0,37,37,14,1,30,68965,1,180,2022-02-10_10h08.54.674,orientation adjustment 1,2021.2.3,MacIntel,62.5,,,,,,,
,,,,,,,,,,,,,,,,,,,,,,-50.55555556,16,20,75,37.44444444,21.44444444,21.44444444,-52.55555556,-0.132222222,-0.39,1,0,0,1.619,submitButton,0.287777778,-0.197777778,0,0,0,0,38,38,0,1,16,68965,1,180,2022-02-10_10h08.54.674,orientation adjustment 1,2021.2.3,MacIntel,62.5,,,,,,,
,,,,,,,,,,,,,,,,,,,,,,47.22222222,45,20,75,216.2222222,8.777777778,8.777777778,126.2222222,-0.123333333,-0.394444444,1,0,0,2.318,submitButton,0.2,-0.23,0,0,0,0,39,39,29,1,45,68965,1,180,2022-02-10_10h08.54.674,orientation adjustment 1,2021.2.3,MacIntel,62.5,,,,,,,
,,,,,,,,,,,,,,,,,,,,,,20,-32,20,75,-35,3,3,-125,-0.085555556,-0.42,1,0,0,1.033,submitButton,-0.101111111,-0.416666667,0,0,0,0,40,40,16,1,32,68965,1,180,2022-02-10_10h08.54.674,orientation adjustment 1,2021.2.3,MacIntel,62.5,,,,,,,
,,,,,,,,,,,,,,,,,,,,,,-70,67,20,75,46,21,21,-44,-0.137777778,-0.377777778,1,0,0,1.3,submitButton,0.134444444,-0.242222222,0,0,0,0,41,41,51,1,67,68965,1,180,2022-02-10_10h08.54.674,orientation adjustment 1,2021.2.3,MacIntel,62.5,,,,,,,
,,,,,,,,,,,,,,,,,,,,,,48.33333333,-60,20,75,-59.66666667,0.333333333,0.333333333,-149.6666667,-0.106666667,-0.396666667,1,0,0,1.001,submitButton,0.223333333,-0.325555556,0,0,0,0,42,42,44,1,60,68965,1,180,2022-02-10_10h08.54.674,orientation adjustment 1,2021.2.3,MacIntel,62.5,,,,,,,
,,,,,,,,,,,,,,,,,,,,,,31.11111111,-74,20,75,-54.88888889,19.11111111,19.11111111,-144.8888889,0.417777778,-0.316666667,1,0,0,0.266,submitButton,-0.011111111,-0.37,0,0,0,0,43,43,58,1,74,68965,1,180,2022-02-10_10h08.54.674,orientation adjustment 1,2021.2.3,MacIntel,62.5,,,,,,,
,,,,,,,,,,,,,,,,,,,,,,-58.33333333,-53,20,75,-242.3333333,9.333333333,9.333333333,-332.3333333,-0.105555556,-0.403333333,1,0,0,3.017,submitButton,0.222222222,-0.427777778,1,0,0,0,44,44,37,1,53,68965,1,180,2022-02-10_10h08.54.674,orientation adjustment 1,2021.2.3,MacIntel,62.5,pause_continueButton,,,,,,
,,,,,,,,,,,,,,,,,,,,,,68.33333333,38,20,75,213.3333333,4.666666667,4.666666667,123.3333333,-0.255555556,-0.405555556,1,0,0,1.983,submitButton,0.178888889,-0.28,0,0,0,0,45,45,22,1,38,68965,1,180,2022-02-10_10h08.54.674,orientation adjustment 1,2021.2.3,MacIntel,62.5,,,,,,,
,,,,,,,,,,,,,,,,,,,,,,-60.55555556,27,20,75,31.44444444,4.444444444,4.444444444,-58.55555556,-0.145555556,-0.374444444,1,0,0,1.366,submitButton,-0.145555556,-0.374444444,0,0,0,0,46,46,11,1,27,68965,1,180,2022-02-10_10h08.54.674,orientation adjustment 1,2021.2.3,MacIntel,62.5,,,,,,,
,,,,,,,,,,,,,,,,,,,,,,-26.11111111,-57,20,75,-70.11111111,13.11111111,13.11111111,-160.1111111,0.248888889,-0.304444444,1,0,0,0.6,submitButton,-0.16,-0.4,0,0,0,0,47,47,41,1,57,68965,1,180,2022-02-10_10h08.54.674,orientation adjustment 1,2021.2.3,MacIntel,62.5,,,,,,,
,,,,,,,,,,,,,,,,,,,,,,55.55555556,-52,20,75,-40.44444444,11.55555556,11.55555556,-130.4444444,0.388888889,-0.273333333,1,0,0,0.25,submitButton,-0.255555556,-0.387777778,0,0,0,0,48,48,36,1,52,68965,1,180,2022-02-10_10h08.54.674,orientation adjustment 1,2021.2.3,MacIntel,62.5,,,,,,,
,,,,,,,,,,,,,,,,,,,,,,-35.55555556,-55,20,75,-73.55555556,18.55555556,18.55555556,-163.5555556,0.274444444,-0.288888889,1,0,0,0.233,submitButton,-0.154444444,-0.377777778,0,0,0,0,49,49,39,1,55,68965,1,180,2022-02-10_10h08.54.674,orientation adjustment 1,2021.2.3,MacIntel,62.5,,,,,,,
,,,,,,,,,,,,,,,,,,,,,,43.33333333,54,20,75,239.3333333,5.333333333,5.333333333,149.3333333,-0.233333333,-0.375555556,1,0,0,2.885,submitButton,-0.231111111,-0.375555556,0,0,0,0,50,50,38,1,54,68965,1,180,2022-02-10_10h08.54.674,orientation adjustment 1,2021.2.3,MacIntel,62.5,,,,,,,
,,,,,,,,,,,,,,,,,,,,,,38.33333333,35,20,75,227.3333333,12.33333333,12.33333333,137.3333333,0.194444444,-0.296666667,1,0,0,0.15,submitButton,-0.048888889,-0.375555556,0,0,0,0,51,51,19,1,35,68965,1,180,2022-02-10_10h08.54.674,orientation adjustment 1,2021.2.3,MacIntel,62.5,,,,,,,
,,,,,,,,,,,,,,,,,,,,,,-65.55555556,-75,20,75,-224.5555556,30.44444444,30.44444444,-314.5555556,-0.126666667,-0.41,1,0,0,1.999,submitButton,-0.126666667,-0.41,0,0,0,0,52,52,59,1,75,68965,1,180,2022-02-10_10h08.54.674,orientation adjustment 1,2021.2.3,MacIntel,62.5,,,,,,,
,,,,,,,,,,,,,,,,,,,,,,38.88888889,-31,20,75,-47.11111111,16.11111111,16.11111111,-137.1111111,-0.198888889,-0.435555556,1,0,0,1.966,submitButton,-0.196666667,-0.415555556,0,0,0,0,53,53,15,1,31,68965,1,180,2022-02-10_10h08.54.674,orientation adjustment 1,2021.2.3,MacIntel,62.5,,,,,,,
,,,,,,,,,,,,,,,,,,,,,,37.77777778,36,20,75,214.7777778,1.222222222,1.222222222,124.7777778,-0.186666667,-0.391111111,1,0,0,2.483,submitButton,0.421111111,-0.184444444,0,0,0,0,54,54,20,1,36,68965,1,180,2022-02-10_10h08.54.674,orientation adjustment 1,2021.2.3,MacIntel,62.5,,,,,,,
,,,,,,,,,,,,,,,,,,,,,,-53.88888889,-72,20,75,-242.8888889,9.111111111,9.111111111,-332.8888889,-0.212222222,-0.385555556,1,0,0,2.419,submitButton,-0.201111111,-0.384444444,0,0,0,0,55,55,56,1,72,68965,1,180,2022-02-10_10h08.54.674,orientation adjustment 1,2021.2.3,MacIntel,62.5,,,,,,,
,,,,,,,,,,,,,,,,,,,,,,-45,-26,20,75,-46,20,20,-136,0.197777778,-0.287777778,1,0,0,1.485,submitButton,-0.222222222,-0.382222222,0,0,0,0,56,56,10,1,26,68965,1,180,2022-02-10_10h08.54.674,orientation adjustment 1,2021.2.3,MacIntel,62.5,,,,,,,
,,,,,,,,,,,,,,,,,,,,,,36.11111111,46,20,75,54.11111111,8.111111111,8.111111111,-35.88888889,0.361111111,-0.304444444,1,0,0,0.633,submitButton,0.194444444,-0.337777778,0,0,0,0,57,57,30,1,46,68965,1,180,2022-02-10_10h08.54.674,orientation adjustment 1,2021.2.3,MacIntel,62.5,,,,,,,
,,,,,,,,,,,,,,,,,,,,,,-46.11111111,-59,20,75,-230.1111111,8.888888889,8.888888889,-320.1111111,-0.186666667,-0.407777778,1,0,0,2.684,submitButton,-0.136666667,-0.394444444,0,0,0,0,58,58,43,1,59,68965,1,180,2022-02-10_10h08.54.674,orientation adjustment 1,2021.2.3,MacIntel,62.5,,,,,,,
,,,,,,,,,,,,,,,,,,,,,,-26.11111111,-49,20,75,-62.11111111,13.11111111,13.11111111,-152.1111111,0.214444444,-0.315555556,1,0,0,0.531,submitButton,0.251111111,-0.401111111,1,0,0,0,59,59,33,1,49,68965,1,180,2022-02-10_10h08.54.674,orientation adjustment 1,2021.2.3,MacIntel,62.5,pause_continueButton,,,,,,
,,,,,,,,,,,,,,,,,,,,,,22.77777778,-20,20,75,-29.22222222,9.222222222,9.222222222,-119.2222222,0.387777778,-0.318888889,1,0,0,0.334,submitButton,-0.194444444,-0.383333333,0,0,0,1,0,60,4,1,20,68965,1,180,2022-02-10_10h08.54.674,orientation adjustment 1,2021.2.3,MacIntel,62.5,,,,,,,
,,,,,,,,,,,,,,,,,,,,,,-65,29,20,75,28,1,1,-62,-0.131111111,-0.4,1,0,0,1.367,submitButton,-0.131111111,-0.4,0,0,0,1,1,61,13,1,29,68965,1,180,2022-02-10_10h08.54.674,orientation adjustment 1,2021.2.3,MacIntel,62.5,,,,,,,
,,,,,,,,,,,,,,,,,,,,,,-26.66666667,42,20,75,47.33333333,5.333333333,5.333333333,-42.66666667,0.214444444,-0.3,1,0,0,0.167,submitButton,-0.124444444,-0.391111111,0,0,0,1,2,62,26,1,42,68965,1,180,2022-02-10_10h08.54.674,orientation adjustment 1,2021.2.3,MacIntel,62.5,,,,,,,
,,,,,,,,,,,,,,,,,,,,,,35.55555556,-59,20,75,-45.44444444,13.55555556,13.55555556,-135.4444444,-0.21,-0.372222222,1,0,0,0.717,submitButton,-0.21,-0.372222222,0,0,0,1,3,63,43,1,59,68965,1,180,2022-02-10_10h08.54.674,orientation adjustment 1,2021.2.3,MacIntel,62.5,,,,,,,
,,,,,,,,,,,,,,,,,,,,,,-55,-39,20,75,-54,15,15,-144,0.223333333,-0.294444444,1,0,0,0.667,submitButton,-0.158888889,-0.403333333,0,0,0,1,4,64,23,1,39,68965,1,180,2022-02-10_10h08.54.674,orientation adjustment 1,2021.2.3,MacIntel,62.5,,,,,,,
,,,,,,,,,,,,,,,,,,,,,,-20.55555556,54,20,75,51.44444444,2.555555556,2.555555556,-38.55555556,-0.162222222,-0.393333333,1,0,0,0.719,submitButton,-0.162222222,-0.394444444,0,0,0,1,5,65,38,1,54,68965,1,180,2022-02-10_10h08.54.674,orientation adjustment 1,2021.2.3,MacIntel,62.5,,,,,,,
,,,,,,,,,,,,,,,,,,,,,,-23.88888889,-48,20,75,-49.88888889,1.888888889,1.888888889,-139.8888889,-0.13,-0.385555556,1,0,0,0.751,submitButton,-0.13,-0.385555556,0,0,0,1,6,66,32,1,48,68965,1,180,2022-02-10_10h08.54.674,orientation adjustment 1,2021.2.3,MacIntel,62.5,,,,,,,
,,,,,,,,,,,,,,,,,,,,,,-41.66666667,68,20,75,50.33333333,17.66666667,17.66666667,-39.66666667,-0.165555556,-0.421111111,1,0,0,0.683,submitButton,-0.165555556,-0.421111111,0,0,0,1,7,67,52,1,68,68965,1,180,2022-02-10_10h08.54.674,orientation adjustment 1,2021.2.3,MacIntel,62.5,,,,,,,
,,,,,,,,,,,,,,,,,,,,,,48.88888889,-27,20,75,116.8888889,36.11111111,36.11111111,26.88888889,-0.171111111,-0.413333333,1,0,0,1.984,submitButton,-0.17,-0.412222222,0,0,0,1,8,68,11,1,27,68965,1,180,2022-02-10_10h08.54.674,orientation adjustment 1,2021.2.3,MacIntel,62.5,,,,,,,
,,,,,,,,,,,,,,,,,,,,,,41.11111111,-30,20,75,122.1111111,27.88888889,27.88888889,32.11111111,-0.205555556,-0.408888889,1,0,0,2.567,submitButton,-0.205555556,-0.408888889,0,0,0,1,9,69,14,1,30,68965,1,180,2022-02-10_10h08.54.674,orientation adjustment 1,2021.2.3,MacIntel,62.5,,,,,,,
,,,,,,,,,,,,,,,,,,,,,,-38.33333333,75,20,75,60.66666667,14.33333333,14.33333333,-29.33333333,-0.158888889,-0.403333333,1,0,0,0.534,submitButton,-0.158888889,-0.403333333,0,0,0,1,10,70,59,1,75,68965,1,180,2022-02-10_10h08.54.674,orientation adjustment 1,2021.2.3,MacIntel,62.5,,,,,,,
,,,,,,,,,,,,,,,,,,,,,,66.66666667,-23,20,75,118.6666667,38.33333333,38.33333333,28.66666667,-0.146666667,-0.391111111,1,0,0,1.333,submitButton,-0.146666667,-0.391111111,0,0,0,1,11,71,7,1,23,68965,1,180,2022-02-10_10h08.54.674,orientation adjustment 1,2021.2.3,MacIntel,62.5,,,,,,,
,,,,,,,,,,,,,,,,,,,,,,-54.44444444,-26,20,75,-48.44444444,22.44444444,22.44444444,-138.4444444,-0.101111111,-0.345555556,1,0,0,0.652,submitButton,-0.134444444,-0.407777778,0,0,0,1,12,72,10,1,26,68965,1,180,2022-02-10_10h08.54.674,orientation adjustment 1,2021.2.3,MacIntel,62.5,,,,,,,
,,,,,,,,,,,,,,,,,,,,,,-42.22222222,19,20,75,34.77777778,15.77777778,15.77777778,-55.22222222,-0.245555556,-0.44,1,0,0,1.233,submitButton,0.142222222,-0.348888889,0,0,0,1,13,73,3,1,19,68965,1,180,2022-02-10_10h08.54.674,orientation adjustment 1,2021.2.3,MacIntel,62.5,,,,,,,
,,,,,,,,,,,,,,,,,,,,,,49.44444444,18,20,75,210.4444444,12.44444444,12.44444444,120.4444444,-0.117777778,-0.378888889,1,0,0,3.051,submitButton,0.355555556,-0.398888889,1,0,0,1,14,74,2,1,18,68965,1,180,2022-02-10_10h08.54.674,orientation adjustment 1,2021.2.3,MacIntel,62.5,pause_continueButton,,,,,,
,,,,,,,,,,,,,,,,,,,,,,-62.22222222,40,20,75,31.77777778,8.222222222,8.222222222,-58.22222222,-0.19,-0.394444444,1,0,0,1.151,submitButton,0.45,-0.231111111,0,0,0,1,15,75,24,1,40,68965,1,180,2022-02-10_10h08.54.674,orientation adjustment 1,2021.2.3,MacIntel,62.5,,,,,,,
,,,,,,,,,,,,,,,,,,,,,,73.88888889,-34,20,75,-36.11111111,2.111111111,2.111111111,-126.1111111,-0.115555556,-0.403333333,1,0,0,1.916,submitButton,-0.115555556,-0.403333333,0,0,0,1,16,76,18,1,34,68965,1,180,2022-02-10_10h08.54.674,orientation adjustment 1,2021.2.3,MacIntel,62.5,,,,,,,
,,,,,,,,,,,,,,,,,,,,,,33.88888889,45,20,75,60.88888889,15.88888889,15.88888889,-29.11111111,0.371111111,-0.302222222,1,0,0,0.35,submitButton,-0.212222222,-0.39,0,0,0,1,17,77,29,1,45,68965,1,180,2022-02-10_10h08.54.674,orientation adjustment 1,2021.2.3,MacIntel,62.5,,,,,,,
,,,,,,,,,,,,,,,,,,,,,,-29.44444444,63,20,75,54.55555556,8.444444444,8.444444444,-35.44444444,-0.186666667,-0.401111111,1,0,0,0.75,submitButton,-0.186666667,-0.401111111,0,0,0,1,18,78,47,1,63,68965,1,180,2022-02-10_10h08.54.674,orientation adjustment 1,2021.2.3,MacIntel,62.5,,,,,,,
,,,,,,,,,,,,,,,,,,,,,,-55,-24,20,75,-59,35,35,-149,0.217777778,-0.29,1,0,0,0.233,submitButton,-0.136666667,-0.372222222,0,0,0,1,19,79,8,1,24,68965,1,180,2022-02-10_10h08.54.674,orientation adjustment 1,2021.2.3,MacIntel,62.5,,,,,,,
,,,,,,,,,,,,,,,,,,,,,,-56.11111111,35,20,75,38.88888889,3.888888889,3.888888889,-51.11111111,-0.195555556,-0.387777778,1,0,0,1.084,submitButton,0.363333333,-0.285555556,0,0,0,1,20,80,19,1,35,68965,1,180,2022-02-10_10h08.54.674,orientation adjustment 1,2021.2.3,MacIntel,62.5,,,,,,,
,,,,,,,,,,,,,,,,,,,,,,-36.11111111,-66,20,75,-231.1111111,14.88888889,14.88888889,-321.1111111,-0.106666667,-0.363333333,1,0,0,2.484,submitButton,0.02,-0.345555556,0,0,0,1,21,81,50,1,66,68965,1,180,2022-02-10_10h08.54.674,orientation adjustment 1,2021.2.3,MacIntel,62.5,,,,,,,
,,,,,,,,,,,,,,,,,,,,,,-68.33333333,-65,20,75,-241.3333333,3.666666667,3.666666667,-331.3333333,0.388888889,-0.308888889,1,0,0,0.167,submitButton,-0.092222222,-0.364444444,0,0,0,1,22,82,49,1,65,68965,1,180,2022-02-10_10h08.54.674,orientation adjustment 1,2021.2.3,MacIntel,62.5,,,,,,,
,,,,,,,,,,,,,,,,,,,,,,24.44444444,43,20,75,221.4444444,1.555555556,1.555555556,131.4444444,-0.203333333,-0.412222222,1,0,0,2.783,submitButton,0.116666667,-0.248888889,0,0,0,1,23,83,27,1,43,68965,1,180,2022-02-10_10h08.54.674,orientation adjustment 1,2021.2.3,MacIntel,62.5,,,,,,,
,,,,,,,,,,,,,,,,,,,,,,-36.11111111,21,20,75,29.88888889,8.888888889,8.888888889,-60.11111111,-0.11,-0.385555556,1,0,0,0.951,submitButton,0.241111111,-0.3,0,0,0,1,24,84,5,1,21,68965,1,180,2022-02-10_10h08.54.674,orientation adjustment 1,2021.2.3,MacIntel,62.5,,,,,,,
,,,,,,,,,,,,,,,,,,,,,,-65,-44,20,75,-229,5,5,-319,-0.146666667,-0.401111111,1,0,0,2.182,submitButton,-0.121111111,-0.385555556,0,0,0,1,25,85,28,1,44,68965,1,180,2022-02-10_10h08.54.674,orientation adjustment 1,2021.2.3,MacIntel,62.5,,,,,,,
,,,,,,,,,,,,,,,,,,,,,,-54.44444444,41,20,75,49.55555556,8.555555556,8.555555556,-40.44444444,-0.121111111,-0.386666667,1,0,0,1.05,submitButton,0.327777778,-0.221111111,0,0,0,1,26,86,25,1,41,68965,1,180,2022-02-10_10h08.54.674,orientation adjustment 1,2021.2.3,MacIntel,62.5,,,,,,,
,,,,,,,,,,,,,,,,,,,,,,-73.33333333,-69,20,75,-237.3333333,11.66666667,11.66666667,-327.3333333,-0.098888889,-0.381111111,1,0,0,1.866,submitButton,-0.1,-0.381111111,0,0,0,1,27,87,53,1,69,68965,1,180,2022-02-10_10h08.54.674,orientation adjustment 1,2021.2.3,MacIntel,62.5,,,,,,,
,,,,,,,,,,,,,,,,,,,,,,-33.33333333,-73,20,75,-65.33333333,7.666666667,7.666666667,-155.3333333,0.234444444,-0.302222222,1,0,0,0.1,submitButton,-0.064444444,-0.371111111,0,0,0,1,28,88,57,1,73,68965,1,180,2022-02-10_10h08.54.674,orientation adjustment 1,2021.2.3,MacIntel,62.5,,,,,,,
,,,,,,,,,,,,,,,,,,,,,,-72.77777778,36,20,75,50.22222222,14.22222222,14.22222222,-39.77777778,0.214444444,-0.286666667,1,0,0,1.1,submitButton,0.256666667,-0.402222222,1,0,0,1,29,89,20,1,36,68965,1,180,2022-02-10_10h08.54.674,orientation adjustment 1,2021.2.3,MacIntel,62.5,pause_continueButton,,,,,,
,,,,,,,,,,,,,,,,,,,,,,-68.88888889,-33,20,75,-55.88888889,22.88888889,22.88888889,-145.8888889,-0.226666667,-0.431111111,1,0,0,0.881,submitButton,-0.185555556,-0.39,0,0,0,1,30,90,17,1,33,68965,1,180,2022-02-10_10h08.54.674,orientation adjustment 1,2021.2.3,MacIntel,62.5,,,,,,,
,,,,,,,,,,,,,,,,,,,,,,59.44444444,71,20,75,240.4444444,10.55555556,10.55555556,150.4444444,-0.146666667,-0.408888889,1,0,0,2.017,submitButton,-0.146666667,-0.408888889,0,0,0,1,31,91,55,1,71,68965,1,180,2022-02-10_10h08.54.674,orientation adjustment 1,2021.2.3,MacIntel,62.5,,,,,,,
,,,,,,,,,,,,,,,,,,,,,,38.33333333,74,20,75,239.3333333,14.66666667,14.66666667,149.3333333,-0.132222222,-0.392222222,1,0,0,2.733,submitButton,0.161111111,-0.386666667,0,0,0,1,32,92,58,1,74,68965,1,180,2022-02-10_10h08.54.674,orientation adjustment 1,2021.2.3,MacIntel,62.5,,,,,,,
,,,,,,,,,,,,,,,,,,,,,,47.77777778,-67,20,75,-56.22222222,10.77777778,10.77777778,-146.2222222,-0.164444444,-0.413333333,1,0,0,0.816,submitButton,0.256666667,-0.253333333,0,0,0,1,33,93,51,1,67,68965,1,180,2022-02-10_10h08.54.674,orientation adjustment 1,2021.2.3,MacIntel,62.5,,,,,,,
,,,,,,,,,,,,,,,,,,,,,,-44.44444444,-70,20,75,-241.4444444,8.555555556,8.555555556,-331.4444444,-0.183333333,-0.383333333,1,0,0,2.333,submitButton,0.226666667,-0.301111111,0,0,0,1,34,94,54,1,70,68965,1,180,2022-02-10_10h08.54.674,orientation adjustment 1,2021.2.3,MacIntel,62.5,,,,,,,
,,,,,,,,,,,,,,,,,,,,,,27.22222222,-46,20,75,-40.77777778,5.222222222,5.222222222,-130.7777778,-0.108888889,-0.397777778,1,0,0,0.915,submitButton,-0.108888889,-0.397777778,0,0,0,1,35,95,30,1,46,68965,1,180,2022-02-10_10h08.54.674,orientation adjustment 1,2021.2.3,MacIntel,62.5,,,,,,,
,,,,,,,,,,,,,,,,,,,,,,27.22222222,-31,20,75,-23.77777778,7.222222222,7.222222222,-113.7777778,0.418888889,-0.267777778,1,0,0,0.114,submitButton,0.147777778,-0.301111111,0,0,0,1,36,96,15,1,31,68965,1,180,2022-02-10_10h08.54.674,orientation adjustment 1,2021.2.3,MacIntel,62.5,,,,,,,
,,,,,,,,,,,,,,,,,,,,,,62.77777778,-55,20,75,-35.22222222,19.77777778,19.77777778,-125.2222222,0.413333333,-0.285555556,1,0,0,0.099,submitButton,0.1,-0.344444444,0,0,0,1,37,97,39,1,55,68965,1,180,2022-02-10_10h08.54.674,orientation adjustment 1,2021.2.3,MacIntel,62.5,,,,,,,
,,,,,,,,,,,,,,,,,,,,,,68.88888889,-58,20,75,-27.11111111,30.88888889,30.88888889,-117.1111111,-0.177777778,-0.412222222,1,0,0,1.317,submitButton,-0.154444444,-0.384444444,0,0,0,1,38,98,42,1,58,68965,1,180,2022-02-10_10h08.54.674,orientation adjustment 1,2021.2.3,MacIntel,62.5,,,,,,,
,,,,,,,,,,,,,,,,,,,,,,36.66666667,38,20,75,65.66666667,27.66666667,27.66666667,-24.33333333,0.363333333,-0.312222222,1,0,0,0.35,submitButton,-0.135555556,-0.41,0,0,0,1,39,99,22,1,38,68965,1,180,2022-02-10_10h08.54.674,orientation adjustment 1,2021.2.3,MacIntel,62.5,,,,,,,
,,,,,,,,,,,,,,,,,,,,,,-35,-51,20,75,-67,16,16,-157,-0.117777778,-0.384444444,1,0,0,0.834,submitButton,-0.118888889,-0.384444444,0,0,0,1,40,100,35,1,51,68965,1,180,2022-02-10_10h08.54.674,orientation adjustment 1,2021.2.3,MacIntel,62.5,,,,,,,
,,,,,,,,,,,,,,,,,,,,,,-68.88888889,56,20,75,40.11111111,15.88888889,15.88888889,-49.88888889,-0.145555556,-0.39,1,0,0,1.166,submitButton,-0.138888889,-0.395555556,0,0,0,1,41,101,40,1,56,68965,1,180,2022-02-10_10h08.54.674,orientation adjustment 1,2021.2.3,MacIntel,62.5,,,,,,,
,,,,,,,,,,,,,,,,,,,,,,-64.44444444,52,20,75,41.55555556,10.44444444,10.44444444,-48.44444444,-0.118888889,-0.397777778,1,0,0,1.184,submitButton,-0.118888889,-0.397777778,0,0,0,1,42,102,36,1,52,68965,1,180,2022-02-10_10h08.54.674,orientation adjustment 1,2021.2.3,MacIntel,62.5,,,,,,,
,,,,,,,,,,,,,,,,,,,,,,-71.11111111,-62,20,75,-226.1111111,15.88888889,15.88888889,-316.1111111,-0.244444444,-0.418888889,1,0,0,1.65,submitButton,0.138888889,-0.226666667,0,0,0,1,43,103,46,1,62,68965,1,180,2022-02-10_10h08.54.674,orientation adjustment 1,2021.2.3,MacIntel,62.5,,,,,,,
,,,,,,,,,,,,,,,,,,,,,,49.44444444,25,20,75,58.44444444,33.44444444,33.44444444,-31.55555556,0.406666667,-0.301111111,1,0,0,0.634,submitButton,0.215555556,-0.401111111,1,0,0,1,44,104,9,1,25,68965,1,180,2022-02-10_10h08.54.674,orientation adjustment 1,2021.2.3,MacIntel,62.5,pause_continueButton,,,,,,
,,,,,,,,,,,,,,,,,,,,,,53.88888889,57,20,75,226.8888889,10.11111111,10.11111111,136.8888889,0.2,-0.301111111,1,0,0,0.168,submitButton,-0.181111111,-0.394444444,0,0,0,1,45,105,41,1,57,68965,1,180,2022-02-10_10h08.54.674,orientation adjustment 1,2021.2.3,MacIntel,62.5,,,,,,,
,,,,,,,,,,,,,,,,,,,,,,-28.88888889,72,20,75,63.11111111,8.888888889,8.888888889,-26.88888889,0.18,-0.315555556,1,0,0,5.532,submitButton,-0.191111111,-0.386666667,0,0,0,1,46,106,56,1,72,68965,1,180,2022-02-10_10h08.54.674,orientation adjustment 1,2021.2.3,MacIntel,62.5,,,,,,,
,,,,,,,,,,,,,,,,,,,,,,71.11111111,-53,20,75,-35.88888889,17.11111111,17.11111111,-125.8888889,-0.13,-0.398888889,1,0,0,1.384,submitButton,-0.13,-0.398888889,0,0,0,1,47,107,37,1,53,68965,1,180,2022-02-10_10h08.54.674,orientation adjustment 1,2021.2.3,MacIntel,62.5,,,,,,,
,,,,,,,,,,,,,,,,,,,,,,32.77777778,-47,20,75,-39.22222222,7.777777778,7.777777778,-129.2222222,-0.122222222,-0.391111111,1,0,0,1.116,submitButton,-0.122222222,-0.391111111,0,0,0,1,48,108,31,1,47,68965,1,180,2022-02-10_10h08.54.674,orientation adjustment 1,2021.2.3,MacIntel,62.5,,,,,,,
,,,,,,,,,,,,,,,,,,,,,,-63.33333333,-64,20,75,-80.33333333,16.33333333,16.33333333,-170.3333333,0.2,-0.293333333,1,0,0,0.15,submitButton,-0.115555556,-0.407777778,0,0,0,1,49,109,48,1,64,68965,1,180,2022-02-10_10h08.54.674,orientation adjustment 1,2021.2.3,MacIntel,62.5,,,,,,,
,,,,,,,,,,,,,,,,,,,,,,-45.55555556,22,20,75,24.44444444,2.444444444,2.444444444,-65.55555556,-0.122222222,-0.407777778,1,0,0,1.35,submitButton,-0.122222222,-0.407777778,0,0,0,1,50,110,6,1,22,68965,1,180,2022-02-10_10h08.54.674,orientation adjustment 1,2021.2.3,MacIntel,62.5,,,,,,,
,,,,,,,,,,,,,,,,,,,,,,64.44444444,17,20,75,194.4444444,2.555555556,2.555555556,104.4444444,0.197777778,-0.3,1,0,0,0.301,submitButton,-0.181111111,-0.382222222,0,0,0,1,51,111,1,1,17,68965,1,180,2022-02-10_10h08.54.674,orientation adjustment 1,2021.2.3,MacIntel,62.5,,,,,,,
,,,,,,,,,,,,,,,,,,,,,,-67.77777778,50,20,75,64.22222222,14.22222222,14.22222222,-25.77777778,-0.161111111,-0.402222222,1,0,0,1.45,submitButton,-0.161111111,-0.402222222,0,0,0,1,52,112,34,1,50,68965,1,180,2022-02-10_10h08.54.674,orientation adjustment 1,2021.2.3,MacIntel,62.5,,,,,,,
,,,,,,,,,,,,,,,,,,,,,,-30.55555556,-60,20,75,-60.55555556,0.555555556,0.555555556,-150.5555556,-0.186666667,-0.407777778,1,0,0,0.982,submitButton,-0.186666667,-0.407777778,0,0,0,1,53,113,44,1,60,68965,1,180,2022-02-10_10h08.54.674,orientation adjustment 1,2021.2.3,MacIntel,62.5,,,,,,,
,,,,,,,,,,,,,,,,,,,,,,46.66666667,32,20,75,61.66666667,29.66666667,29.66666667,-28.33333333,0.397777778,-0.294444444,1,0,0,0.249,submitButton,-0.276666667,-0.393333333,0,0,0,1,54,114,16,1,32,68965,1,180,2022-02-10_10h08.54.674,orientation adjustment 1,2021.2.3,MacIntel,62.5,,,,,,,
,,,,,,,,,,,,,,,,,,,,,,73.33333333,-16,20,75,115.3333333,48.66666667,48.66666667,25.33333333,0.188888889,-0.296666667,1,0,0,0.45,submitButton,-0.184444444,-0.417777778,0,0,0,1,55,115,0,1,16,68965,1,180,2022-02-10_10h08.54.674,orientation adjustment 1,2021.2.3,MacIntel,62.5,,,,,,,
,,,,,,,,,,,,,,,,,,,,,,-25,37,20,75,41,4,4,-49,-0.178888889,-0.41,1,0,0,0.666,submitButton,-0.178888889,-0.41,0,0,0,1,56,116,21,1,37,68965,1,180,2022-02-10_10h08.54.674,orientation adjustment 1,2021.2.3,MacIntel,62.5,,,,,,,
,,,,,,,,,,,,,,,,,,,,,,-41.11111111,28,20,75,12.88888889,15.11111111,15.11111111,-77.11111111,0.193333333,-0.3,1,0,0,0.133,submitButton,-0.147777778,-0.401111111,0,0,0,1,57,117,12,1,28,68965,1,180,2022-02-10_10h08.54.674,orientation adjustment 1,2021.2.3,MacIntel,62.5,,,,,,,
,,,,,,,,,,,,,,,,,,,,,,-22.77777778,-49,20,75,-67.77777778,18.77777778,18.77777778,-157.7777778,-0.158888889,-0.402222222,1,0,0,0.699,submitButton,-0.158888889,-0.402222222,0,0,0,1,58,118,33,1,49,68965,1,180,2022-02-10_10h08.54.674,orientation adjustment 1,2021.2.3,MacIntel,62.5,,,,,,,
,,,,,,,,,,,,,,,,,,,,,,33.88888889,-61,20,75,-62.11111111,1.111111111,1.111111111,-152.1111111,0.385555556,-0.296666667,1,0,0,0.234,submitButton,0.258888889,-0.412222222,1,0,0,1,59,119,45,1,61,68965,1,180,2022-02-10_10h08.54.674,orientation adjustment 1,2021.2.3,MacIntel,62.5,pause_continueButton,,,,,,
,,,,,,,,,,,,,,,,,,,,,,35,-36,20,75,-27,9,9,-117,-0.286666667,-0.395555556,1,0,0,1.15,submitButton,-0.286666667,-0.395555556,0,0,0,2,0,120,20,1,36,68965,1,180,2022-02-10_10h08.54.674,orientation adjustment 1,2021.2.3,MacIntel,62.5,,,,,,,
,,,,,,,,,,,,,,,,,,,,,,32.77777778,-62,20,75,-59.22222222,2.777777778,2.777777778,-149.2222222,-0.222222222,-0.417777778,1,0,0,1.05,submitButton,-0.222222222,-0.418888889,0,0,0,2,1,121,46,1,62,68965,1,180,2022-02-10_10h08.54.674,orientation adjustment 1,2021.2.3,MacIntel,62.5,,,,,,,
,,,,,,,,,,,,,,,,,,,,,,-65,-61,20,75,-79,18,18,-169,0.187777778,-0.308888889,1,0,0,0.117,submitButton,-0.165555556,-0.416666667,0,0,0,2,2,122,45,1,61,68965,1,180,2022-02-10_10h08.54.674,orientation adjustment 1,2021.2.3,MacIntel,62.5,,,,,,,
,,,,,,,,,,,,,,,,,,,,,,66.11111111,72,20,75,217.1111111,34.88888889,34.88888889,127.1111111,-0.21,-0.378888889,1,0,0,1.6,submitButton,-0.211111111,-0.375555556,0,0,0,2,3,123,56,1,72,68965,1,180,2022-02-10_10h08.54.674,orientation adjustment 1,2021.2.3,MacIntel,62.5,,,,,,,
,,,,,,,,,,,,,,,,,,,,,,60.55555556,-23,20,75,-34.44444444,11.44444444,11.44444444,-124.4444444,-0.183333333,-0.39,1,0,0,2.033,submitButton,-0.183333333,-0.39,0,0,0,2,4,124,7,1,23,68965,1,180,2022-02-10_10h08.54.674,orientation adjustment 1,2021.2.3,MacIntel,62.5,,,,,,,
,,,,,,,,,,,,,,,,,,,,,,46.66666667,-45,20,75,-34.33333333,10.66666667,10.66666667,-124.3333333,0.367777778,-0.308888889,1,0,0,0.1,submitButton,-0.165555556,-0.396666667,0,0,0,2,5,125,29,1,45,68965,1,180,2022-02-10_10h08.54.674,orientation adjustment 1,2021.2.3,MacIntel,62.5,,,,,,,
,,,,,,,,,,,,,,,,,,,,,,42.77777778,29,20,75,225.7777778,16.77777778,16.77777778,135.7777778,0.187777778,-0.297777778,1,0,0,2.133,submitButton,-0.175555556,-0.382222222,0,0,0,2,6,126,13,1,29,68965,1,180,2022-02-10_10h08.54.674,orientation adjustment 1,2021.2.3,MacIntel,62.5,,,,,,,
,,,,,,,,,,,,,,,,,,,,,,-50.55555556,-53,20,75,-59.55555556,6.555555556,6.555555556,-149.5555556,-0.104444444,-0.4,1,0,0,1.299,submitButton,-0.104444444,-0.398888889,0,0,0,2,7,127,37,1,53,68965,1,180,2022-02-10_10h08.54.674,orientation adjustment 1,2021.2.3,MacIntel,62.5,,,,,,,
,,,,,,,,,,,,,,,,,,,,,,43.88888889,25,20,75,191.8888889,13.11111111,13.11111111,101.8888889,-0.1,-0.392222222,1,0,0,2.567,submitButton,-0.1,-0.392222222,0,0,0,2,8,128,9,1,25,68965,1,180,2022-02-10_10h08.54.674,orientation adjustment 1,2021.2.3,MacIntel,62.5,,,,,,,
,,,,,,,,,,,,,,,,,,,,,,-60,32,20,75,17,15,15,-73,-0.076666667,-0.374444444,1,0,0,0.783,submitButton,-0.161111111,-0.376666667,0,0,0,2,9,129,16,1,32,68965,1,180,2022-02-10_10h08.54.674,orientation adjustment 1,2021.2.3,MacIntel,62.5,,,,,,,
,,,,,,,,,,,,,,,,,,,,,,70.55555556,35,20,75,218.5555556,3.555555556,3.555555556,128.5555556,0.202222222,-0.297777778,1,0,0,1.6,submitButton,-0.125555556,-0.386666667,0,0,0,2,10,130,19,1,35,68965,1,180,2022-02-10_10h08.54.674,orientation adjustment 1,2021.2.3,MacIntel,62.5,,,,,,,
,,,,,,,,,,,,,,,,,,,,,,-41.66666667,-49,20,75,-62.66666667,13.66666667,13.66666667,-152.6666667,-0.145555556,-0.403333333,1,0,0,0.95,submitButton,-0.146666667,-0.403333333,0,0,0,2,11,131,33,1,49,68965,1,180,2022-02-10_10h08.54.674,orientation adjustment 1,2021.2.3,MacIntel,62.5,,,,,,,
,,,,,,,,,,,,,,,,,,,,,,-22.22222222,-46,20,75,-53.22222222,7.222222222,7.222222222,-143.2222222,-0.172222222,-0.402222222,1,0,0,0.667,submitButton,-0.172222222,-0.402222222,0,0,0,2,12,132,30,1,46,68965,1,180,2022-02-10_10h08.54.674,orientation adjustment 1,2021.2.3,MacIntel,62.5,,,,,,,
,,,,,,,,,,,,,,,,,,,,,,-49.44444444,37,20,75,27.55555556,9.444444444,9.444444444,-62.44444444,-0.168888889,-0.415555556,1,0,0,0.816,submitButton,-0.168888889,-0.415555556,0,0,0,2,13,133,21,1,37,68965,1,180,2022-02-10_10h08.54.674,orientation adjustment 1,2021.2.3,MacIntel,62.5,,,,,,,
,,,,,,,,,,,,,,,,,,,,,,62.22222222,65,20,75,246.2222222,1.222222222,1.222222222,156.2222222,0.227777778,-0.288888889,1,0,0,1.483,submitButton,0.173333333,-0.414444444,1,0,0,2,14,134,49,1,65,68965,1,180,2022-02-10_10h08.54.674,orientation adjustment 1,2021.2.3,MacIntel,62.5,pause_continueButton,,,,,,
,,,,,,,,,,,,,,,,,,,,,,52.22222222,-18,20,75,128.2222222,33.77777778,33.77777778,38.22222222,0.211111111,-0.292222222,1,0,0,1.1,submitButton,-0.123333333,-0.401111111,0,0,0,2,15,135,2,1,18,68965,1,180,2022-02-10_10h08.54.674,orientation adjustment 1,2021.2.3,MacIntel,62.5,,,,,,,
,,,,,,,,,,,,,,,,,,,,,,28.33333333,-52,20,75,-42.66666667,9.333333333,9.333333333,-132.6666667,0.351111111,-0.3,1,0,0,0.347,submitButton,0.021111111,-0.327777778,0,0,0,2,16,136,36,1,52,68965,1,180,2022-02-10_10h08.54.674,orientation adjustment 1,2021.2.3,MacIntel,62.5,,,,,,,
,,,,,,,,,,,,,,,,,,,,,,-62.77777778,50,20,75,34.22222222,15.77777778,15.77777778,-55.77777778,-0.15,-0.403333333,1,0,0,0.651,submitButton,-0.151111111,-0.403333333,0,0,0,2,17,137,34,1,50,68965,1,180,2022-02-10_10h08.54.674,orientation adjustment 1,2021.2.3,MacIntel,62.5,,,,,,,
,,,,,,,,,,,,,,,,,,,,,,67.77777778,-39,20,75,-35.22222222,3.777777778,3.777777778,-125.2222222,-0.117777778,-0.391111111,1,0,0,1.466,submitButton,0.087777778,-0.333333333,0,0,0,2,18,138,23,1,39,68965,1,180,2022-02-10_10h08.54.674,orientation adjustment 1,2021.2.3,MacIntel,62.5,,,,,,,
,,,,,,,,,,,,,,,,,,,,,,-30.55555556,34,20,75,36.44444444,2.444444444,2.444444444,-53.55555556,-0.247777778,-0.438888889,1,0,0,0.566,submitButton,-0.234444444,-0.42,0,0,0,2,19,139,18,1,34,68965,1,180,2022-02-10_10h08.54.674,orientation adjustment 1,2021.2.3,MacIntel,62.5,,,,,,,
,,,,,,,,,,,,,,,,,,,,,,33.33333333,-68,20,75,-63.66666667,4.333333333,4.333333333,-153.6666667,-0.118888889,-0.372222222,1,0,0,0.617,submitButton,-0.118888889,-0.372222222,0,0,0,2,20,140,52,1,68,68965,1,180,2022-02-10_10h08.54.674,orientation adjustment 1,2021.2.3,MacIntel,62.5,,,,,,,
,,,,,,,,,,,,,,,,,,,,,,-48.33333333,57,20,75,55.66666667,1.333333333,1.333333333,-34.33333333,-0.108888889,-0.39,1,0,0,0.934,submitButton,-0.108888889,-0.39,0,0,0,2,21,141,41,1,57,68965,1,180,2022-02-10_10h08.54.674,orientation adjustment 1,2021.2.3,MacIntel,62.5,,,,,,,
,,,,,,,,,,,,,,,,,,,,,,-43.88888889,64,20,75,71.11111111,7.111111111,7.111111111,-18.88888889,-0.124444444,-0.391111111,1,0,0,0.818,submitButton,-0.124444444,-0.391111111,0,0,0,2,22,142,48,1,64,68965,1,180,2022-02-10_10h08.54.674,orientation adjustment 1,2021.2.3,MacIntel,62.5,,,,,,,
,,,,,,,,,,,,,,,,,,,,,,-31.66666667,-44,20,75,-59.66666667,15.66666667,15.66666667,-149.6666667,-0.123333333,-0.407777778,1,0,0,1.033,submitButton,-0.123333333,-0.407777778,0,0,0,2,23,143,28,1,44,68965,1,180,2022-02-10_10h08.54.674,orientation adjustment 1,2021.2.3,MacIntel,62.5,,,,,,,
,,,,,,,,,,,,,,,,,,,,,,31.66666667,-73,20,75,-63.33333333,9.666666667,9.666666667,-153.3333333,-0.104444444,-0.417777778,1,0,0,0.687,submitButton,-0.104444444,-0.417777778,0,0,0,2,24,144,57,1,73,68965,1,180,2022-02-10_10h08.54.674,orientation adjustment 1,2021.2.3,MacIntel,62.5,,,,,,,
,,,,,,,,,,,,,,,,,,,,,,-52.22222222,-33,20,75,-59.22222222,26.22222222,26.22222222,-149.2222222,-0.114444444,-0.381111111,1,0,0,0.717,submitButton,-0.114444444,-0.381111111,0,0,0,2,25,145,17,1,33,68965,1,180,2022-02-10_10h08.54.674,orientation adjustment 1,2021.2.3,MacIntel,62.5,,,,,,,
,,,,,,,,,,,,,,,,,,,,,,-55.55555556,-42,20,75,-68.55555556,26.55555556,26.55555556,-158.5555556,-0.134444444,-0.408888889,1,0,0,1.099,submitButton,-0.134444444,-0.408888889,0,0,0,2,26,146,26,1,42,68965,1,180,2022-02-10_10h08.54.674,orientation adjustment 1,2021.2.3,MacIntel,62.5,,,,,,,
,,,,,,,,,,,,,,,,,,,,,,-22.22222222,-47,20,75,-51.22222222,4.222222222,4.222222222,-141.2222222,-0.153333333,-0.396666667,1,0,0,0.451,submitButton,-0.153333333,-0.396666667,0,0,0,2,27,147,31,1,47,68965,1,180,2022-02-10_10h08.54.674,orientation adjustment 1,2021.2.3,MacIntel,62.5,,,,,,,
,,,,,,,,,,,,,,,,,,,,,,-70,-40,20,75,-68,28,28,-158,-0.161111111,-0.388888889,1,0,0,0.732,submitButton,-0.162222222,-0.388888889,0,0,0,2,28,148,24,1,40,68965,1,180,2022-02-10_10h08.54.674,orientation adjustment 1,2021.2.3,MacIntel,62.5,,,,,,,
,,,,,,,,,,,,,,,,,,,,,,-67.77777778,-66,20,75,-73.77777778,7.777777778,7.777777778,-163.7777778,-0.168888889,-0.4,1,0,0,1.282,submitButton,0.177777778,-0.404444444,1,0,0,2,29,149,50,1,66,68965,1,180,2022-02-10_10h08.54.674,orientation adjustment 1,2021.2.3,MacIntel,62.5,pause_continueButton,,,,,,
,,,,,,,,,,,,,,,,,,,,,,-43.88888889,-16,20,75,-39.88888889,23.88888889,23.88888889,-129.8888889,0.191111111,-0.341111111,1,0,0,7.316,submitButton,-0.294444444,-0.402222222,0,0,0,2,30,150,0,1,16,68965,1,180,2022-02-10_10h08.54.674,orientation adjustment 1,2021.2.3,MacIntel,62.5,,,,,,,
,,,,,,,,,,,,,,,,,,,,,,20,-43,20,75,-45,2,2,-135,0.411111111,-0.312222222,1,0,0,0.217,submitButton,-0.186666667,-0.386666667,0,0,0,2,31,151,27,1,43,68965,1,180,2022-02-10_10h08.54.674,orientation adjustment 1,2021.2.3,MacIntel,62.5,,,,,,,
,,,,,,,,,,,,,,,,,,,,,,27.22222222,-19,20,75,-13.77777778,5.222222222,5.222222222,-103.7777778,0.385555556,-0.294444444,1,0,0,0.05,submitButton,0.25,-0.2,0,0,0,2,32,152,3,1,19,68965,1,180,2022-02-10_10h08.54.674,orientation adjustment 1,2021.2.3,MacIntel,62.5,,,,,,,
,,,,,,,,,,,,,,,,,,,,,,-71.66666667,-48,20,75,-87.66666667,39.66666667,39.66666667,-177.6666667,-0.147777778,-0.406666667,1,0,0,1.065,submitButton,-0.137777778,-0.402222222,0,0,0,2,33,153,32,1,48,68965,1,180,2022-02-10_10h08.54.674,orientation adjustment 1,2021.2.3,MacIntel,62.5,,,,,,,
,,,,,,,,,,,,,,,,,,,,,,-26.11111111,-28,20,75,-33.11111111,5.111111111,5.111111111,-123.1111111,-0.154444444,-0.384444444,1,0,0,0.633,submitButton,-0.154444444,-0.384444444,0,0,0,2,34,154,12,1,28,68965,1,180,2022-02-10_10h08.54.674,orientation adjustment 1,2021.2.3,MacIntel,62.5,,,,,,,
,,,,,,,,,,,,,,,,,,,,,,72.77777778,-41,20,75,-32.22222222,8.777777778,8.777777778,-122.2222222,-0.095555556,-0.387777778,1,0,0,1.55,submitButton,-0.162222222,-0.378888889,0,0,0,2,35,155,25,1,41,68965,1,180,2022-02-10_10h08.54.674,orientation adjustment 1,2021.2.3,MacIntel,62.5,,,,,,,
,,,,,,,,,,,,,,,,,,,,,,-25,69,20,75,66,3,3,-24,-0.18,-0.388888889,1,0,0,0.5,submitButton,0.146666667,-0.312222222,0,0,0,2,36,156,53,1,69,68965,1,180,2022-02-10_10h08.54.674,orientation adjustment 1,2021.2.3,MacIntel,62.5,,,,,,,
,,,,,,,,,,,,,,,,,,,,,,-42.77777778,-54,20,75,-65.77777778,11.77777778,11.77777778,-155.7777778,-0.125555556,-0.386666667,1,0,0,0.784,submitButton,-0.125555556,-0.386666667,0,0,0,2,37,157,38,1,54,68965,1,180,2022-02-10_10h08.54.674,orientation adjustment 1,2021.2.3,MacIntel,62.5,,,,,,,
,,,,,,,,,,,,,,,,,,,,,,69.44444444,71,20,75,252.4444444,1.444444444,1.444444444,162.4444444,-0.174444444,-0.358888889,1,0,0,1.882,submitButton,-0.174444444,-0.395555556,0,0,0,2,38,158,55,1,71,68965,1,180,2022-02-10_10h08.54.674,orientation adjustment 1,2021.2.3,MacIntel,62.5,,,,,,,
,,,,,,,,,,,,,,,,,,,,,,-59.44444444,-38,20,75,-66.44444444,28.44444444,28.44444444,-156.4444444,-0.157777778,-0.4,1,0,0,0.749,submitButton,-0.157777778,-0.4,0,0,0,2,39,159,22,1,38,68965,1,180,2022-02-10_10h08.54.674,orientation adjustment 1,2021.2.3,MacIntel,62.5,,,,,,,
,,,,,,,,,,,,,,,,,,,,,,71.11111111,74,20,75,211.1111111,42.88888889,42.88888889,121.1111111,-0.207777778,-0.406666667,1,0,0,1.2,submitButton,0.106666667,-0.291111111,0,0,0,2,40,160,58,1,74,68965,1,180,2022-02-10_10h08.54.674,orientation adjustment 1,2021.2.3,MacIntel,62.5,,,,,,,
,,,,,,,,,,,,,,,,,,,,,,39.44444444,-22,20,75,-27.55555556,5.555555556,5.555555556,-117.5555556,-0.108888889,-0.391111111,1,0,0,1.331,submitButton,-0.108888889,-0.39,0,0,0,2,41,161,6,1,22,68965,1,180,2022-02-10_10h08.54.674,orientation adjustment 1,2021.2.3,MacIntel,62.5,,,,,,,
,,,,,,,,,,,,,,,,,,,,,,24.44444444,-58,20,75,-68.55555556,10.55555556,10.55555556,-158.5555556,-0.136666667,-0.387777778,1,0,0,0.667,submitButton,0.217777778,-0.257777778,0,0,0,2,42,162,42,1,58,68965,1,180,2022-02-10_10h08.54.674,orientation adjustment 1,2021.2.3,MacIntel,62.5,,,,,,,
,,,,,,,,,,,,,,,,,,,,,,-60.55555556,70,20,75,50.44444444,19.55555556,19.55555556,-39.55555556,-0.151111111,-0.413333333,1,0,0,0.65,submitButton,0.532222222,0.5,0,0,0,2,43,163,54,1,70,68965,1,180,2022-02-10_10h08.54.674,orientation adjustment 1,2021.2.3,MacIntel,62.5,,,,,,,
,,,,,,,,,,,,,,,,,,,,,,53.88888889,55,20,75,218.8888889,16.11111111,16.11111111,128.8888889,-0.187777778,-0.432222222,1,0,0,1.784,submitButton,0.394444444,-0.415555556,1,0,0,2,44,164,39,1,55,68965,1,180,2022-02-10_10h08.54.674,orientation adjustment 1,2021.2.3,MacIntel,62.5,pause_continueButton,,,,,,
,,,,,,,,,,,,,,,,,,,,,,58.33333333,-63,20,75,-45.66666667,17.33333333,17.33333333,-135.6666667,-0.132222222,-0.408888889,1,0,0,1.069,submitButton,-0.132222222,-0.408888889,0,0,0,2,45,165,47,1,63,68965,1,180,2022-02-10_10h08.54.674,orientation adjustment 1,2021.2.3,MacIntel,62.5,,,,,,,
,,,,,,,,,,,,,,,,,,,,,,47.22222222,-31,20,75,-31.77777778,0.777777778,0.777777778,-121.7777778,-0.13,-0.386666667,1,0,0,1.016,submitButton,0.2,-0.348888889,0,0,0,2,46,166,15,1,31,68965,1,180,2022-02-10_10h08.54.674,orientation adjustment 1,2021.2.3,MacIntel,62.5,,,,,,,
,,,,,,,,,,,,,,,,,,,,,,59.44444444,-30,20,75,-43.55555556,13.55555556,13.55555556,-133.5555556,-0.24,-0.432222222,1,0,0,1.383,submitButton,0.324444444,0.5,0,0,0,2,47,167,14,1,30,68965,1,180,2022-02-10_10h08.54.674,orientation adjustment 1,2021.2.3,MacIntel,62.5,,,,,,,
,,,,,,,,,,,,,,,,,,,,,,67.77777778,-51,20,75,-52.22222222,1.222222222,1.222222222,-142.2222222,-0.23,-0.392222222,1,0,0,1.15,submitButton,0.107777778,-0.282222222,0,0,0,2,48,168,35,1,51,68965,1,180,2022-02-10_10h08.54.674,orientation adjustment 1,2021.2.3,MacIntel,62.5,,,,,,,
,,,,,,,,,,,,,,,,,,,,,,52.22222222,27,20,75,71.22222222,44.22222222,44.22222222,-18.77777778,0.37,-0.281111111,1,0,0,0.231,submitButton,-0.2,-0.397777778,0,0,0,2,49,169,11,1,27,68965,1,180,2022-02-10_10h08.54.674,orientation adjustment 1,2021.2.3,MacIntel,62.5,,,,,,,
,,,,,,,,,,,,,,,,,,,,,,45,17,20,75,44,27,27,-46,-0.115555556,-0.38,1,0,0,0.967,submitButton,-0.115555556,-0.38,0,0,0,2,50,170,1,1,17,68965,1,180,2022-02-10_10h08.54.674,orientation adjustment 1,2021.2.3,MacIntel,62.5,,,,,,,
,,,,,,,,,,,,,,,,,,,,,,73.88888889,67,20,75,248.8888889,1.888888889,1.888888889,158.8888889,-0.147777778,-0.381111111,1,0,0,2.084,submitButton,-0.148888889,-0.382222222,0,0,0,2,51,171,51,1,67,68965,1,180,2022-02-10_10h08.54.674,orientation adjustment 1,2021.2.3,MacIntel,62.5,,,,,,,
,,,,,,,,,,,,,,,,,,,,,,-67.77777778,-24,20,75,-53.77777778,29.77777778,29.77777778,-143.7777778,0.226666667,-0.286666667,1,0,0,0.016,submitButton,-0.148888889,-0.403333333,0,0,0,2,52,172,8,1,24,68965,1,180,2022-02-10_10h08.54.674,orientation adjustment 1,2021.2.3,MacIntel,62.5,,,,,,,
,,,,,,,,,,,,,,,,,,,,,,23.33333333,-21,20,75,-27.66666667,6.666666667,6.666666667,-117.6666667,-0.103333333,-0.396666667,1,0,0,0.75,submitButton,-0.103333333,-0.396666667,0,0,0,2,53,173,5,1,21,68965,1,180,2022-02-10_10h08.54.674,orientation adjustment 1,2021.2.3,MacIntel,62.5,,,,,,,
,,,,,,,,,,,,,,,,,,,,,,70.55555556,20,20,75,67.55555556,47.55555556,47.55555556,-22.44444444,-0.144444444,-0.403333333,1,0,0,0.765,submitButton,-0.144444444,-0.403333333,0,0,0,2,54,174,4,1,20,68965,1,180,2022-02-10_10h08.54.674,orientation adjustment 1,2021.2.3,MacIntel,62.5,,,,,,,
,,,,,,,,,,,,,,,,,,,,,,-70,75,20,75,47,28,28,-43,-0.195555556,-0.403333333,1,0,0,0.819,submitButton,0.251111111,-0.177777778,0,0,0,2,55,175,59,1,75,68965,1,180,2022-02-10_10h08.54.674,orientation adjustment 1,2021.2.3,MacIntel,62.5,,,,,,,
,,,,,,,,,,,,,,,,,,,,,,70,-56,20,75,-45,11,11,-135,-0.155555556,-0.405555556,1,0,0,1.416,submitButton,0.232222222,-0.242222222,0,0,0,2,56,176,40,1,56,68965,1,180,2022-02-10_10h08.54.674,orientation adjustment 1,2021.2.3,MacIntel,62.5,,,,,,,
,,,,,,,,,,,,,,,,,,,,,,-46.11111111,59,20,75,57.88888889,1.111111111,1.111111111,-32.11111111,-0.165555556,-0.4,1,0,0,0.899,submitButton,0.287777778,-0.324444444,0,0,0,2,57,177,43,1,59,68965,1,180,2022-02-10_10h08.54.674,orientation adjustment 1,2021.2.3,MacIntel,62.5,,,,,,,
,,,,,,,,,,,,,,,,,,,,,,-26.66666667,60,20,75,62.33333333,2.333333333,2.333333333,-27.66666667,-0.131111111,-0.383333333,1,0,0,0.882,submitButton,-0.132222222,-0.381111111,0,0,0,2,58,178,44,1,60,68965,1,180,2022-02-10_10h08.54.674,orientation adjustment 1,2021.2.3,MacIntel,62.5,,,,,,,
,,,,,,,,,,,,,,,,,,,,,,-26.11111111,26,20,75,35.88888889,9.888888889,9.888888889,-54.11111111,-0.158888889,-0.396666667,1,0,0,0.718,submitButton,-0.158888889,-0.396666667,0,0,0,2,59,179,10,1,26,68965,1,180,2022-02-10_10h08.54.674,orientation adjustment 1,2021.2.3,MacIntel,62.5,,,,,,,
,,,,,,,,,,,,,,,,,,,,,,,,,,,,,,,,,,,,,,,,,,,,,,,,68965,1,180,2022-02-10_10h08.54.674,orientation adjustment 1,2021.2.3,MacIntel,62.5,,0.231111111,-0.397777778,1,0,0,EndButtonTxt
