consentMouse1.x,consentMouse1.y,consentMouse1.leftButton,consentMouse1.midButton,consentMouse1.rightButton,consentMouse1.clicked_name,consent_Mouse.x,consent_Mouse.y,consent_Mouse.leftButton,consent_Mouse.midButton,consent_Mouse.rightButton,consent_Mouse.clicked_name,startMouse.x,startMouse.y,startMouse.leftButton,startMouse.midButton,startMouse.rightButton,startMouse_2.x,startMouse_2.y,startMouse_2.leftButton,startMouse_2.midButton,startMouse_2.rightButton,start_distance,fixedOri,minimalDistance,maxOri,this_ori,accuracy,presented_accuracy,presented_this_ori,submitMouse.x,submitMouse.y,submitMouse.leftButton,submitMouse.midButton,submitMouse.rightButton,submitMouse.time,submitMouse.clicked_name,pauseMouse.x,pauseMouse.y,pauseMouse.leftButton,pauseMouse.midButton,pauseMouse.rightButton,trials.thisRepN,trials.thisTrialN,trials.thisN,trials.thisIndex,trials.ran,startOri,participant,condition,nTrials,date,expName,psychopyVersion,OS,frameRate,pauseMouse.clicked_name,EndButtonMouse.x,EndButtonMouse.y,EndButtonMouse.leftButton,EndButtonMouse.midButton,EndButtonMouse.rightButton,EndButtonMouse.clicked_name
0.333658295,-0.406519699,1,0,0,consent_button1,0.378156433,-0.404953003,1,0,0,consent_button,0.250056839,-0.28450264,1,0,0,0.188823395,-0.41359581,1,0,0,55.55555556,-25,20,75,-18.44444444,6.555555556,6.555555556,-108.4444444,0.39409729,-0.292382584,1,0,0,6.7143,submitButton,-0.102849655,-0.379256973,0,0,0,0,0,0,9,1,25,69058,1,180,2022-02-21_17h56.52.226,orientation adjustment 1,2021.2.3,MacIntel,59.97361161,,,,,,,
,,,,,,,,,,,,,,,,,,,,,,-33.33333333,-17,20,75,-29.33333333,12.33333333,12.33333333,-119.3333333,0.223616333,-0.301629486,1,0,0,0.1159,submitButton,-0.214549713,-0.406620636,0,0,0,0,1,1,1,1,17,69058,1,180,2022-02-21_17h56.52.226,orientation adjustment 1,2021.2.3,MacIntel,59.97361161,,,,,,,
,,,,,,,,,,,,,,,,,,,,,,35,52,20,75,212,20,20,122,0.216752319,-0.304949951,1,0,0,0.0689,submitButton,-0.254269867,-0.4109729,0,0,0,0,2,2,36,1,52,69058,1,180,2022-02-21_17h56.52.226,orientation adjustment 1,2021.2.3,MacIntel,59.97361161,,,,,,,
,,,,,,,,,,,,,,,,,,,,,,52.77777778,64,20,75,239.7777778,4.222222222,4.222222222,149.7777778,0.192788773,-0.298844528,1,0,0,1.9487,submitButton,-0.157759247,-0.384662323,0,0,0,0,3,3,48,1,64,69058,1,180,2022-02-21_17h56.52.226,orientation adjustment 1,2021.2.3,MacIntel,59.97361161,,,,,,,
,,,,,,,,,,,,,,,,,,,,,,-26.66666667,21,20,75,27.33333333,6.333333333,6.333333333,-62.66666667,0.205363159,-0.269526367,1,0,0,0.0647,submitButton,-0.224120483,-0.411551819,0,0,0,0,4,4,5,1,21,69058,1,180,2022-02-21_17h56.52.226,orientation adjustment 1,2021.2.3,MacIntel,59.97361161,,,,,,,
,,,,,,,,,,,,,,,,,,,,,,-41.66666667,-72,20,75,-210.6666667,41.33333333,41.33333333,-300.6666667,0.405546112,-0.290383224,1,0,0,1.9453,submitButton,-0.00401535,-0.473939972,0,0,0,0,5,5,56,1,72,69058,1,180,2022-02-21_17h56.52.226,orientation adjustment 1,2021.2.3,MacIntel,59.97361161,,,,,,,
,,,,,,,,,,,,,,,,,,,,,,71.66666667,75,20,75,257.6666667,2.666666667,2.666666667,167.6666667,0.194990692,-0.302583008,1,0,0,1.7227,submitButton,-0.175341034,-0.367393951,0,0,0,0,6,6,59,1,75,69058,1,180,2022-02-21_17h56.52.226,orientation adjustment 1,2021.2.3,MacIntel,59.97361161,,,,,,,
,,,,,,,,,,,,,,,,,,,,,,73.33333333,24,20,75,195.3333333,8.666666667,8.666666667,105.3333333,-0.215294113,-0.419398804,1,0,0,1.5111,submitButton,-0.127257996,-0.385730591,0,0,0,0,7,7,8,1,24,69058,1,180,2022-02-21_17h56.52.226,orientation adjustment 1,2021.2.3,MacIntel,59.97361161,,,,,,,
,,,,,,,,,,,,,,,,,,,,,,33.33333333,58,20,75,209.3333333,28.66666667,28.66666667,119.3333333,-0.226933212,-0.436753159,1,0,0,1.9962,submitButton,-0.227920074,-0.398221664,0,0,0,0,8,8,42,1,58,69058,1,180,2022-02-21_17h56.52.226,orientation adjustment 1,2021.2.3,MacIntel,59.97361161,,,,,,,
,,,,,,,,,,,,,,,,,,,,,,-25.55555556,20,20,75,22.44444444,2.444444444,2.444444444,-67.55555556,-0.301073227,-0.456568909,1,0,0,1.1866,submitButton,-0.292995071,-0.42383812,0,0,0,0,9,9,4,1,20,69058,1,180,2022-02-21_17h56.52.226,orientation adjustment 1,2021.2.3,MacIntel,59.97361161,,,,,,,
,,,,,,,,,,,,,,,,,,,,,,53.88888889,61,20,75,239.8888889,1.111111111,1.111111111,149.8888889,0.163334579,-0.329502182,1,0,0,1.8865,submitButton,-0.189579811,-0.372493362,0,0,0,0,10,10,45,1,61,69058,1,180,2022-02-21_17h56.52.226,orientation adjustment 1,2021.2.3,MacIntel,59.97361161,,,,,,,
,,,,,,,,,,,,,,,,,,,,,,54.44444444,-41,20,75,-21.55555556,19.44444444,19.44444444,-111.5555556,-0.231315002,-0.408780899,1,0,0,0.9108,submitButton,-0.204865646,-0.385575027,0,0,0,0,11,11,25,1,41,69058,1,180,2022-02-21_17h56.52.226,orientation adjustment 1,2021.2.3,MacIntel,59.97361161,,,,,,,
,,,,,,,,,,,,,,,,,,,,,,-28.33333333,50,20,75,34.66666667,15.33333333,15.33333333,-55.33333333,0.192159576,-0.284969559,1,0,0,0.4009,submitButton,-0.243180923,-0.390454102,0,0,0,0,12,12,34,1,50,69058,1,180,2022-02-21_17h56.52.226,orientation adjustment 1,2021.2.3,MacIntel,59.97361161,,,,,,,
,,,,,,,,,,,,,,,,,,,,,,45.55555556,43,20,75,224.5555556,1.555555556,1.555555556,134.5555556,0.201455383,-0.298574295,1,0,0,1.7343,submitButton,-0.152896652,-0.399275284,0,0,0,0,13,13,27,1,43,69058,1,180,2022-02-21_17h56.52.226,orientation adjustment 1,2021.2.3,MacIntel,59.97361161,,,,,,,
,,,,,,,,,,,,,,,,,,,,,,-52.22222222,67,20,75,65.77777778,1.222222222,1.222222222,-24.22222222,-0.251968384,-0.387999573,1,0,0,0.7988,submitButton,0.32263298,-0.402922592,1,0,0,0,14,14,51,1,67,69058,1,180,2022-02-21_17h56.52.226,orientation adjustment 1,2021.2.3,MacIntel,59.97361161,pause_continueButton,,,,,,
,,,,,,,,,,,,,,,,,,,,,,-73.88888889,30,20,75,8.111111111,21.88888889,21.88888889,-81.88888889,-0.271264343,-0.429311142,1,0,0,0.6856,submitButton,0.499126892,-0.193464127,0,0,0,0,15,15,14,1,30,69058,1,180,2022-02-21_17h56.52.226,orientation adjustment 1,2021.2.3,MacIntel,59.97361161,,,,,,,
,,,,,,,,,,,,,,,,,,,,,,-48.33333333,23,20,75,25.66666667,2.666666667,2.666666667,-64.33333333,-0.255597839,-0.394997253,1,0,0,0.6621,submitButton,-0.254715271,-0.394997253,0,0,0,0,16,16,7,1,23,69058,1,180,2022-02-21_17h56.52.226,orientation adjustment 1,2021.2.3,MacIntel,59.97361161,,,,,,,
,,,,,,,,,,,,,,,,,,,,,,73.88888889,49,20,75,203.8888889,25.11111111,25.11111111,113.8888889,0.191247101,-0.316878738,1,0,0,1.0652,submitButton,-0.152527771,-0.387947235,0,0,0,0,17,17,33,1,49,69058,1,180,2022-02-21_17h56.52.226,orientation adjustment 1,2021.2.3,MacIntel,59.97361161,,,,,,,
,,,,,,,,,,,,,,,,,,,,,,71.66666667,-73,20,75,-47.33333333,25.66666667,25.66666667,-137.3333333,-0.28768898,-0.394294205,1,0,0,1.0017,submitButton,-0.37400959,-0.265155716,0,0,0,0,18,18,57,1,73,69058,1,180,2022-02-21_17h56.52.226,orientation adjustment 1,2021.2.3,MacIntel,59.97361161,,,,,,,
,,,,,,,,,,,,,,,,,,,,,,21.66666667,60,20,75,70.66666667,10.66666667,10.66666667,-19.33333333,0.378163834,-0.281071167,1,0,0,0.4154,submitButton,-0.207839127,-0.401380615,0,0,0,0,19,19,44,1,60,69058,1,180,2022-02-21_17h56.52.226,orientation adjustment 1,2021.2.3,MacIntel,59.97361161,,,,,,,
,,,,,,,,,,,,,,,,,,,,,,31.66666667,-65,20,75,-56.33333333,8.666666667,8.666666667,-146.3333333,-0.377087402,-0.416478729,1,0,0,0.5337,submitButton,-0.377087402,-0.416478729,0,0,0,0,20,20,49,1,65,69058,1,180,2022-02-21_17h56.52.226,orientation adjustment 1,2021.2.3,MacIntel,59.97361161,,,,,,,
,,,,,,,,,,,,,,,,,,,,,,62.22222222,-34,20,75,28.22222222,62.22222222,62.22222222,-61.77777778,-0.492069778,-0.424320679,1,0,0,0.1415,submitButton,-0.492069778,-0.424320679,0,0,0,0,21,21,18,1,34,69058,1,180,2022-02-21_17h56.52.226,orientation adjustment 1,2021.2.3,MacIntel,59.97361161,,,,,,,
,,,,,,,,,,,,,,,,,,,,,,72.77777778,-18,20,75,-27.22222222,9.222222222,9.222222222,-117.2222222,0.397349243,-0.287305756,1,0,0,1.1513,submitButton,-0.16722496,-0.409773788,0,0,0,0,22,22,2,1,18,69058,1,180,2022-02-21_17h56.52.226,orientation adjustment 1,2021.2.3,MacIntel,59.97361161,,,,,,,
,,,,,,,,,,,,,,,,,,,,,,60.55555556,54,20,75,68.55555556,14.55555556,14.55555556,-21.44444444,0.400376663,-0.268091354,1,0,0,0.8391,submitButton,-0.210388489,-0.38387619,0,0,0,0,23,23,38,1,54,69058,1,180,2022-02-21_17h56.52.226,orientation adjustment 1,2021.2.3,MacIntel,59.97361161,,,,,,,
,,,,,,,,,,,,,,,,,,,,,,-71.11111111,22,20,75,19.88888889,2.111111111,2.111111111,-70.11111111,0.230552979,-0.28708519,1,0,0,0.577,submitButton,-0.193743248,-0.359648743,0,0,0,0,24,24,6,1,22,69058,1,180,2022-02-21_17h56.52.226,orientation adjustment 1,2021.2.3,MacIntel,59.97361161,,,,,,,
,,,,,,,,,,,,,,,,,,,,,,58.33333333,45,20,75,214.3333333,10.66666667,10.66666667,124.3333333,-0.211968384,-0.420224533,1,0,0,2.2035,submitButton,-0.216728592,-0.423150024,0,0,0,0,25,25,29,1,45,69058,1,180,2022-02-21_17h56.52.226,orientation adjustment 1,2021.2.3,MacIntel,59.97361161,,,,,,,
,,,,,,,,,,,,,,,,,,,,,,-45,-38,20,75,-25,13,13,-115,0.189424133,-0.285799408,1,0,0,0.0475,submitButton,-0.245832825,-0.418644867,0,0,0,0,26,26,22,1,38,69058,1,180,2022-02-21_17h56.52.226,orientation adjustment 1,2021.2.3,MacIntel,59.97361161,,,,,,,
,,,,,,,,,,,,,,,,,,,,,,-70.55555556,-71,20,75,-215.5555556,35.44444444,35.44444444,-305.5555556,-0.136447296,-0.407754745,1,0,0,1.6629,submitButton,-0.136447296,-0.407754745,0,0,0,0,27,27,55,1,71,69058,1,180,2022-02-21_17h56.52.226,orientation adjustment 1,2021.2.3,MacIntel,59.97361161,,,,,,,
,,,,,,,,,,,,,,,,,,,,,,53.33333333,56,20,75,50.33333333,5.666666667,5.666666667,-39.66666667,0.376901779,-0.29252327,1,0,0,0.2288,submitButton,-0.319347801,-0.38703392,0,0,0,0,28,28,40,1,56,69058,1,180,2022-02-21_17h56.52.226,orientation adjustment 1,2021.2.3,MacIntel,59.97361161,,,,,,,
,,,,,,,,,,,,,,,,,,,,,,-27.22222222,-74,20,75,-57.22222222,16.77777778,16.77777778,-147.2222222,0.180596313,-0.262164154,1,0,0,1.2666,submitButton,0.337485046,-0.390896988,1,0,0,0,29,29,58,1,74,69058,1,180,2022-02-21_17h56.52.226,orientation adjustment 1,2021.2.3,MacIntel,59.97361161,pause_continueButton,,,,,,
,,,,,,,,,,,,,,,,,,,,,,59.44444444,19,20,75,19.44444444,0.444444444,0.444444444,-70.55555556,0.403703079,-0.279150467,1,0,0,0.0554,submitButton,-0.201064377,-0.416919403,0,0,0,0,30,30,3,1,19,69058,1,180,2022-02-21_17h56.52.226,orientation adjustment 1,2021.2.3,MacIntel,59.97361161,,,,,,,
,,,,,,,,,,,,,,,,,,,,,,48.33333333,-40,20,75,-28.66666667,11.33333333,11.33333333,-118.6666667,-0.320778389,-0.46436554,1,0,0,1.0848,submitButton,-0.299154205,-0.392278748,0,0,0,0,31,31,24,1,40,69058,1,180,2022-02-21_17h56.52.226,orientation adjustment 1,2021.2.3,MacIntel,59.97361161,,,,,,,
,,,,,,,,,,,,,,,,,,,,,,-64.44444444,59,20,75,35.55555556,23.44444444,23.44444444,-54.44444444,-0.353284111,-0.366333084,1,0,0,0.9498,submitButton,-0.327335739,-0.422758102,0,0,0,0,32,32,43,1,59,69058,1,180,2022-02-21_17h56.52.226,orientation adjustment 1,2021.2.3,MacIntel,59.97361161,,,,,,,
,,,,,,,,,,,,,,,,,,,,,,44.44444444,-63,20,75,-38.55555556,24.44444444,24.44444444,-128.5555556,0.427591553,-0.293116837,1,0,0,0.0783,submitButton,-0.262845459,-0.417951431,0,0,0,0,33,33,47,1,63,69058,1,180,2022-02-21_17h56.52.226,orientation adjustment 1,2021.2.3,MacIntel,59.97361161,,,,,,,
,,,,,,,,,,,,,,,,,,,,,,-21.66666667,68,20,75,54.33333333,13.66666667,13.66666667,-35.66666667,0.368837128,-0.300705109,1,0,0,0.1361,submitButton,-0.301134949,-0.403686371,0,0,0,0,34,34,52,1,68,69058,1,180,2022-02-21_17h56.52.226,orientation adjustment 1,2021.2.3,MacIntel,59.97361161,,,,,,,
,,,,,,,,,,,,,,,,,,,,,,-62.77777778,47,20,75,36.22222222,10.77777778,10.77777778,-53.77777778,-0.291236305,-0.383656998,1,0,0,1.116,submitButton,-0.291236305,-0.383656998,0,0,0,0,35,35,31,1,47,69058,1,180,2022-02-21_17h56.52.226,orientation adjustment 1,2021.2.3,MacIntel,59.97361161,,,,,,,
,,,,,,,,,,,,,,,,,,,,,,-41.11111111,-32,20,75,-30.11111111,1.888888889,1.888888889,-120.1111111,0.193548889,-0.319034119,1,0,0,0.2031,submitButton,-0.252327194,-0.407643204,0,0,0,0,36,36,16,1,32,69058,1,180,2022-02-21_17h56.52.226,orientation adjustment 1,2021.2.3,MacIntel,59.97361161,,,,,,,
,,,,,,,,,,,,,,,,,,,,,,-45.55555556,39,20,75,29.44444444,9.555555556,9.555555556,-60.55555556,0.191843491,-0.308540955,1,0,0,2.0898,submitButton,-0.298646622,-0.390828552,0,0,0,0,37,37,23,1,39,69058,1,180,2022-02-21_17h56.52.226,orientation adjustment 1,2021.2.3,MacIntel,59.97361161,,,,,,,
,,,,,,,,,,,,,,,,,,,,,,35.55555556,16,20,75,51.55555556,35.55555556,35.55555556,-38.44444444,-0.328643417,-0.405082397,1,0,0,1.239,submitButton,-0.325558052,-0.402017365,0,0,0,0,38,38,0,1,16,69058,1,180,2022-02-21_17h56.52.226,orientation adjustment 1,2021.2.3,MacIntel,59.97361161,,,,,,,
,,,,,,,,,,,,,,,,,,,,,,-23.88888889,55,20,75,53.11111111,1.888888889,1.888888889,-36.88888889,-0.38897049,-0.37390564,1,0,0,0.8584,submitButton,-0.38897049,-0.41244873,0,0,0,0,39,39,39,1,55,69058,1,180,2022-02-21_17h56.52.226,orientation adjustment 1,2021.2.3,MacIntel,59.97361161,,,,,,,
,,,,,,,,,,,,,,,,,,,,,,32.77777778,-53,20,75,-45.22222222,7.777777778,7.777777778,-135.2222222,-0.399896698,-0.395253448,1,0,0,0.6365,submitButton,-0.391089478,-0.383650513,0,0,0,0,40,40,37,1,53,69058,1,180,2022-02-21_17h56.52.226,orientation adjustment 1,2021.2.3,MacIntel,59.97361161,,,,,,,
,,,,,,,,,,,,,,,,,,,,,,39.44444444,57,20,75,96.44444444,39.44444444,39.44444444,6.444444444,-0.240827713,-0.400970993,1,0,0,0.8795,submitButton,-0.226066132,-0.370844574,0,0,0,0,41,41,41,1,57,69058,1,180,2022-02-21_17h56.52.226,orientation adjustment 1,2021.2.3,MacIntel,59.97361161,,,,,,,
,,,,,,,,,,,,,,,,,,,,,,-63.88888889,-44,20,75,-51.88888889,7.888888889,7.888888889,-141.8888889,-0.271396713,-0.382033691,1,0,0,1.417,submitButton,-0.262173615,-0.379083328,0,0,0,0,42,42,28,1,44,69058,1,180,2022-02-21_17h56.52.226,orientation adjustment 1,2021.2.3,MacIntel,59.97361161,,,,,,,
,,,,,,,,,,,,,,,,,,,,,,71.66666667,69,20,75,232.6666667,16.33333333,16.33333333,142.6666667,-0.284843597,-0.412086105,1,0,0,1.8536,submitButton,-0.278337555,-0.407206573,0,0,0,0,43,43,53,1,69,69058,1,180,2022-02-21_17h56.52.226,orientation adjustment 1,2021.2.3,MacIntel,59.97361161,,,,,,,
,,,,,,,,,,,,,,,,,,,,,,-45.55555556,-28,20,75,-19.55555556,8.444444444,8.444444444,-109.5555556,-0.27200676,-0.379757614,1,0,0,1.4697,submitButton,0.485644836,-0.404941635,1,0,0,0,44,44,12,1,28,69058,1,180,2022-02-21_17h56.52.226,orientation adjustment 1,2021.2.3,MacIntel,59.97361161,pause_continueButton,,,,,,
,,,,,,,,,,,,,,,,,,,,,,42.77777778,-62,20,75,-49.22222222,12.77777778,12.77777778,-139.2222222,-0.5405336,-0.420095444,1,0,0,0.9015,submitButton,-0.5405336,-0.420095444,0,0,0,0,45,45,46,1,62,69058,1,180,2022-02-21_17h56.52.226,orientation adjustment 1,2021.2.3,MacIntel,59.97361161,,,,,,,
,,,,,,,,,,,,,,,,,,,,,,24.44444444,-48,20,75,-52.55555556,4.555555556,4.555555556,-142.5555556,0.372394638,-0.320669556,1,0,0,0.0662,submitButton,-0.549235439,-0.427606583,0,0,0,0,46,46,32,1,48,69058,1,180,2022-02-21_17h56.52.226,orientation adjustment 1,2021.2.3,MacIntel,59.97361161,,,,,,,
,,,,,,,,,,,,,,,,,,,,,,-50.55555556,-29,20,75,-45.55555556,16.55555556,16.55555556,-135.5555556,0.164492645,-0.283801956,1,0,0,0.1453,submitButton,-0.156912613,-0.31404808,0,0,0,0,47,47,13,1,29,69058,1,180,2022-02-21_17h56.52.226,orientation adjustment 1,2021.2.3,MacIntel,59.97361161,,,,,,,
,,,,,,,,,,,,,,,,,,,,,,-36.11111111,-36,20,75,-43.11111111,7.111111111,7.111111111,-133.1111111,0.186134033,-0.326571579,1,0,0,0.2173,submitButton,-0.386469879,-0.385309982,0,0,0,0,48,48,20,1,36,69058,1,180,2022-02-21_17h56.52.226,orientation adjustment 1,2021.2.3,MacIntel,59.97361161,,,,,,,
,,,,,,,,,,,,,,,,,,,,,,-62.22222222,42,20,75,28.77777778,13.22222222,13.22222222,-61.22222222,0.199115067,-0.316365738,1,0,0,3.5991,submitButton,-0.064093781,-0.297271652,0,0,0,0,49,49,26,1,42,69058,1,180,2022-02-21_17h56.52.226,orientation adjustment 1,2021.2.3,MacIntel,59.97361161,,,,,,,
,,,,,,,,,,,,,,,,,,,,,,66.66666667,-51,20,75,-29.33333333,21.66666667,21.66666667,-119.3333333,0.443784943,-0.313181458,1,0,0,0.5836,submitButton,-0.204216385,-0.411259766,0,0,0,0,50,50,35,1,51,69058,1,180,2022-02-21_17h56.52.226,orientation adjustment 1,2021.2.3,MacIntel,59.97361161,,,,,,,
,,,,,,,,,,,,,,,,,,,,,,-50.55555556,35,20,75,30.44444444,4.555555556,4.555555556,-59.55555556,-0.24847435,-0.427749557,1,0,0,0.8852,submitButton,-0.247046394,-0.427749557,0,0,0,0,51,51,19,1,35,69058,1,180,2022-02-21_17h56.52.226,orientation adjustment 1,2021.2.3,MacIntel,59.97361161,,,,,,,
,,,,,,,,,,,,,,,,,,,,,,-49.44444444,-31,20,75,-80.44444444,49.44444444,49.44444444,-170.4444444,-0.309797935,-0.393196259,1,0,0,3.2677,submitButton,-0.309797935,-0.393196259,0,0,0,0,52,52,15,1,31,69058,1,180,2022-02-21_17h56.52.226,orientation adjustment 1,2021.2.3,MacIntel,59.97361161,,,,,,,
,,,,,,,,,,,,,,,,,,,,,,-36.11111111,-70,20,75,-67.11111111,2.888888889,2.888888889,-157.1111111,0.165585022,-0.292770004,1,0,0,0.3132,submitButton,-0.399911346,-0.38290863,0,0,0,0,53,53,54,1,70,69058,1,180,2022-02-21_17h56.52.226,orientation adjustment 1,2021.2.3,MacIntel,59.97361161,,,,,,,
,,,,,,,,,,,,,,,,,,,,,,-62.77777778,-26,20,75,-20.77777778,5.222222222,5.222222222,-110.7777778,0.169051971,-0.293841705,1,0,0,0.8505,submitButton,-0.326851349,-0.428182907,0,0,0,0,54,54,10,1,26,69058,1,180,2022-02-21_17h56.52.226,orientation adjustment 1,2021.2.3,MacIntel,59.97361161,,,,,,,
,,,,,,,,,,,,,,,,,,,,,,-57.77777778,-46,20,75,-36.77777778,9.222222222,9.222222222,-126.7777778,0.156486053,-0.314690094,1,0,0,3.0188,submitButton,-0.216428986,-0.421361847,0,0,0,0,55,55,30,1,46,69058,1,180,2022-02-21_17h56.52.226,orientation adjustment 1,2021.2.3,MacIntel,59.97361161,,,,,,,
,,,,,,,,,,,,,,,,,,,,,,36.11111111,37,20,75,35.11111111,1.888888889,1.888888889,-54.88888889,0.366772461,-0.279524689,1,0,0,0.363,submitButton,-0.396921997,-0.38506485,0,0,0,0,56,56,21,1,37,69058,1,180,2022-02-21_17h56.52.226,orientation adjustment 1,2021.2.3,MacIntel,59.97361161,,,,,,,
,,,,,,,,,,,,,,,,,,,,,,-52.22222222,-27,20,75,-19.22222222,7.777777778,7.777777778,-109.2222222,0.214103622,-0.298341751,1,0,0,0.6666,submitButton,-0.196591263,-0.454841156,0,0,0,0,57,57,11,1,27,69058,1,180,2022-02-21_17h56.52.226,orientation adjustment 1,2021.2.3,MacIntel,59.97361161,,,,,,,
,,,,,,,,,,,,,,,,,,,,,,52.22222222,66,20,75,225.2222222,20.77777778,20.77777778,135.2222222,0.206198578,-0.307778778,1,0,0,0.2253,submitButton,-0.273331375,-0.409596405,0,0,0,0,58,58,50,1,66,69058,1,180,2022-02-21_17h56.52.226,orientation adjustment 1,2021.2.3,MacIntel,59.97361161,,,,,,,
,,,,,,,,,,,,,,,,,,,,,,48.33333333,-33,20,75,-20.66666667,12.33333333,12.33333333,-110.6666667,-0.209384193,-0.37704071,1,0,0,1.4368,submitButton,0.470441208,-0.404719696,1,0,0,0,59,59,17,1,33,69058,1,180,2022-02-21_17h56.52.226,orientation adjustment 1,2021.2.3,MacIntel,59.97361161,pause_continueButton,,,,,,
,,,,,,,,,,,,,,,,,,,,,,-73.33333333,-38,20,75,-36.33333333,1.666666667,1.666666667,-126.3333333,0.17795372,-0.313928375,1,0,0,1.4493,submitButton,-0.264484329,-0.401290894,0,0,0,1,0,60,22,1,38,69058,1,180,2022-02-21_17h56.52.226,orientation adjustment 1,2021.2.3,MacIntel,59.97361161,,,,,,,
,,,,,,,,,,,,,,,,,,,,,,-22.22222222,-19,20,75,-28.22222222,9.222222222,9.222222222,-118.2222222,-0.301420059,-0.430565414,1,0,0,0.4521,submitButton,-0.290635757,-0.393685837,0,0,0,1,1,61,3,1,19,69058,1,180,2022-02-21_17h56.52.226,orientation adjustment 1,2021.2.3,MacIntel,59.97361161,,,,,,,
,,,,,,,,,,,,,,,,,,,,,,22.77777778,-23,20,75,-31.22222222,8.222222222,8.222222222,-121.2222222,0.382700653,-0.304750824,1,0,0,0.6008,submitButton,-0.248802032,-0.406523056,0,0,0,1,2,62,7,1,23,69058,1,180,2022-02-21_17h56.52.226,orientation adjustment 1,2021.2.3,MacIntel,59.97361161,,,,,,,
,,,,,,,,,,,,,,,,,,,,,,68.88888889,59,20,75,127.8888889,68.88888889,68.88888889,37.88888889,-0.382370529,-0.398807068,1,0,0,1.139,submitButton,-0.3667836,-0.398807068,0,0,0,1,3,63,43,1,59,69058,1,180,2022-02-21_17h56.52.226,orientation adjustment 1,2021.2.3,MacIntel,59.97361161,,,,,,,
,,,,,,,,,,,,,,,,,,,,,,26.66666667,-48,20,75,-47.33333333,0.666666667,0.666666667,-137.3333333,0.363179626,-0.272021255,1,0,0,0.3144,submitButton,-0.324048233,-0.499980469,0,0,0,1,4,64,32,1,48,69058,1,180,2022-02-21_17h56.52.226,orientation adjustment 1,2021.2.3,MacIntel,59.97361161,,,,,,,
,,,,,,,,,,,,,,,,,,,,,,-56.11111111,60,20,75,43.88888889,16.11111111,16.11111111,-46.11111111,-0.228685112,-0.405951385,1,0,0,1.0362,submitButton,-0.228685112,-0.405951385,0,0,0,1,5,65,44,1,60,69058,1,180,2022-02-21_17h56.52.226,orientation adjustment 1,2021.2.3,MacIntel,59.97361161,,,,,,,
,,,,,,,,,,,,,,,,,,,,,,20.55555556,-45,20,75,-52.44444444,7.444444444,7.444444444,-142.4444444,-0.184226837,-0.383274689,1,0,0,0.9176,submitButton,-0.184226837,-0.383274689,0,0,0,1,6,66,29,1,45,69058,1,180,2022-02-21_17h56.52.226,orientation adjustment 1,2021.2.3,MacIntel,59.97361161,,,,,,,
,,,,,,,,,,,,,,,,,,,,,,-54.44444444,-64,20,75,-215.4444444,28.55555556,28.55555556,-305.4444444,-0.274278641,-0.398393326,1,0,0,1.8671,submitButton,-0.274685287,-0.397104111,0,0,0,1,7,67,48,1,64,69058,1,180,2022-02-21_17h56.52.226,orientation adjustment 1,2021.2.3,MacIntel,59.97361161,,,,,,,
,,,,,,,,,,,,,,,,,,,,,,-38.33333333,33,20,75,22.66666667,10.33333333,10.33333333,-67.33333333,-0.312308578,-0.433887558,1,0,0,0.4641,submitButton,-0.321094437,-0.40118454,0,0,0,1,8,68,17,1,33,69058,1,180,2022-02-21_17h56.52.226,orientation adjustment 1,2021.2.3,MacIntel,59.97361161,,,,,,,
,,,,,,,,,,,,,,,,,,,,,,-53.88888889,39,20,75,21.11111111,17.88888889,17.88888889,-68.88888889,-0.241468353,-0.395181885,1,0,0,0.9015,submitButton,-0.242896271,-0.395181885,0,0,0,1,9,69,23,1,39,69058,1,180,2022-02-21_17h56.52.226,orientation adjustment 1,2021.2.3,MacIntel,59.97361161,,,,,,,
,,,,,,,,,,,,,,,,,,,,,,31.11111111,63,20,75,238.1111111,4.888888889,4.888888889,148.1111111,-0.240226746,-0.424488449,1,0,0,2.7514,submitButton,-0.241040001,-0.424488449,0,0,0,1,10,70,47,1,63,69058,1,180,2022-02-21_17h56.52.226,orientation adjustment 1,2021.2.3,MacIntel,59.97361161,,,,,,,
,,,,,,,,,,,,,,,,,,,,,,44.44444444,75,20,75,77.44444444,2.444444444,2.444444444,-12.55555556,0.397388458,-0.291849899,1,0,0,0.256,submitButton,-0.261596146,-0.378757935,0,0,0,1,11,71,59,1,75,69058,1,180,2022-02-21_17h56.52.226,orientation adjustment 1,2021.2.3,MacIntel,59.97361161,,,,,,,
,,,,,,,,,,,,,,,,,,,,,,-35.55555556,26,20,75,35.44444444,9.444444444,9.444444444,-54.55555556,-0.194339485,-0.385108414,1,0,0,1.2824,submitButton,-0.204505157,-0.376162567,0,0,0,1,12,72,10,1,26,69058,1,180,2022-02-21_17h56.52.226,orientation adjustment 1,2021.2.3,MacIntel,59.97361161,,,,,,,
,,,,,,,,,,,,,,,,,,,,,,-67.22222222,49,20,75,35.77777778,13.22222222,13.22222222,-54.22222222,-0.293506851,-0.403044662,1,0,0,1.1503,submitButton,-0.293506851,-0.403044662,0,0,0,1,13,73,33,1,49,69058,1,180,2022-02-21_17h56.52.226,orientation adjustment 1,2021.2.3,MacIntel,59.97361161,,,,,,,
,,,,,,,,,,,,,,,,,,,,,,44.44444444,-31,20,75,-34.55555556,3.555555556,3.555555556,-124.5555556,0.382451477,-0.288941345,1,0,0,0.0181,submitButton,0.34514679,-0.403283691,1,0,0,1,14,74,15,1,31,69058,1,180,2022-02-21_17h56.52.226,orientation adjustment 1,2021.2.3,MacIntel,59.97361161,pause_continueButton,,,,,,
,,,,,,,,,,,,,,,,,,,,,,-47.77777778,-61,20,75,-108.7777778,47.77777778,47.77777778,-198.7777778,-0.278888206,-0.402819901,1,0,0,1.4852,submitButton,0.144014587,-0.149392014,0,0,0,1,15,75,45,1,61,69058,1,180,2022-02-21_17h56.52.226,orientation adjustment 1,2021.2.3,MacIntel,59.97361161,,,,,,,
,,,,,,,,,,,,,,,,,,,,,,30.55555556,-54,20,75,-43.44444444,10.55555556,10.55555556,-133.4444444,0.397002563,-0.286943893,1,0,0,0.1035,submitButton,-0.338878174,-0.4150457,0,0,0,1,16,76,38,1,54,69058,1,180,2022-02-21_17h56.52.226,orientation adjustment 1,2021.2.3,MacIntel,59.97361161,,,,,,,
,,,,,,,,,,,,,,,,,,,,,,37.77777778,41,20,75,53.77777778,12.77777778,12.77777778,-36.22222222,0.383661728,-0.302152939,1,0,0,0.1856,submitButton,-0.211436157,-0.394957275,0,0,0,1,17,77,25,1,41,69058,1,180,2022-02-21_17h56.52.226,orientation adjustment 1,2021.2.3,MacIntel,59.97361161,,,,,,,
,,,,,,,,,,,,,,,,,,,,,,-68.88888889,-65,20,75,-221.8888889,23.11111111,23.11111111,-311.8888889,-0.237658806,-0.397641144,1,0,0,1.9523,submitButton,-0.236845551,-0.399267654,0,0,0,1,18,78,49,1,65,69058,1,180,2022-02-21_17h56.52.226,orientation adjustment 1,2021.2.3,MacIntel,59.97361161,,,,,,,
,,,,,,,,,,,,,,,,,,,,,,-57.22222222,43,20,75,42.77777778,0.222222222,0.222222222,-47.22222222,-0.261539459,-0.386987534,1,0,0,0.8002,submitButton,-0.261539459,-0.386987534,0,0,0,1,19,79,27,1,43,69058,1,180,2022-02-21_17h56.52.226,orientation adjustment 1,2021.2.3,MacIntel,59.97361161,,,,,,,
,,,,,,,,,,,,,,,,,,,,,,-22.22222222,-27,20,75,-34.22222222,7.222222222,7.222222222,-124.2222222,0.169189453,-0.325046539,1,0,0,0.0173,submitButton,-0.180883636,-0.397745514,0,0,0,1,20,80,11,1,27,69058,1,180,2022-02-21_17h56.52.226,orientation adjustment 1,2021.2.3,MacIntel,59.97361161,,,,,,,
,,,,,,,,,,,,,,,,,,,,,,-20,29,20,75,27,2,2,-63,0.195210419,-0.29912941,1,0,0,0.1926,submitButton,-0.294788132,-0.401214218,0,0,0,1,21,81,13,1,29,69058,1,180,2022-02-21_17h56.52.226,orientation adjustment 1,2021.2.3,MacIntel,59.97361161,,,,,,,
,,,,,,,,,,,,,,,,,,,,,,31.11111111,-51,20,75,-25.88888889,25.11111111,25.11111111,-115.8888889,-0.284596786,-0.416925125,1,0,0,0.698,submitButton,-0.284596786,-0.416925125,0,0,0,1,22,82,35,1,51,69058,1,180,2022-02-21_17h56.52.226,orientation adjustment 1,2021.2.3,MacIntel,59.97361161,,,,,,,
,,,,,,,,,,,,,,,,,,,,,,-36.11111111,-36,20,75,-38.11111111,2.111111111,2.111111111,-128.1111111,-0.199073257,-0.417624283,1,0,0,1.0602,submitButton,-0.199073257,-0.417624283,0,0,0,1,23,83,20,1,36,69058,1,180,2022-02-21_17h56.52.226,orientation adjustment 1,2021.2.3,MacIntel,59.97361161,,,,,,,
,,,,,,,,,,,,,,,,,,,,,,-64.44444444,66,20,75,39.55555556,26.44444444,26.44444444,-50.44444444,0.153677292,-0.324659729,1,0,0,0.2856,submitButton,-0.197975922,-0.40465126,0,0,0,1,24,84,50,1,66,69058,1,180,2022-02-21_17h56.52.226,orientation adjustment 1,2021.2.3,MacIntel,59.97361161,,,,,,,
,,,,,,,,,,,,,,,,,,,,,,-67.77777778,-28,20,75,-37.77777778,9.777777778,9.777777778,-127.7777778,0.235141602,-0.237011566,1,0,0,0.1323,submitButton,-0.220067139,-0.397048035,0,0,0,1,25,85,12,1,28,69058,1,180,2022-02-21_17h56.52.226,orientation adjustment 1,2021.2.3,MacIntel,59.97361161,,,,,,,
,,,,,,,,,,,,,,,,,,,,,,28.33333333,-18,20,75,-26.66666667,8.666666667,8.666666667,-116.6666667,-0.243992462,-0.401701736,1,0,0,1.1518,submitButton,-0.243992462,-0.401701736,0,0,0,1,26,86,2,1,18,69058,1,180,2022-02-21_17h56.52.226,orientation adjustment 1,2021.2.3,MacIntel,59.97361161,,,,,,,
,,,,,,,,,,,,,,,,,,,,,,-70,71,20,75,52,19,19,-38,-0.180842438,-0.386825562,1,0,0,1.3858,submitButton,-0.180842438,-0.386825562,0,0,0,1,27,87,55,1,71,69058,1,180,2022-02-21_17h56.52.226,orientation adjustment 1,2021.2.3,MacIntel,59.97361161,,,,,,,
,,,,,,,,,,,,,,,,,,,,,,37.22222222,-32,20,75,-36.77777778,4.777777778,4.777777778,-126.7777778,-0.236941223,-0.419074097,1,0,0,1.268,submitButton,-0.236941223,-0.419074097,0,0,0,1,28,88,16,1,32,69058,1,180,2022-02-21_17h56.52.226,orientation adjustment 1,2021.2.3,MacIntel,59.97361161,,,,,,,
,,,,,,,,,,,,,,,,,,,,,,49.44444444,-34,20,75,-19.55555556,14.44444444,14.44444444,-109.5555556,-0.189531326,-0.406188049,1,0,0,1.6345,submitButton,0.314739075,-0.39496788,1,0,0,1,29,89,18,1,34,69058,1,180,2022-02-21_17h56.52.226,orientation adjustment 1,2021.2.3,MacIntel,59.97361161,pause_continueButton,,,,,,
,,,,,,,,,,,,,,,,,,,,,,-20,52,20,75,61,9,9,-29,-0.322274551,-0.372916794,1,0,0,0.7516,submitButton,-0.322274551,-0.372916794,0,0,0,1,30,90,36,1,52,69058,1,180,2022-02-21_17h56.52.226,orientation adjustment 1,2021.2.3,MacIntel,59.97361161,,,,,,,
,,,,,,,,,,,,,,,,,,,,,,-55.55555556,68,20,75,65.44444444,2.555555556,2.555555556,-24.55555556,-0.215833511,-0.392570953,1,0,0,1.1514,submitButton,-0.215833511,-0.392570953,0,0,0,1,31,91,52,1,68,69058,1,180,2022-02-21_17h56.52.226,orientation adjustment 1,2021.2.3,MacIntel,59.97361161,,,,,,,
,,,,,,,,,,,,,,,,,,,,,,-40,-70,20,75,-68,2,2,-158,-0.214888229,-0.401527634,1,0,0,1.0007,submitButton,-0.214888229,-0.401527634,0,0,0,1,32,92,54,1,70,69058,1,180,2022-02-21_17h56.52.226,orientation adjustment 1,2021.2.3,MacIntel,59.97361161,,,,,,,
,,,,,,,,,,,,,,,,,,,,,,46.66666667,-50,20,75,-44.33333333,5.666666667,5.666666667,-134.3333333,0.338953094,-0.296965179,1,0,0,0.1997,submitButton,-0.174023056,-0.405223846,0,0,0,1,33,93,34,1,50,69058,1,180,2022-02-21_17h56.52.226,orientation adjustment 1,2021.2.3,MacIntel,59.97361161,,,,,,,
,,,,,,,,,,,,,,,,,,,,,,65.55555556,-25,20,75,-23.44444444,1.555555556,1.555555556,-113.4444444,0.358684692,-0.296384048,1,0,0,0.0463,submitButton,-0.226967392,-0.388634949,0,0,0,1,34,94,9,1,25,69058,1,180,2022-02-21_17h56.52.226,orientation adjustment 1,2021.2.3,MacIntel,59.97361161,,,,,,,
,,,,,,,,,,,,,,,,,,,,,,-50.55555556,17,20,75,-33.55555556,50.55555556,50.55555556,-123.5555556,-0.188079605,-0.429097595,1,0,0,1.326,submitButton,-0.161479149,-0.394538803,0,0,0,1,35,95,1,1,17,69058,1,180,2022-02-21_17h56.52.226,orientation adjustment 1,2021.2.3,MacIntel,59.97361161,,,,,,,
,,,,,,,,,,,,,,,,,,,,,,-70,53,20,75,30,23,23,-60,-0.246411667,-0.397685547,1,0,0,1.2837,submitButton,-0.246411667,-0.397685547,0,0,0,1,36,96,37,1,53,69058,1,180,2022-02-21_17h56.52.226,orientation adjustment 1,2021.2.3,MacIntel,59.97361161,,,,,,,
,,,,,,,,,,,,,,,,,,,,,,-66.11111111,-44,20,75,-49.11111111,5.111111111,5.111111111,-139.1111111,0.15961731,-0.292250519,1,0,0,0.3663,submitButton,-0.268687325,-0.424974365,0,0,0,1,37,97,28,1,44,69058,1,180,2022-02-21_17h56.52.226,orientation adjustment 1,2021.2.3,MacIntel,59.97361161,,,,,,,
,,,,,,,,,,,,,,,,,,,,,,-21.11111111,22,20,75,30.88888889,8.888888889,8.888888889,-59.11111111,-0.167697525,-0.408402252,1,0,0,1.0869,submitButton,-0.090470886,-0.344151993,0,0,0,1,38,98,6,1,22,69058,1,180,2022-02-21_17h56.52.226,orientation adjustment 1,2021.2.3,MacIntel,59.97361161,,,,,,,
,,,,,,,,,,,,,,,,,,,,,,-64.44444444,-73,20,75,-213.4444444,39.55555556,39.55555556,-303.4444444,-0.163277664,-0.359597855,1,0,0,1.5956,submitButton,-0.138201904,-0.398773041,0,0,0,1,39,99,57,1,73,69058,1,180,2022-02-21_17h56.52.226,orientation adjustment 1,2021.2.3,MacIntel,59.97361161,,,,,,,
,,,,,,,,,,,,,,,,,,,,,,26.66666667,-55,20,75,-58.33333333,3.333333333,3.333333333,-148.3333333,-0.287691803,-0.376979904,1,0,0,0.6997,submitButton,-0.287691803,-0.376979904,0,0,0,1,40,100,39,1,55,69058,1,180,2022-02-21_17h56.52.226,orientation adjustment 1,2021.2.3,MacIntel,59.97361161,,,,,,,
,,,,,,,,,,,,,,,,,,,,,,70,-30,20,75,-24,6,6,-114,-0.243720779,-0.434277115,1,0,0,1.8343,submitButton,-0.242907562,-0.404080811,0,0,0,1,41,101,14,1,30,69058,1,180,2022-02-21_17h56.52.226,orientation adjustment 1,2021.2.3,MacIntel,59.97361161,,,,,,,
,,,,,,,,,,,,,,,,,,,,,,-61.11111111,20,20,75,17.88888889,2.111111111,2.111111111,-72.11111111,-0.27101326,-0.417398911,1,0,0,1.1897,submitButton,-0.27101326,-0.417398911,0,0,0,1,42,102,4,1,20,69058,1,180,2022-02-21_17h56.52.226,orientation adjustment 1,2021.2.3,MacIntel,59.97361161,,,,,,,
,,,,,,,,,,,,,,,,,,,,,,-63.33333333,16,20,75,13.66666667,2.333333333,2.333333333,-76.33333333,-0.183259277,-0.394238281,1,0,0,1.351,submitButton,-0.183259277,-0.394238281,0,0,0,1,43,103,0,1,16,69058,1,180,2022-02-21_17h56.52.226,orientation adjustment 1,2021.2.3,MacIntel,59.97361161,,,,,,,
,,,,,,,,,,,,,,,,,,,,,,26.66666667,62,20,75,65.66666667,3.666666667,3.666666667,-24.33333333,0.365919647,-0.300901718,1,0,0,0.2828,submitButton,0.329313812,-0.390289841,1,0,0,1,44,104,46,1,62,69058,1,180,2022-02-21_17h56.52.226,orientation adjustment 1,2021.2.3,MacIntel,59.97361161,pause_continueButton,,,,,,
,,,,,,,,,,,,,,,,,,,,,,-57.77777778,58,20,75,0.222222222,57.77777778,57.77777778,-89.77777778,-0.268171921,-0.412160568,1,0,0,2.067,submitButton,-0.012407455,-0.326728592,0,0,0,1,45,105,42,1,58,69058,1,180,2022-02-21_17h56.52.226,orientation adjustment 1,2021.2.3,MacIntel,59.97361161,,,,,,,
,,,,,,,,,,,,,,,,,,,,,,65,56,20,75,57,1,1,-33,0.42586235,-0.283889618,1,0,0,0.2652,submitButton,-0.139294281,-0.402466888,0,0,0,1,46,106,40,1,56,69058,1,180,2022-02-21_17h56.52.226,orientation adjustment 1,2021.2.3,MacIntel,59.97361161,,,,,,,
,,,,,,,,,,,,,,,,,,,,,,64.44444444,-47,20,75,-24.55555556,22.44444444,22.44444444,-114.5555556,0.369707184,-0.286688995,1,0,0,2.0163,submitButton,-0.388461266,-0.39045433,0,0,0,1,47,107,31,1,47,69058,1,180,2022-02-21_17h56.52.226,orientation adjustment 1,2021.2.3,MacIntel,59.97361161,,,,,,,
,,,,,,,,,,,,,,,,,,,,,,-30.55555556,-42,20,75,-23.55555556,18.44444444,18.44444444,-113.5555556,0.18661377,-0.295087585,1,0,0,0.2998,submitButton,-0.36072197,-0.400627747,0,0,0,1,48,108,26,1,42,69058,1,180,2022-02-21_17h56.52.226,orientation adjustment 1,2021.2.3,MacIntel,59.97361161,,,,,,,
,,,,,,,,,,,,,,,,,,,,,,54.44444444,-72,20,75,-50.55555556,21.44444444,21.44444444,-140.5555556,0.39952713,-0.315322189,1,0,0,1.1228,submitButton,-0.211396027,-0.413165665,0,0,0,1,49,109,56,1,72,69058,1,180,2022-02-21_17h56.52.226,orientation adjustment 1,2021.2.3,MacIntel,59.97361161,,,,,,,
,,,,,,,,,,,,,,,,,,,,,,-37.77777778,-37,20,75,-53.77777778,16.77777778,16.77777778,-143.7777778,0.218566437,-0.312848511,1,0,0,0.9505,submitButton,-0.339844055,-0.391709747,0,0,0,1,50,110,21,1,37,69058,1,180,2022-02-21_17h56.52.226,orientation adjustment 1,2021.2.3,MacIntel,59.97361161,,,,,,,
,,,,,,,,,,,,,,,,,,,,,,56.66666667,74,20,75,70.66666667,3.333333333,3.333333333,-19.33333333,0.387617188,-0.296248703,1,0,0,1.4981,submitButton,-0.222310486,-0.403029709,0,0,0,1,51,111,58,1,74,69058,1,180,2022-02-21_17h56.52.226,orientation adjustment 1,2021.2.3,MacIntel,59.97361161,,,,,,,
,,,,,,,,,,,,,,,,,,,,,,-52.77777778,57,20,75,41.22222222,15.77777778,15.77777778,-48.77777778,0.19620903,-0.26732933,1,0,0,0.9994,submitButton,-0.206344147,-0.391989288,0,0,0,1,52,112,41,1,57,69058,1,180,2022-02-21_17h56.52.226,orientation adjustment 1,2021.2.3,MacIntel,59.97361161,,,,,,,
,,,,,,,,,,,,,,,,,,,,,,-70,-46,20,75,-60,14,14,-150,0.220969772,-0.300345764,1,0,0,0.8011,submitButton,0.256042786,-0.30802742,0,0,0,1,53,113,30,1,46,69058,1,180,2022-02-21_17h56.52.226,orientation adjustment 1,2021.2.3,MacIntel,59.97361161,,,,,,,
,,,,,,,,,,,,,,,,,,,,,,-33.33333333,67,20,75,59.66666667,7.333333333,7.333333333,-30.33333333,0.203886566,-0.311613235,1,0,0,8.6076,submitButton,-0.178710251,-0.401357117,0,0,0,1,54,114,51,1,67,69058,1,180,2022-02-21_17h56.52.226,orientation adjustment 1,2021.2.3,MacIntel,59.97361161,,,,,,,
,,,,,,,,,,,,,,,,,,,,,,49.44444444,21,20,75,32.44444444,11.44444444,11.44444444,-57.55555556,0.213728256,-0.295288391,1,0,0,0.433,submitButton,-0.364251747,-0.415807266,0,0,0,1,55,115,5,1,21,69058,1,180,2022-02-21_17h56.52.226,orientation adjustment 1,2021.2.3,MacIntel,59.97361161,,,,,,,
,,,,,,,,,,,,,,,,,,,,,,-69.44444444,-35,20,75,-196.4444444,18.55555556,18.55555556,-286.4444444,0.38304863,-0.296881485,1,0,0,0.5503,submitButton,-0.215844345,-0.385050278,0,0,0,1,56,116,19,1,35,69058,1,180,2022-02-21_17h56.52.226,orientation adjustment 1,2021.2.3,MacIntel,59.97361161,,,,,,,
,,,,,,,,,,,,,,,,,,,,,,-35,-40,20,75,-35,5,5,-125,0.405858383,-0.306434631,1,0,0,0.7001,submitButton,-0.200459137,-0.4117836,0,0,0,1,57,117,24,1,40,69058,1,180,2022-02-21_17h56.52.226,orientation adjustment 1,2021.2.3,MacIntel,59.97361161,,,,,,,
,,,,,,,,,,,,,,,,,,,,,,42.77777778,-24,20,75,-22.22222222,1.777777778,1.777777778,-112.2222222,0.376120148,-0.312709885,1,0,0,0.8494,submitButton,-0.409307899,-0.40741539,0,0,0,1,58,118,8,1,24,69058,1,180,2022-02-21_17h56.52.226,orientation adjustment 1,2021.2.3,MacIntel,59.97361161,,,,,,,
,,,,,,,,,,,,,,,,,,,,,,-52.22222222,-69,20,75,-64.22222222,4.777777778,4.777777778,-154.2222222,0.173263168,-0.303955612,1,0,0,0.2512,submitButton,0.296297989,-0.394727936,1,0,0,1,59,119,53,1,69,69058,1,180,2022-02-21_17h56.52.226,orientation adjustment 1,2021.2.3,MacIntel,59.97361161,pause_continueButton,,,,,,
,,,,,,,,,,,,,,,,,,,,,,26.66666667,-63,20,75,-36.33333333,26.66666667,26.66666667,-126.3333333,-0.578096046,-0.392695847,1,0,0,2.2882,submitButton,-0.556258163,-0.393893204,0,0,0,2,0,120,47,1,63,69058,1,180,2022-02-21_17h56.52.226,orientation adjustment 1,2021.2.3,MacIntel,59.97361161,,,,,,,
,,,,,,,,,,,,,,,,,,,,,,-48.88888889,33,20,75,14.11111111,18.88888889,18.88888889,-75.88888889,-0.313541107,-0.388986969,1,0,0,0.9685,submitButton,-0.313541107,-0.388986969,0,0,0,2,1,121,17,1,33,69058,1,180,2022-02-21_17h56.52.226,orientation adjustment 1,2021.2.3,MacIntel,59.97361161,,,,,,,
,,,,,,,,,,,,,,,,,,,,,,-25,-51,20,75,-39,12,12,-129,0.238122482,-0.337838287,1,0,0,0.4435,submitButton,-0.207724457,-0.392208862,0,0,0,2,2,122,35,1,51,69058,1,180,2022-02-21_17h56.52.226,orientation adjustment 1,2021.2.3,MacIntel,59.97361161,,,,,,,
,,,,,,,,,,,,,,,,,,,,,,32.77777778,18,20,75,30.77777778,12.77777778,12.77777778,-59.22222222,0.418810425,-0.285204163,1,0,0,0.9175,submitButton,-0.309471321,-0.391829605,0,0,0,2,3,123,2,1,18,69058,1,180,2022-02-21_17h56.52.226,orientation adjustment 1,2021.2.3,MacIntel,59.97361161,,,,,,,
,,,,,,,,,,,,,,,,,,,,,,-42.22222222,28,20,75,22.77777778,5.222222222,5.222222222,-67.22222222,0.210544891,-0.319140167,1,0,0,5.6205,submitButton,-0.192651291,-0.4179599,0,0,0,2,4,124,12,1,28,69058,1,180,2022-02-21_17h56.52.226,orientation adjustment 1,2021.2.3,MacIntel,59.97361161,,,,,,,
,,,,,,,,,,,,,,,,,,,,,,-43.33333333,-56,20,75,-145.3333333,89.33333333,89.33333333,-235.3333333,0.407571106,-0.307710953,1,0,0,0.2335,submitButton,-0.256534004,-0.428280411,0,0,0,2,5,125,40,1,56,69058,1,180,2022-02-21_17h56.52.226,orientation adjustment 1,2021.2.3,MacIntel,59.97361161,,,,,,,
,,,,,,,,,,,,,,,,,,,,,,-67.77777778,-20,20,75,-46.77777778,26.77777778,26.77777778,-136.7777778,0.245812225,-0.321002884,1,0,0,0.5664,submitButton,-0.298756943,-0.414778519,0,0,0,2,6,126,4,1,20,69058,1,180,2022-02-21_17h56.52.226,orientation adjustment 1,2021.2.3,MacIntel,59.97361161,,,,,,,
,,,,,,,,,,,,,,,,,,,,,,-73.88888889,74,20,75,29.11111111,44.88888889,44.88888889,-60.88888889,0.180858841,-0.285402298,1,0,0,0.8726,submitButton,-0.009686203,-0.247386627,0,0,0,2,7,127,58,1,74,69058,1,180,2022-02-21_17h56.52.226,orientation adjustment 1,2021.2.3,MacIntel,59.97361161,,,,,,,
,,,,,,,,,,,,,,,,,,,,,,40,-52,20,75,43,85,85,-47,0.205664978,-0.301423721,1,0,0,1.5689,submitButton,-0.157625275,-0.387983932,0,0,0,2,8,128,36,1,52,69058,1,180,2022-02-21_17h56.52.226,orientation adjustment 1,2021.2.3,MacIntel,59.97361161,,,,,,,
,,,,,,,,,,,,,,,,,,,,,,-42.77777778,44,20,75,37.22222222,6.777777778,6.777777778,-52.77777778,-0.263126945,-0.42062645,1,0,0,1.2169,submitButton,-0.263126945,-0.42062645,0,0,0,2,9,129,28,1,44,69058,1,180,2022-02-21_17h56.52.226,orientation adjustment 1,2021.2.3,MacIntel,59.97361161,,,,,,,
,,,,,,,,,,,,,,,,,,,,,,-22.77777778,-23,20,75,-14.77777778,8.222222222,8.222222222,-104.7777778,0.221716843,-0.306462326,1,0,0,0.4509,submitButton,-0.129888763,-0.389124222,0,0,0,2,10,130,7,1,23,69058,1,180,2022-02-21_17h56.52.226,orientation adjustment 1,2021.2.3,MacIntel,59.97361161,,,,,,,
,,,,,,,,,,,,,,,,,,,,,,-23.33333333,69,20,75,76.66666667,7.666666667,7.666666667,-13.33333333,0.184325104,-0.282996445,1,0,0,1.2113,submitButton,-0.185138779,-0.387411804,0,0,0,2,11,131,53,1,69,69058,1,180,2022-02-21_17h56.52.226,orientation adjustment 1,2021.2.3,MacIntel,59.97361161,,,,,,,
,,,,,,,,,,,,,,,,,,,,,,46.11111111,40,20,75,58.11111111,18.11111111,18.11111111,-31.88888889,0.376278229,-0.294566345,1,0,0,1.1867,submitButton,-0.519051609,-0.411997223,0,0,0,2,12,132,24,1,40,69058,1,180,2022-02-21_17h56.52.226,orientation adjustment 1,2021.2.3,MacIntel,59.97361161,,,,,,,
,,,,,,,,,,,,,,,,,,,,,,45.55555556,37,20,75,63.55555556,26.55555556,26.55555556,-26.44444444,0.411399384,-0.310368576,1,0,0,1.0885,submitButton,-0.261197433,-0.402812271,0,0,0,2,13,133,21,1,37,69058,1,180,2022-02-21_17h56.52.226,orientation adjustment 1,2021.2.3,MacIntel,59.97361161,,,,,,,
,,,,,,,,,,,,,,,,,,,,,,-26.66666667,-16,20,75,-17.66666667,1.666666667,1.666666667,-107.6666667,0.189560318,-0.287655945,1,0,0,0.4675,submitButton,0.547731323,-0.397351837,1,0,0,2,14,134,0,1,16,69058,1,180,2022-02-21_17h56.52.226,orientation adjustment 1,2021.2.3,MacIntel,59.97361161,pause_continueButton,,,,,,
,,,,,,,,,,,,,,,,,,,,,,43.33333333,-49,20,75,-25.66666667,23.33333333,23.33333333,-115.6666667,0.428359146,-0.294157028,1,0,0,0.3581,submitButton,-0.414392967,-0.399610138,0,0,0,2,15,135,33,1,49,69058,1,180,2022-02-21_17h56.52.226,orientation adjustment 1,2021.2.3,MacIntel,59.97361161,,,,,,,
,,,,,,,,,,,,,,,,,,,,,,62.77777778,30,20,75,58.77777778,28.77777778,28.77777778,-31.22222222,0.393889236,-0.293072281,1,0,0,0.0391,submitButton,-0.124281082,-0.399410324,0,0,0,2,16,136,14,1,30,69058,1,180,2022-02-21_17h56.52.226,orientation adjustment 1,2021.2.3,MacIntel,59.97361161,,,,,,,
,,,,,,,,,,,,,,,,,,,,,,41.11111111,-31,20,75,-22.88888889,8.111111111,8.111111111,-112.8888889,-0.244801826,-0.397742767,1,0,0,0.9521,submitButton,-0.105869751,-0.383688431,0,0,0,2,17,137,15,1,31,69058,1,180,2022-02-21_17h56.52.226,orientation adjustment 1,2021.2.3,MacIntel,59.97361161,,,,,,,
,,,,,,,,,,,,,,,,,,,,,,52.77777778,-66,20,75,-38.22222222,27.77777778,27.77777778,-128.2222222,0.391744385,-0.297309265,1,0,0,0.7704,submitButton,-0.200262146,-0.390832367,0,0,0,2,18,138,50,1,66,69058,1,180,2022-02-21_17h56.52.226,orientation adjustment 1,2021.2.3,MacIntel,59.97361161,,,,,,,
,,,,,,,,,,,,,,,,,,,,,,61.66666667,58,20,75,70.66666667,12.66666667,12.66666667,-19.33333333,0.391349411,-0.305566177,1,0,0,0.8776,submitButton,-0.247360344,-0.418347702,0,0,0,2,19,139,42,1,58,69058,1,180,2022-02-21_17h56.52.226,orientation adjustment 1,2021.2.3,MacIntel,59.97361161,,,,,,,
,,,,,,,,,,,,,,,,,,,,,,-32.22222222,-41,20,75,-34.22222222,6.777777778,6.777777778,-124.2222222,0.226353531,-0.341820831,1,0,0,0.7751,submitButton,-0.263286362,-0.413946228,0,0,0,2,20,140,25,1,41,69058,1,180,2022-02-21_17h56.52.226,orientation adjustment 1,2021.2.3,MacIntel,59.97361161,,,,,,,
,,,,,,,,,,,,,,,,,,,,,,47.77777778,-57,20,75,-51.22222222,5.777777778,5.777777778,-141.2222222,0.400702362,-0.274675827,1,0,0,0.7166,submitButton,-0.134804459,-0.384809494,0,0,0,2,21,141,41,1,57,69058,1,180,2022-02-21_17h56.52.226,orientation adjustment 1,2021.2.3,MacIntel,59.97361161,,,,,,,
,,,,,,,,,,,,,,,,,,,,,,-53.33333333,-72,20,75,-68.33333333,3.666666667,3.666666667,-158.3333333,0.154554291,-0.28198761,1,0,0,0.0326,submitButton,-0.196253433,-0.400347519,0,0,0,2,22,142,56,1,72,69058,1,180,2022-02-21_17h56.52.226,orientation adjustment 1,2021.2.3,MacIntel,59.97361161,,,,,,,
,,,,,,,,,,,,,,,,,,,,,,-32.22222222,60,20,75,54.77777778,5.222222222,5.222222222,-35.22222222,0.201615601,-0.28910675,1,0,0,0.3487,submitButton,-0.155570374,-0.385492935,0,0,0,2,23,143,44,1,60,69058,1,180,2022-02-21_17h56.52.226,orientation adjustment 1,2021.2.3,MacIntel,59.97361161,,,,,,,
,,,,,,,,,,,,,,,,,,,,,,-58.33333333,-24,20,75,-24.33333333,0.333333333,0.333333333,-114.3333333,-0.14358345,-0.38963356,1,0,0,1.3817,submitButton,-0.14358345,-0.38963356,0,0,0,2,24,144,8,1,24,69058,1,180,2022-02-21_17h56.52.226,orientation adjustment 1,2021.2.3,MacIntel,59.97361161,,,,,,,
,,,,,,,,,,,,,,,,,,,,,,-25.55555556,-38,20,75,-42.55555556,4.555555556,4.555555556,-132.5555556,0.180711517,-0.294330597,1,0,0,0.2637,submitButton,-0.175173302,-0.421359482,0,0,0,2,25,145,22,1,38,69058,1,180,2022-02-21_17h56.52.226,orientation adjustment 1,2021.2.3,MacIntel,59.97361161,,,,,,,
,,,,,,,,,,,,,,,,,,,,,,63.88888889,45,20,75,221.8888889,3.111111111,3.111111111,131.8888889,0.188036957,-0.309752579,1,0,0,0.7002,submitButton,-0.351352615,-0.419002228,0,0,0,2,26,146,29,1,45,69058,1,180,2022-02-21_17h56.52.226,orientation adjustment 1,2021.2.3,MacIntel,59.97361161,,,,,,,
,,,,,,,,,,,,,,,,,,,,,,30.55555556,-71,20,75,-47.44444444,23.55555556,23.55555556,-137.4444444,0.410480576,-0.302945023,1,0,0,1.0035,submitButton,0.089104919,-0.37488884,0,0,0,2,27,147,55,1,71,69058,1,180,2022-02-21_17h56.52.226,orientation adjustment 1,2021.2.3,MacIntel,59.97361161,,,,,,,
,,,,,,,,,,,,,,,,,,,,,,51.11111111,-26,20,75,-17.88888889,8.111111111,8.111111111,-107.8888889,-0.180226059,-0.416812439,1,0,0,1.1964,submitButton,-0.180226059,-0.411159821,0,0,0,2,28,148,10,1,26,69058,1,180,2022-02-21_17h56.52.226,orientation adjustment 1,2021.2.3,MacIntel,59.97361161,,,,,,,
,,,,,,,,,,,,,,,,,,,,,,-68.33333333,-29,20,75,-52.33333333,23.33333333,23.33333333,-142.3333333,0.169119644,-0.290932007,1,0,0,0.3687,submitButton,0.385005798,-0.38527359,1,0,0,2,29,149,13,1,29,69058,1,180,2022-02-21_17h56.52.226,orientation adjustment 1,2021.2.3,MacIntel,59.97361161,pause_continueButton,,,,,,
,,,,,,,,,,,,,,,,,,,,,,75,-70,20,75,5,75,75,-85,-0.410478058,-0.366951447,1,0,0,1.2501,submitButton,0.348808517,-0.266979446,0,0,0,2,30,150,54,1,70,69058,1,180,2022-02-21_17h56.52.226,orientation adjustment 1,2021.2.3,MacIntel,59.97361161,,,,,,,
,,,,,,,,,,,,,,,,,,,,,,72.77777778,-61,20,75,-46.22222222,14.77777778,14.77777778,-136.2222222,-0.212627563,-0.360699387,1,0,0,1.3897,submitButton,-0.134277802,-0.421965485,0,0,0,2,31,151,45,1,61,69058,1,180,2022-02-21_17h56.52.226,orientation adjustment 1,2021.2.3,MacIntel,59.97361161,,,,,,,
,,,,,,,,,,,,,,,,,,,,,,-40,39,20,75,27,12,12,-63,0.240376205,-0.222167435,1,0,0,0.6541,submitButton,-0.157654648,-0.389804764,0,0,0,2,32,152,23,1,39,69058,1,180,2022-02-21_17h56.52.226,orientation adjustment 1,2021.2.3,MacIntel,59.97361161,,,,,,,
,,,,,,,,,,,,,,,,,,,,,,-74.44444444,65,20,75,17.55555556,47.44444444,47.44444444,-72.44444444,0.214647827,-0.337278137,1,0,0,0.2935,submitButton,-0.258957825,-0.410202255,0,0,0,2,33,153,49,1,65,69058,1,180,2022-02-21_17h56.52.226,orientation adjustment 1,2021.2.3,MacIntel,59.97361161,,,,,,,
,,,,,,,,,,,,,,,,,,,,,,-20.55555556,-47,20,75,-35.55555556,11.44444444,11.44444444,-125.5555556,0.193748398,-0.297081757,1,0,0,0.2255,submitButton,-0.152532349,-0.382083435,0,0,0,2,34,154,31,1,47,69058,1,180,2022-02-21_17h56.52.226,orientation adjustment 1,2021.2.3,MacIntel,59.97361161,,,,,,,
,,,,,,,,,,,,,,,,,,,,,,-45.55555556,-75,20,75,-248.5555556,6.444444444,6.444444444,-338.5555556,0.343599777,-0.300574875,1,0,0,0.2198,submitButton,-0.151317291,-0.409218597,0,0,0,2,35,155,59,1,75,69058,1,180,2022-02-21_17h56.52.226,orientation adjustment 1,2021.2.3,MacIntel,59.97361161,,,,,,,
,,,,,,,,,,,,,,,,,,,,,,-73.33333333,-62,20,75,-210.3333333,31.66666667,31.66666667,-300.3333333,0.371387939,-0.291161575,1,0,0,0.3909,submitButton,-0.42240757,-0.426985321,0,0,0,2,36,156,46,1,62,69058,1,180,2022-02-21_17h56.52.226,orientation adjustment 1,2021.2.3,MacIntel,59.97361161,,,,,,,
,,,,,,,,,,,,,,,,,,,,,,-25.55555556,64,20,75,62.44444444,1.555555556,1.555555556,-27.55555556,0.182456131,-0.307332611,1,0,0,0.0995,submitButton,-0.146179886,-0.437296982,0,0,0,2,37,157,48,1,64,69058,1,180,2022-02-21_17h56.52.226,orientation adjustment 1,2021.2.3,MacIntel,59.97361161,,,,,,,
,,,,,,,,,,,,,,,,,,,,,,65.55555556,-21,20,75,-12.44444444,8.555555556,8.555555556,-102.4444444,0.377309036,-0.29204071,1,0,0,0.7167,submitButton,-0.149031525,-0.405289764,0,0,0,2,38,158,5,1,21,69058,1,180,2022-02-21_17h56.52.226,orientation adjustment 1,2021.2.3,MacIntel,59.97361161,,,,,,,
,,,,,,,,,,,,,,,,,,,,,,-33.33333333,-67,20,75,-59.33333333,7.666666667,7.666666667,-149.3333333,0.196038589,-0.296808777,1,0,0,0.7167,submitButton,-0.101062698,-0.379624329,0,0,0,2,39,159,51,1,67,69058,1,180,2022-02-21_17h56.52.226,orientation adjustment 1,2021.2.3,MacIntel,59.97361161,,,,,,,
,,,,,,,,,,,,,,,,,,,,,,39.44444444,73,20,75,222.4444444,30.55555556,30.55555556,132.4444444,0.212914352,-0.31590889,1,0,0,0.6841,submitButton,-0.169230309,-0.390576096,0,0,0,2,40,160,57,1,73,69058,1,180,2022-02-21_17h56.52.226,orientation adjustment 1,2021.2.3,MacIntel,59.97361161,,,,,,,
,,,,,,,,,,,,,,,,,,,,,,-58.33333333,59,20,75,52.66666667,6.333333333,6.333333333,-37.33333333,0.178587723,-0.307833862,1,0,0,1.903,submitButton,-0.241663208,-0.390275421,0,0,0,2,41,161,43,1,59,69058,1,180,2022-02-21_17h56.52.226,orientation adjustment 1,2021.2.3,MacIntel,59.97361161,,,,,,,
,,,,,,,,,,,,,,,,,,,,,,69.44444444,-22,20,75,47.44444444,69.44444444,69.44444444,-42.55555556,-0.519343262,-0.399122238,1,0,0,0.434,submitButton,-0.519343262,-0.399122238,0,0,0,2,42,162,6,1,22,69058,1,180,2022-02-21_17h56.52.226,orientation adjustment 1,2021.2.3,MacIntel,59.97361161,,,,,,,
,,,,,,,,,,,,,,,,,,,,,,46.11111111,-55,20,75,24.11111111,79.11111111,79.11111111,-65.88888889,0.232261429,-0.306066132,1,0,0,1.3348,submitButton,-0.361001549,-0.417322998,0,0,0,2,43,163,39,1,55,69058,1,180,2022-02-21_17h56.52.226,orientation adjustment 1,2021.2.3,MacIntel,59.97361161,,,,,,,
,,,,,,,,,,,,,,,,,,,,,,-56.11111111,-25,20,75,-38.11111111,13.11111111,13.11111111,-128.1111111,0.170143738,-0.288787613,1,0,0,0.5679,submitButton,0.315570755,-0.382186203,1,0,0,2,44,164,9,1,25,69058,1,180,2022-02-21_17h56.52.226,orientation adjustment 1,2021.2.3,MacIntel,59.97361161,pause_continueButton,,,,,,
,,,,,,,,,,,,,,,,,,,,,,49.44444444,-48,20,75,-37.55555556,10.44444444,10.44444444,-127.5555556,0.401585693,-0.298524933,1,0,0,0.0211,submitButton,-0.101500397,-0.38796669,0,0,0,2,45,165,32,1,48,69058,1,180,2022-02-21_17h56.52.226,orientation adjustment 1,2021.2.3,MacIntel,59.97361161,,,,,,,
,,,,,,,,,,,,,,,,,,,,,,-42.22222222,36,20,75,31.77777778,4.222222222,4.222222222,-58.22222222,0.161104584,-0.283689804,1,0,0,0.2421,submitButton,-0.219719276,-0.397941742,0,0,0,2,46,166,20,1,36,69058,1,180,2022-02-21_17h56.52.226,orientation adjustment 1,2021.2.3,MacIntel,59.97361161,,,,,,,
,,,,,,,,,,,,,,,,,,,,,,56.11111111,-46,20,75,-30.88888889,15.11111111,15.11111111,-120.8888889,0.448572083,-0.27538826,1,0,0,0.1502,submitButton,-0.256818848,-0.447966461,0,0,0,2,47,167,30,1,46,69058,1,180,2022-02-21_17h56.52.226,orientation adjustment 1,2021.2.3,MacIntel,59.97361161,,,,,,,
,,,,,,,,,,,,,,,,,,,,,,66.66666667,-43,20,75,-23.33333333,19.66666667,19.66666667,-113.3333333,0.354120102,-0.290778122,1,0,0,0.4244,submitButton,-0.162828445,-0.409234161,0,0,0,2,48,168,27,1,43,69058,1,180,2022-02-21_17h56.52.226,orientation adjustment 1,2021.2.3,MacIntel,59.97361161,,,,,,,
,,,,,,,,,,,,,,,,,,,,,,-43.33333333,-34,20,75,-39.33333333,5.333333333,5.333333333,-129.3333333,0.187440109,-0.277232742,1,0,0,0.52,submitButton,-0.288327522,-0.411615601,0,0,0,2,49,169,18,1,34,69058,1,180,2022-02-21_17h56.52.226,orientation adjustment 1,2021.2.3,MacIntel,59.97361161,,,,,,,
,,,,,,,,,,,,,,,,,,,,,,-69.44444444,17,20,75,14.55555556,2.444444444,2.444444444,-75.44444444,-0.154697113,-0.408147659,1,0,0,1.1671,submitButton,0.799980469,-0.188380051,0,0,0,2,50,170,1,1,17,69058,1,180,2022-02-21_17h56.52.226,orientation adjustment 1,2021.2.3,MacIntel,59.97361161,,,,,,,
,,,,,,,,,,,,,,,,,,,,,,64.44444444,27,20,75,202.4444444,4.555555556,4.555555556,112.4444444,0.220179062,-0.335326004,1,0,0,0.756,submitButton,-0.368541374,-0.422583618,0,0,0,2,51,171,11,1,27,69058,1,180,2022-02-21_17h56.52.226,orientation adjustment 1,2021.2.3,MacIntel,59.97361161,,,,,,,
,,,,,,,,,,,,,,,,,,,,,,-31.11111111,-54,20,75,-52.11111111,1.888888889,1.888888889,-142.1111111,0.133222961,-0.34889389,1,0,0,0.4773,submitButton,-0.110793304,-0.499980469,0,0,0,2,52,172,38,1,54,69058,1,180,2022-02-21_17h56.52.226,orientation adjustment 1,2021.2.3,MacIntel,59.97361161,,,,,,,
,,,,,,,,,,,,,,,,,,,,,,65,53,20,75,224,9,9,134,0.226412582,-0.312858734,1,0,0,0.8201,submitButton,-0.284862099,-0.441943817,0,0,0,2,53,173,37,1,53,69058,1,180,2022-02-21_17h56.52.226,orientation adjustment 1,2021.2.3,MacIntel,59.97361161,,,,,,,
,,,,,,,,,,,,,,,,,,,,,,-37.22222222,32,20,75,47.77777778,15.77777778,15.77777778,-42.22222222,-0.202994194,-0.40463089,1,0,0,1.1615,submitButton,-0.202994194,-0.40463089,0,0,0,2,54,174,16,1,32,69058,1,180,2022-02-21_17h56.52.226,orientation adjustment 1,2021.2.3,MacIntel,59.97361161,,,,,,,
,,,,,,,,,,,,,,,,,,,,,,-39.44444444,42,20,75,41.55555556,0.444444444,0.444444444,-48.44444444,-0.186314583,-0.397527084,1,0,0,1.0674,submitButton,-0.186314583,-0.397527084,0,0,0,2,55,175,26,1,42,69058,1,180,2022-02-21_17h56.52.226,orientation adjustment 1,2021.2.3,MacIntel,59.97361161,,,,,,,
,,,,,,,,,,,,,,,,,,,,,,33.88888889,-35,20,75,-32.11111111,2.888888889,2.888888889,-122.1111111,0.389613724,-0.268256836,1,0,0,0.3528,submitButton,-0.191364212,-0.401807175,0,0,0,2,56,176,19,1,35,69058,1,180,2022-02-21_17h56.52.226,orientation adjustment 1,2021.2.3,MacIntel,59.97361161,,,,,,,
,,,,,,,,,,,,,,,,,,,,,,-52.77777778,68,20,75,50.22222222,17.77777778,17.77777778,-39.77777778,0.173419266,-0.314787903,1,0,0,0.559,submitButton,-0.149982452,-0.387440948,0,0,0,2,57,177,52,1,68,69058,1,180,2022-02-21_17h56.52.226,orientation adjustment 1,2021.2.3,MacIntel,59.97361161,,,,,,,
,,,,,,,,,,,,,,,,,,,,,,-37.22222222,-50,20,75,-50.22222222,0.222222222,0.222222222,-140.2222222,0.184689636,-0.288701859,1,0,0,0.3938,submitButton,-0.134008331,-0.399004211,0,0,0,2,58,178,34,1,50,69058,1,180,2022-02-21_17h56.52.226,orientation adjustment 1,2021.2.3,MacIntel,59.97361161,,,,,,,
,,,,,,,,,,,,,,,,,,,,,,-71.11111111,-19,20,75,-42.11111111,23.11111111,23.11111111,-132.1111111,-0.181550941,-0.437294159,1,0,0,1.22,submitButton,-0.180851364,-0.393192444,0,0,0,2,59,179,3,1,19,69058,1,180,2022-02-21_17h56.52.226,orientation adjustment 1,2021.2.3,MacIntel,59.97361161,,,,,,,
,,,,,,,,,,,,,,,,,,,,,,,,,,,,,,,,,,,,,,,,,,,,,,,,69058,1,180,2022-02-21_17h56.52.226,orientation adjustment 1,2021.2.3,MacIntel,59.97361161,,0.330465393,-0.388964996,1,0,0,EndButtonTxt
