consentMouse1.x,consentMouse1.y,consentMouse1.leftButton,consentMouse1.midButton,consentMouse1.rightButton,consentMouse1.clicked_name,consent_Mouse.x,consent_Mouse.y,consent_Mouse.leftButton,consent_Mouse.midButton,consent_Mouse.rightButton,consent_Mouse.clicked_name,startMouse.x,startMouse.y,startMouse.leftButton,startMouse.midButton,startMouse.rightButton,startMouse_2.x,startMouse_2.y,startMouse_2.leftButton,startMouse_2.midButton,startMouse_2.rightButton,start_distance,fixedOri,minimalDistance,maxOri,this_ori,accuracy,presented_accuracy,presented_this_ori,submitMouse.x,submitMouse.y,submitMouse.leftButton,submitMouse.midButton,submitMouse.rightButton,submitMouse.time,submitMouse.clicked_name,pauseMouse.x,pauseMouse.y,pauseMouse.leftButton,pauseMouse.midButton,pauseMouse.rightButton,trials.thisRepN,trials.thisTrialN,trials.thisN,trials.thisIndex,trials.ran,startOri,participant,condition,nTrials,date,expName,psychopyVersion,OS,frameRate,pauseMouse.clicked_name,EndButtonMouse.x,EndButtonMouse.y,EndButtonMouse.leftButton,EndButtonMouse.midButton,EndButtonMouse.rightButton,EndButtonMouse.clicked_name
0.362864742,-0.391512014,1,0,0,consent_button1,0.401061029,-0.394694974,1,0,0,consent_button,0.074270573,-0.275862145,1,0,0,0.081697629,-0.361803726,1,0,0,-21.66666667,60,20,75,67.33333333,7.333333333,7.333333333,-22.66666667,0.225994714,-0.296021297,1,0,0,3.8313,submitButton,-0.333156488,-0.404244045,0,0,0,0,0,0,44,1,60,69076,1,180,2022-02-22_11h18.53.568,orientation adjustment 1,2021.2.3,Win32,60.72382803,,,,,,,
,,,,,,,,,,,,,,,,,,,,,,21.11111111,-20,20,75,-19.88888889,0.111111111,0.111111111,-109.8888889,0.413793125,-0.309814336,1,0,0,0.6988,submitButton,-0.246153835,-0.384084894,0,0,0,0,1,1,4,1,20,69076,1,180,2022-02-22_11h18.53.568,orientation adjustment 1,2021.2.3,Win32,60.72382803,,,,,,,
,,,,,,,,,,,,,,,,,,,,,,-21.66666667,39,20,75,17.33333333,21.66666667,21.66666667,-72.66666667,-0.324668425,-0.394694974,1,0,0,1.3,submitButton,-0.324668425,-0.394694974,0,0,0,0,2,2,23,1,39,69076,1,180,2022-02-22_11h18.53.568,orientation adjustment 1,2021.2.3,Win32,60.72382803,,,,,,,
,,,,,,,,,,,,,,,,,,,,,,-52.22222222,-22,20,75,-43.22222222,21.22222222,21.22222222,-133.2222222,0.229177737,-0.292838208,1,0,0,1.0136,submitButton,-0.223872667,-0.372413806,0,0,0,0,3,3,6,1,22,69076,1,180,2022-02-22_11h18.53.568,orientation adjustment 1,2021.2.3,Win32,60.72382803,,,,,,,
,,,,,,,,,,,,,,,,,,,,,,-67.77777778,65,20,75,61.22222222,3.777777778,3.777777778,-28.77777778,0.199469514,-0.293899216,1,0,0,0.5299,submitButton,-0.26949601,-0.408488142,0,0,0,0,4,4,49,1,65,69076,1,180,2022-02-22_11h18.53.568,orientation adjustment 1,2021.2.3,Win32,60.72382803,,,,,,,
,,,,,,,,,,,,,,,,,,,,,,-21.11111111,-38,20,75,-40.11111111,2.111111111,2.111111111,-130.1111111,0.164456251,-0.297082305,1,0,0,1.1326,submitButton,-0.214323595,-0.378779854,0,0,0,0,5,5,22,1,38,69076,1,180,2022-02-22_11h18.53.568,orientation adjustment 1,2021.2.3,Win32,60.72382803,,,,,,,
,,,,,,,,,,,,,,,,,,,,,,21.66666667,28,20,75,49.66666667,21.66666667,21.66666667,-40.33333333,0.124137948,-0.286472225,1,0,0,0.7473,submitButton,-0.174005292,-0.380901935,0,0,0,0,6,6,12,1,28,69076,1,180,2022-02-22_11h18.53.568,orientation adjustment 1,2021.2.3,Win32,60.72382803,,,,,,,
,,,,,,,,,,,,,,,,,,,,,,75,67,20,75,251,4,4,161,0.20159153,-0.300265264,1,0,0,0.165,submitButton,-0.195225452,-0.376657903,0,0,0,0,7,7,51,1,67,69076,1,180,2022-02-22_11h18.53.568,orientation adjustment 1,2021.2.3,Win32,60.72382803,,,,,,,
,,,,,,,,,,,,,,,,,,,,,,40,66,20,75,238,8,8,148,0.202652538,-0.284350144,1,0,0,0.4667,submitButton,-0.241909738,-0.387267982,0,0,0,0,8,8,50,1,66,69076,1,180,2022-02-22_11h18.53.568,orientation adjustment 1,2021.2.3,Win32,60.72382803,,,,,,,
,,,,,,,,,,,,,,,,,,,,,,43.88888889,-48,20,75,-38.11111111,9.888888889,9.888888889,-128.1111111,0.412732246,-0.279045104,1,0,0,0.2006,submitButton,-0.381962855,-0.415915133,0,0,0,0,9,9,32,1,48,69076,1,180,2022-02-22_11h18.53.568,orientation adjustment 1,2021.2.3,Win32,60.72382803,,,,,,,
,,,,,,,,,,,,,,,,,,,,,,-21.11111111,17,20,75,32.88888889,15.88888889,15.88888889,-57.11111111,0.200530522,-0.287533168,1,0,0,0.117,submitButton,-0.1750663,-0.397878062,0,0,0,0,10,10,1,1,17,69076,1,180,2022-02-22_11h18.53.568,orientation adjustment 1,2021.2.3,Win32,60.72382803,,,,,,,
,,,,,,,,,,,,,,,,,,,,,,-74.44444444,-71,20,75,-229.4444444,21.55555556,21.55555556,-319.4444444,0.423342326,-0.286472225,1,0,0,0.1175,submitButton,-0.245092827,-0.386206975,0,0,0,0,11,11,55,1,71,69076,1,180,2022-02-22_11h18.53.568,orientation adjustment 1,2021.2.3,Win32,60.72382803,,,,,,,
,,,,,,,,,,,,,,,,,,,,,,33.33333333,-74,20,75,-115.6666667,41.66666667,41.66666667,-205.6666667,0.387267925,-0.276923089,1,0,0,0.3532,submitButton,-0.299204233,-0.391512014,0,0,0,0,12,12,58,1,74,69076,1,180,2022-02-22_11h18.53.568,orientation adjustment 1,2021.2.3,Win32,60.72382803,,,,,,,
,,,,,,,,,,,,,,,,,,,,,,-62.77777778,57,20,75,43.22222222,13.77777778,13.77777778,-46.77777778,0.19628649,-0.276923089,1,0,0,0.2833,submitButton,-0.328912457,-0.414854125,0,0,0,0,13,13,41,1,57,69076,1,180,2022-02-22_11h18.53.568,orientation adjustment 1,2021.2.3,Win32,60.72382803,,,,,,,
,,,,,,,,,,,,,,,,,,,,,,-57.22222222,24,20,75,18.77777778,5.222222222,5.222222222,-71.22222222,0.210079594,-0.302387345,1,0,0,0.1805,submitButton,0.325729463,-0.418037214,1,0,0,0,14,14,8,1,24,69076,1,180,2022-02-22_11h18.53.568,orientation adjustment 1,2021.2.3,Win32,60.72382803,pause_continueButton,,,,,,
,,,,,,,,,,,,,,,,,,,,,,-40,-23,20,75,-190,13,13,-280,0.230238745,-0.308753328,1,0,0,0.1868,submitButton,-0.305570216,-0.406366061,0,0,0,0,15,15,7,1,23,69076,1,180,2022-02-22_11h18.53.568,orientation adjustment 1,2021.2.3,Win32,60.72382803,,,,,,,
,,,,,,,,,,,,,,,,,,,,,,-43.33333333,-58,20,75,-64.33333333,6.333333333,6.333333333,-154.3333333,0.257824953,-0.310875344,1,0,0,1.0134,submitButton,-0.276923066,-0.424403262,0,0,0,0,16,16,42,1,58,69076,1,180,2022-02-22_11h18.53.568,orientation adjustment 1,2021.2.3,Win32,60.72382803,,,,,,,
,,,,,,,,,,,,,,,,,,,,,,-26.11111111,21,20,75,30.88888889,9.888888889,9.888888889,-59.11111111,0.177188347,-0.307692384,1,0,0,0.4372,submitButton,-0.266312986,-0.380901935,0,0,0,0,17,17,5,1,21,69076,1,180,2022-02-22_11h18.53.568,orientation adjustment 1,2021.2.3,Win32,60.72382803,,,,,,,
,,,,,,,,,,,,,,,,,,,,,,-42.22222222,-64,20,75,-72.22222222,8.222222222,8.222222222,-162.2222222,0.192042458,-0.287533168,1,0,0,0.2161,submitButton,-0.237665771,-0.391512014,0,0,0,0,18,18,48,1,64,69076,1,180,2022-02-22_11h18.53.568,orientation adjustment 1,2021.2.3,Win32,60.72382803,,,,,,,
,,,,,,,,,,,,,,,,,,,,,,-65.55555556,18,20,75,4.444444444,13.55555556,13.55555556,-85.55555556,0.194164474,-0.277984096,1,0,0,0.2799,submitButton,-0.236604698,-0.390450942,0,0,0,0,19,19,2,1,18,69076,1,180,2022-02-22_11h18.53.568,orientation adjustment 1,2021.2.3,Win32,60.72382803,,,,,,,
,,,,,,,,,,,,,,,,,,,,,,-32.22222222,-25,20,75,-38.22222222,13.22222222,13.22222222,-128.2222222,0.384084902,-0.291777265,1,0,0,0.316,submitButton,-0.205835532,-0.381962943,0,0,0,0,20,20,9,1,25,69076,1,180,2022-02-22_11h18.53.568,orientation adjustment 1,2021.2.3,Win32,60.72382803,,,,,,,
,,,,,,,,,,,,,,,,,,,,,,-35.55555556,-44,20,75,-45.55555556,1.555555556,1.555555556,-135.5555556,0.176127339,-0.297082305,1,0,0,0.6997,submitButton,-0.233421739,-0.415915133,0,0,0,0,21,21,28,1,44,69076,1,180,2022-02-22_11h18.53.568,orientation adjustment 1,2021.2.3,Win32,60.72382803,,,,,,,
,,,,,,,,,,,,,,,,,,,,,,-23.88888889,-35,20,75,-58.88888889,23.88888889,23.88888889,-148.8888889,-0.19628646,-0.392573022,1,0,0,0.7325,submitButton,-0.19628646,-0.392573022,0,0,0,0,22,22,19,1,35,69076,1,180,2022-02-22_11h18.53.568,orientation adjustment 1,2021.2.3,Win32,60.72382803,,,,,,,
,,,,,,,,,,,,,,,,,,,,,,-67.77777778,-43,20,75,-55.77777778,12.77777778,12.77777778,-145.7777778,0.168700283,-0.296021297,1,0,0,0.3665,submitButton,-0.220689579,-0.400000013,0,0,0,0,23,23,27,1,43,69076,1,180,2022-02-22_11h18.53.568,orientation adjustment 1,2021.2.3,Win32,60.72382803,,,,,,,
,,,,,,,,,,,,,,,,,,,,,,66.66666667,-61,20,75,-31.33333333,29.66666667,29.66666667,-121.3333333,0.423342326,-0.277984096,1,0,0,0.2996,submitButton,-0.244031819,-0.395755982,0,0,0,0,24,24,45,1,61,69076,1,180,2022-02-22_11h18.53.568,orientation adjustment 1,2021.2.3,Win32,60.72382803,,,,,,,
,,,,,,,,,,,,,,,,,,,,,,-44.44444444,-70,20,75,-70.44444444,0.444444444,0.444444444,-160.4444444,0.187798426,-0.288594176,1,0,0,0.4131,submitButton,-0.211140572,-0.393633966,0,0,0,0,25,25,54,1,70,69076,1,180,2022-02-22_11h18.53.568,orientation adjustment 1,2021.2.3,Win32,60.72382803,,,,,,,
,,,,,,,,,,,,,,,,,,,,,,-63.33333333,-73,20,75,-225.3333333,27.66666667,27.66666667,-315.3333333,0.366047766,-0.271618049,1,0,0,2.0158,submitButton,-0.292838185,-0.416976141,0,0,0,0,26,26,57,1,73,69076,1,180,2022-02-22_11h18.53.568,orientation adjustment 1,2021.2.3,Win32,60.72382803,,,,,,,
,,,,,,,,,,,,,,,,,,,,,,40,-63,20,75,-56,7,7,-146,0.408488085,-0.284350144,1,0,0,0.3998,submitButton,-0.377718823,-0.404244045,0,0,0,0,27,27,47,1,63,69076,1,180,2022-02-22_11h18.53.568,orientation adjustment 1,2021.2.3,Win32,60.72382803,,,,,,,
,,,,,,,,,,,,,,,,,,,,,,22.22222222,50,20,75,42.22222222,7.777777778,7.777777778,-47.77777778,0.404244053,-0.281167185,1,0,0,0.3136,submitButton,-0.174005292,-0.383023886,0,0,0,0,28,28,34,1,50,69076,1,180,2022-02-22_11h18.53.568,orientation adjustment 1,2021.2.3,Win32,60.72382803,,,,,,,
,,,,,,,,,,,,,,,,,,,,,,-58.33333333,-40,20,75,-62.33333333,22.33333333,22.33333333,-152.3333333,0.19628649,-0.299204256,1,0,0,0.066,submitButton,0.266313016,-0.410610093,1,0,0,0,29,29,24,1,40,69076,1,180,2022-02-22_11h18.53.568,orientation adjustment 1,2021.2.3,Win32,60.72382803,pause_continueButton,,,,,,
,,,,,,,,,,,,,,,,,,,,,,67.22222222,37,20,75,203.2222222,13.77777778,13.77777778,113.2222222,0.179310363,-0.310875344,1,0,0,0.4531,submitButton,-0.287533146,-0.386206975,0,0,0,0,30,30,21,1,37,69076,1,180,2022-02-22_11h18.53.568,orientation adjustment 1,2021.2.3,Win32,60.72382803,,,,,,,
,,,,,,,,,,,,,,,,,,,,,,-25.55555556,-19,20,75,-44.55555556,25.55555556,25.55555556,-134.5555556,-0.103978701,-0.344827664,1,0,0,0.0858,submitButton,0.026525215,-0.272679057,0,0,0,0,31,31,3,1,19,69076,1,180,2022-02-22_11h18.53.568,orientation adjustment 1,2021.2.3,Win32,60.72382803,,,,,,,
,,,,,,,,,,,,,,,,,,,,,,49.44444444,-68,20,75,-52.55555556,15.44444444,15.44444444,-142.5555556,0.421220181,-0.272679057,1,0,0,0.2699,submitButton,-0.319363385,-0.373474814,0,0,0,0,32,32,52,1,68,69076,1,180,2022-02-22_11h18.53.568,orientation adjustment 1,2021.2.3,Win32,60.72382803,,,,,,,
,,,,,,,,,,,,,,,,,,,,,,47.77777778,-42,20,75,-34.22222222,7.777777778,7.777777778,-124.2222222,0.407427206,-0.309814336,1,0,0,0.4475,submitButton,-0.242970811,-0.386206975,0,0,0,0,33,33,26,1,42,69076,1,180,2022-02-22_11h18.53.568,orientation adjustment 1,2021.2.3,Win32,60.72382803,,,,,,,
,,,,,,,,,,,,,,,,,,,,,,-47.77777778,49,20,75,32.22222222,16.77777778,16.77777778,-57.77777778,-0.194164379,-0.345888607,1,0,0,1.0133,submitButton,-0.219628635,-0.389389934,0,0,0,0,34,34,33,1,49,69076,1,180,2022-02-22_11h18.53.568,orientation adjustment 1,2021.2.3,Win32,60.72382803,,,,,,,
,,,,,,,,,,,,,,,,,,,,,,-62.77777778,-29,20,75,-57.77777778,28.77777778,28.77777778,-147.7777778,0.20689657,-0.307692384,1,0,0,0.2702,submitButton,-0.230238715,-0.393633966,0,0,0,0,35,35,13,1,29,69076,1,180,2022-02-22_11h18.53.568,orientation adjustment 1,2021.2.3,Win32,60.72382803,,,,,,,
,,,,,,,,,,,,,,,,,,,,,,66.66666667,-34,20,75,-27.33333333,6.666666667,6.666666667,-117.3333333,0.402122167,-0.265252066,1,0,0,0.2303,submitButton,-0.161273197,-0.383023886,0,0,0,0,36,36,18,1,34,69076,1,180,2022-02-22_11h18.53.568,orientation adjustment 1,2021.2.3,Win32,60.72382803,,,,,,,
,,,,,,,,,,,,,,,,,,,,,,26.66666667,-55,20,75,-57.33333333,2.333333333,2.333333333,-147.3333333,0.381962886,-0.290716257,1,0,0,0.2864,submitButton,-0.257824858,-0.426525213,0,0,0,0,37,37,39,1,55,69076,1,180,2022-02-22_11h18.53.568,orientation adjustment 1,2021.2.3,Win32,60.72382803,,,,,,,
,,,,,,,,,,,,,,,,,,,,,,-25,36,20,75,28,8,8,-62,0.220689674,-0.304509296,1,0,0,0.0839,submitButton,-0.184615372,-0.413793182,0,0,0,0,38,38,20,1,36,69076,1,180,2022-02-22_11h18.53.568,orientation adjustment 1,2021.2.3,Win32,60.72382803,,,,,,,
,,,,,,,,,,,,,,,,,,,,,,24.44444444,-26,20,75,-1.555555556,24.44444444,24.44444444,-91.55555556,-0.083819615,-0.366047823,1,0,0,0.8165,submitButton,-0.154907149,-0.397878062,0,0,0,0,39,39,10,1,26,69076,1,180,2022-02-22_11h18.53.568,orientation adjustment 1,2021.2.3,Win32,60.72382803,,,,,,,
,,,,,,,,,,,,,,,,,,,,,,-28.88888889,-27,20,75,-26.88888889,0.111111111,0.111111111,-116.8888889,-0.2015915,-0.380901935,1,0,0,1.0501,submitButton,-0.2015915,-0.380901935,0,0,0,0,40,40,11,1,27,69076,1,180,2022-02-22_11h18.53.568,orientation adjustment 1,2021.2.3,Win32,60.72382803,,,,,,,
,,,,,,,,,,,,,,,,,,,,,,-20.55555556,-46,20,75,-44.55555556,1.444444444,1.444444444,-134.5555556,0.166578267,-0.291777265,1,0,0,0.2335,submitButton,-0.1750663,-0.413793182,0,0,0,0,41,41,30,1,46,69076,1,180,2022-02-22_11h18.53.568,orientation adjustment 1,2021.2.3,Win32,60.72382803,,,,,,,
,,,,,,,,,,,,,,,,,,,,,,67.77777778,56,20,75,212.7777778,23.22222222,23.22222222,122.7777778,0.210079594,-0.293899216,1,0,0,0.3151,submitButton,-0.199469419,-0.388328926,0,0,0,0,42,42,40,1,56,69076,1,180,2022-02-22_11h18.53.568,orientation adjustment 1,2021.2.3,Win32,60.72382803,,,,,,,
,,,,,,,,,,,,,,,,,,,,,,21.11111111,-54,20,75,-32.88888889,21.11111111,21.11111111,-122.8888889,-0.136870013,-0.401061021,1,0,0,0.8334,submitButton,-0.136870013,-0.401061021,0,0,0,0,43,43,38,1,54,69076,1,180,2022-02-22_11h18.53.568,orientation adjustment 1,2021.2.3,Win32,60.72382803,,,,,,,
,,,,,,,,,,,,,,,,,,,,,,58.88888889,-32,20,75,-32.11111111,0.111111111,0.111111111,-122.1111111,0.397878005,-0.283289136,1,0,0,0.4498,submitButton,0.282228136,-0.422281181,1,0,0,0,44,44,16,1,32,69076,1,180,2022-02-22_11h18.53.568,orientation adjustment 1,2021.2.3,Win32,60.72382803,pause_continueButton,,,,,,
,,,,,,,,,,,,,,,,,,,,,,36.11111111,-33,20,75,-31.88888889,1.111111111,1.111111111,-121.8888889,0.421220181,-0.298143248,1,0,0,0.1336,submitButton,-0.174005292,-0.388328926,0,0,0,0,45,45,17,1,33,69076,1,180,2022-02-22_11h18.53.568,orientation adjustment 1,2021.2.3,Win32,60.72382803,,,,,,,
,,,,,,,,,,,,,,,,,,,,,,42.77777778,-59,20,75,-48.22222222,10.77777778,10.77777778,-138.2222222,-0.153846141,-0.400000013,1,0,0,1.1637,submitButton,-0.153846141,-0.400000013,0,0,0,0,46,46,43,1,59,69076,1,180,2022-02-22_11h18.53.568,orientation adjustment 1,2021.2.3,Win32,60.72382803,,,,,,,
,,,,,,,,,,,,,,,,,,,,,,42.22222222,-47,20,75,-28.77777778,18.22222222,18.22222222,-118.7777778,0.393633973,-0.286472225,1,0,0,0.7662,submitButton,-0.279045017,-0.405305053,0,0,0,0,47,47,31,1,47,69076,1,180,2022-02-22_11h18.53.568,orientation adjustment 1,2021.2.3,Win32,60.72382803,,,,,,,
,,,,,,,,,,,,,,,,,,,,,,-52.77777778,31,20,75,20.22222222,10.77777778,10.77777778,-69.77777778,0.198408506,-0.283289136,1,0,0,0.1827,submitButton,-0.131564974,-0.394694974,0,0,0,0,48,48,15,1,31,69076,1,180,2022-02-22_11h18.53.568,orientation adjustment 1,2021.2.3,Win32,60.72382803,,,,,,,
,,,,,,,,,,,,,,,,,,,,,,-34.44444444,-62,20,75,-73.44444444,11.44444444,11.44444444,-163.4444444,0.214323626,-0.315119376,1,0,0,0.316,submitButton,-0.170822269,-0.396817054,0,0,0,0,49,49,46,1,62,69076,1,180,2022-02-22_11h18.53.568,orientation adjustment 1,2021.2.3,Win32,60.72382803,,,,,,,
,,,,,,,,,,,,,,,,,,,,,,72.22222222,75,20,75,219.2222222,35.77777778,35.77777778,129.2222222,-0.168700253,-0.403183102,1,0,0,1.883,submitButton,-0.168700253,-0.403183102,0,0,0,0,50,50,59,1,75,69076,1,180,2022-02-22_11h18.53.568,orientation adjustment 1,2021.2.3,Win32,60.72382803,,,,,,,
,,,,,,,,,,,,,,,,,,,,,,-27.77777778,51,20,75,52.22222222,1.222222222,1.222222222,-37.77777778,-0.159151181,-0.389389934,1,0,0,1.0971,submitButton,-0.159151181,-0.389389934,0,0,0,0,51,51,35,1,51,69076,1,180,2022-02-22_11h18.53.568,orientation adjustment 1,2021.2.3,Win32,60.72382803,,,,,,,
,,,,,,,,,,,,,,,,,,,,,,-21.11111111,-30,20,75,-21.11111111,8.888888889,8.888888889,-111.1111111,0.223872698,-0.292838208,1,0,0,0.0203,submitButton,-0.207957548,-0.419098222,0,0,0,0,52,52,14,1,30,69076,1,180,2022-02-22_11h18.53.568,orientation adjustment 1,2021.2.3,Win32,60.72382803,,,,,,,
,,,,,,,,,,,,,,,,,,,,,,-61.66666667,69,20,75,39.33333333,29.66666667,29.66666667,-50.66666667,-0.153846141,-0.395755982,1,0,0,1.2804,submitButton,-0.153846141,-0.395755982,0,0,0,0,53,53,53,1,69,69076,1,180,2022-02-22_11h18.53.568,orientation adjustment 1,2021.2.3,Win32,60.72382803,,,,,,,
,,,,,,,,,,,,,,,,,,,,,,-48.33333333,45,20,75,34.66666667,10.33333333,10.33333333,-55.33333333,0.19098145,-0.306631377,1,0,0,0.1327,submitButton,-0.140053037,-0.388328926,0,0,0,0,54,54,29,1,45,69076,1,180,2022-02-22_11h18.53.568,orientation adjustment 1,2021.2.3,Win32,60.72382803,,,,,,,
,,,,,,,,,,,,,,,,,,,,,,-53.33333333,53,20,75,40.66666667,12.33333333,12.33333333,-49.33333333,-0.19098142,-0.401061021,1,0,0,1.1468,submitButton,-0.19098142,-0.401061021,0,0,0,0,55,55,37,1,53,69076,1,180,2022-02-22_11h18.53.568,orientation adjustment 1,2021.2.3,Win32,60.72382803,,,,,,,
,,,,,,,,,,,,,,,,,,,,,,-55.55555556,16,20,75,36.44444444,20.44444444,20.44444444,-53.55555556,0.205835562,-0.302387345,1,0,0,0.9994,submitButton,-0.170822269,-0.408488142,0,0,0,0,56,56,0,1,16,69076,1,180,2022-02-22_11h18.53.568,orientation adjustment 1,2021.2.3,Win32,60.72382803,,,,,,,
,,,,,,,,,,,,,,,,,,,,,,-27.77777778,41,20,75,38.22222222,2.777777778,2.777777778,-51.77777778,0.219628666,-0.288594176,1,0,0,0.1302,submitButton,-0.235543755,-0.422281181,0,0,0,0,57,57,25,1,41,69076,1,180,2022-02-22_11h18.53.568,orientation adjustment 1,2021.2.3,Win32,60.72382803,,,,,,,
,,,,,,,,,,,,,,,,,,,,,,68.88888889,72,20,75,227.8888889,24.11111111,24.11111111,137.8888889,-0.141113981,-0.401061021,1,0,0,1.8631,submitButton,-0.141113981,-0.401061021,0,0,0,0,58,58,56,1,72,69076,1,180,2022-02-22_11h18.53.568,orientation adjustment 1,2021.2.3,Win32,60.72382803,,,,,,,
,,,,,,,,,,,,,,,,,,,,,,-48.33333333,52,20,75,36.66666667,15.33333333,15.33333333,-53.33333333,-0.188859339,-0.400000013,1,0,0,1.15,submitButton,0.430769252,-0.387267982,1,0,0,0,59,59,36,1,52,69076,1,180,2022-02-22_11h18.53.568,orientation adjustment 1,2021.2.3,Win32,60.72382803,pause_continueButton,,,,,,
,,,,,,,,,,,,,,,,,,,,,,45.55555556,43,20,75,96.55555556,53.55555556,53.55555556,6.555555556,0.174005323,-0.320424415,1,0,0,2.0323,submitButton,-0.18037134,-0.395755982,0,0,0,1,0,60,27,1,43,69076,1,180,2022-02-22_11h18.53.568,orientation adjustment 1,2021.2.3,Win32,60.72382803,,,,,,,
,,,,,,,,,,,,,,,,,,,,,,71.11111111,57,20,75,203.1111111,33.88888889,33.88888889,113.1111111,0.170822299,-0.296021297,1,0,0,0.1333,submitButton,-0.212201579,-0.391512014,0,0,0,1,1,61,41,1,57,69076,1,180,2022-02-22_11h18.53.568,orientation adjustment 1,2021.2.3,Win32,60.72382803,,,,,,,
,,,,,,,,,,,,,,,,,,,,,,-26.11111111,44,20,75,47.88888889,3.888888889,3.888888889,-42.11111111,-0.1750663,-0.397878062,1,0,0,1.1165,submitButton,-0.1750663,-0.397878062,0,0,0,1,2,62,28,1,44,69076,1,180,2022-02-22_11h18.53.568,orientation adjustment 1,2021.2.3,Win32,60.72382803,,,,,,,
,,,,,,,,,,,,,,,,,,,,,,52.22222222,62,20,75,211.2222222,30.77777778,30.77777778,121.2222222,0.19098145,-0.285411217,1,0,0,0.3667,submitButton,-0.111405822,-0.386206975,0,0,0,1,3,63,46,1,62,69076,1,180,2022-02-22_11h18.53.568,orientation adjustment 1,2021.2.3,Win32,60.72382803,,,,,,,
,,,,,,,,,,,,,,,,,,,,,,-57.22222222,29,20,75,43.77777778,14.77777778,14.77777778,-46.22222222,0.171883307,-0.272679057,1,0,0,0.366,submitButton,-0.182493356,-0.384084894,0,0,0,1,4,64,13,1,29,69076,1,180,2022-02-22_11h18.53.568,orientation adjustment 1,2021.2.3,Win32,60.72382803,,,,,,,
,,,,,,,,,,,,,,,,,,,,,,-68.88888889,-19,20,75,-48.88888889,29.88888889,29.88888889,-138.8888889,0.179310363,-0.300265264,1,0,0,0.3497,submitButton,-0.221750651,-0.414854125,0,0,0,1,5,65,3,1,19,69076,1,180,2022-02-22_11h18.53.568,orientation adjustment 1,2021.2.3,Win32,60.72382803,,,,,,,
,,,,,,,,,,,,,,,,,,,,,,55.55555556,61,20,75,192.5555556,48.44444444,48.44444444,102.5555556,0.179310363,-0.299204256,1,0,0,0.7662,submitButton,-0.203713516,-0.426525213,0,0,0,1,6,66,45,1,61,69076,1,180,2022-02-22_11h18.53.568,orientation adjustment 1,2021.2.3,Win32,60.72382803,,,,,,,
,,,,,,,,,,,,,,,,,,,,,,38.33333333,68,20,75,234.3333333,13.66666667,13.66666667,144.3333333,0.189920442,-0.280106177,1,0,0,0.1629,submitButton,-0.212201579,-0.402122094,0,0,0,1,7,67,52,1,68,69076,1,180,2022-02-22_11h18.53.568,orientation adjustment 1,2021.2.3,Win32,60.72382803,,,,,,,
,,,,,,,,,,,,,,,,,,,,,,-48.33333333,20,20,75,23.66666667,3.666666667,3.666666667,-66.33333333,-0.166578237,-0.446684364,1,0,0,1.2967,submitButton,-0.18567638,-0.406366061,0,0,0,1,8,68,4,1,20,69076,1,180,2022-02-22_11h18.53.568,orientation adjustment 1,2021.2.3,Win32,60.72382803,,,,,,,
,,,,,,,,,,,,,,,,,,,,,,45.55555556,-31,20,75,-32.44444444,1.444444444,1.444444444,-122.4444444,0.373474822,-0.281167185,1,0,0,0.4653,submitButton,-0.18037134,-0.402122094,0,0,0,1,9,69,15,1,31,69076,1,180,2022-02-22_11h18.53.568,orientation adjustment 1,2021.2.3,Win32,60.72382803,,,,,,,
,,,,,,,,,,,,,,,,,,,,,,68.33333333,-39,20,75,-31.66666667,7.333333333,7.333333333,-121.6666667,0.414854133,-0.293899216,1,0,0,0.3676,submitButton,-0.239787787,-0.401061021,0,0,0,1,10,70,23,1,39,69076,1,180,2022-02-22_11h18.53.568,orientation adjustment 1,2021.2.3,Win32,60.72382803,,,,,,,
,,,,,,,,,,,,,,,,,,,,,,66.66666667,-45,20,75,-31.33333333,13.66666667,13.66666667,-121.3333333,0.391512087,-0.276923089,1,0,0,0.299,submitButton,-0.28010609,-0.394694974,0,0,0,1,11,71,29,1,45,69076,1,180,2022-02-22_11h18.53.568,orientation adjustment 1,2021.2.3,Win32,60.72382803,,,,,,,
,,,,,,,,,,,,,,,,,,,,,,-51.11111111,36,20,75,34.88888889,1.111111111,1.111111111,-55.11111111,0.216445642,-0.296021297,1,0,0,0.1131,submitButton,-0.214323595,-0.421220173,0,0,0,1,12,72,20,1,36,69076,1,180,2022-02-22_11h18.53.568,orientation adjustment 1,2021.2.3,Win32,60.72382803,,,,,,,
,,,,,,,,,,,,,,,,,,,,,,66.11111111,-55,20,75,-40.88888889,14.11111111,14.11111111,-130.8888889,0.448806388,-0.289655184,1,0,0,0.266,submitButton,-0.235543755,-0.390450942,0,0,0,1,13,73,39,1,55,69076,1,180,2022-02-22_11h18.53.568,orientation adjustment 1,2021.2.3,Win32,60.72382803,,,,,,,
,,,,,,,,,,,,,,,,,,,,,,-62.22222222,34,20,75,26.77777778,7.222222222,7.222222222,-63.22222222,-0.176127308,-0.409549085,1,0,0,1.6163,submitButton,0.318302407,-0.413793182,1,0,0,1,14,74,18,1,34,69076,1,180,2022-02-22_11h18.53.568,orientation adjustment 1,2021.2.3,Win32,60.72382803,pause_continueButton,,,,,,
,,,,,,,,,,,,,,,,,,,,,,50.55555556,63,20,75,217.5555556,25.44444444,25.44444444,127.5555556,-0.307692297,-0.400000013,1,0,0,2.0665,submitButton,-0.307692297,-0.400000013,0,0,0,1,15,75,47,1,63,69076,1,180,2022-02-22_11h18.53.568,orientation adjustment 1,2021.2.3,Win32,60.72382803,,,,,,,
,,,,,,,,,,,,,,,,,,,,,,-54.44444444,-50,20,75,-59.44444444,9.444444444,9.444444444,-149.4444444,0.176127339,-0.297082305,1,0,0,0.2332,submitButton,-0.238726779,-0.401061021,0,0,0,1,16,76,34,1,50,69076,1,180,2022-02-22_11h18.53.568,orientation adjustment 1,2021.2.3,Win32,60.72382803,,,,,,,
,,,,,,,,,,,,,,,,,,,,,,-21.66666667,66,20,75,-35.66666667,78.33333333,78.33333333,-125.6666667,0.433952406,-0.292838208,1,0,0,0.7825,submitButton,-0.312997337,-0.392573022,0,0,0,1,17,77,50,1,66,69076,1,180,2022-02-22_11h18.53.568,orientation adjustment 1,2021.2.3,Win32,60.72382803,,,,,,,
,,,,,,,,,,,,,,,,,,,,,,-61.66666667,-54,20,75,-228.6666667,5.333333333,5.333333333,-318.6666667,0.387267925,-0.291777265,1,0,0,0.2824,submitButton,-0.222811659,-0.394694974,0,0,0,1,18,78,38,1,54,69076,1,180,2022-02-22_11h18.53.568,orientation adjustment 1,2021.2.3,Win32,60.72382803,,,,,,,
,,,,,,,,,,,,,,,,,,,,,,47.77777778,22,20,75,29.77777778,7.777777778,7.777777778,-60.22222222,0.376657846,-0.296021297,1,0,0,0.2323,submitButton,-0.216445611,-0.397878062,0,0,0,1,19,79,6,1,22,69076,1,180,2022-02-22_11h18.53.568,orientation adjustment 1,2021.2.3,Win32,60.72382803,,,,,,,
,,,,,,,,,,,,,,,,,,,,,,36.66666667,73,20,75,227.6666667,25.33333333,25.33333333,137.6666667,0.213262618,-0.283289136,1,0,0,0.0823,submitButton,-0.228116699,-0.391512014,0,0,0,1,20,80,57,1,73,69076,1,180,2022-02-22_11h18.53.568,orientation adjustment 1,2021.2.3,Win32,60.72382803,,,,,,,
,,,,,,,,,,,,,,,,,,,,,,60,30,20,75,223,13,13,133,0.194164474,-0.298143248,1,0,0,0.3825,submitButton,-0.219628635,-0.383023886,0,0,0,1,21,81,14,1,30,69076,1,180,2022-02-22_11h18.53.568,orientation adjustment 1,2021.2.3,Win32,60.72382803,,,,,,,
,,,,,,,,,,,,,,,,,,,,,,-20,-21,20,75,-60,39,39,-150,0.398939013,-0.312997424,1,0,0,0.9665,submitButton,-0.328912457,-0.377718846,0,0,0,1,22,82,5,1,21,69076,1,180,2022-02-22_11h18.53.568,orientation adjustment 1,2021.2.3,Win32,60.72382803,,,,,,,
,,,,,,,,,,,,,,,,,,,,,,-47.22222222,-49,20,75,-51.22222222,2.222222222,2.222222222,-141.2222222,0.215384634,-0.294960224,1,0,0,0.399,submitButton,-0.17294422,-0.381962943,0,0,0,1,23,83,33,1,49,69076,1,180,2022-02-22_11h18.53.568,orientation adjustment 1,2021.2.3,Win32,60.72382803,,,,,,,
,,,,,,,,,,,,,,,,,,,,,,57.22222222,16,20,75,33.22222222,17.22222222,17.22222222,-56.77777778,0.400000021,-0.307692384,1,0,0,0.0661,submitButton,-0.16763918,-0.401061021,0,0,0,1,24,84,0,1,16,69076,1,180,2022-02-22_11h18.53.568,orientation adjustment 1,2021.2.3,Win32,60.72382803,,,,,,,
,,,,,,,,,,,,,,,,,,,,,,-29.44444444,60,20,75,58.55555556,1.444444444,1.444444444,-31.44444444,0.189920442,-0.301326337,1,0,0,1.2162,submitButton,-0.199469419,-0.383023886,0,0,0,1,25,85,44,1,60,69076,1,180,2022-02-22_11h18.53.568,orientation adjustment 1,2021.2.3,Win32,60.72382803,,,,,,,
,,,,,,,,,,,,,,,,,,,,,,56.66666667,-70,20,75,-55.33333333,14.66666667,14.66666667,-145.3333333,0.409549093,-0.324668447,1,0,0,0.3821,submitButton,-0.283289114,-0.400000013,0,0,0,1,26,86,54,1,70,69076,1,180,2022-02-22_11h18.53.568,orientation adjustment 1,2021.2.3,Win32,60.72382803,,,,,,,
,,,,,,,,,,,,,,,,,,,,,,-56.66666667,28,20,75,18.33333333,9.666666667,9.666666667,-71.66666667,0.198408506,-0.287533168,0,0,1,0.2332,submitButton,-0.203713516,-0.419098222,0,0,0,1,27,87,12,1,28,69076,1,180,2022-02-22_11h18.53.568,orientation adjustment 1,2021.2.3,Win32,60.72382803,,,,,,,
,,,,,,,,,,,,,,,,,,,,,,52.22222222,64,20,75,227.2222222,16.77777778,16.77777778,137.2222222,-0.152785133,-0.400000013,1,0,0,2.3161,submitButton,-0.152785133,-0.400000013,0,0,0,1,28,88,48,1,64,69076,1,180,2022-02-22_11h18.53.568,orientation adjustment 1,2021.2.3,Win32,60.72382803,,,,,,,
,,,,,,,,,,,,,,,,,,,,,,68.88888889,18,20,75,37.88888889,19.88888889,19.88888889,-52.11111111,0.420159173,-0.297082305,1,0,0,0.1161,submitButton,0.247214873,-0.383023886,1,0,0,1,29,89,2,1,18,69076,1,180,2022-02-22_11h18.53.568,orientation adjustment 1,2021.2.3,Win32,60.72382803,pause_continueButton,,,,,,
,,,,,,,,,,,,,,,,,,,,,,66.11111111,-59,20,75,-38.88888889,20.11111111,20.11111111,-128.8888889,-0.166578237,-0.392573022,1,0,0,1.1003,submitButton,-0.166578237,-0.392573022,0,0,0,1,30,90,43,1,59,69076,1,180,2022-02-22_11h18.53.568,orientation adjustment 1,2021.2.3,Win32,60.72382803,,,,,,,
,,,,,,,,,,,,,,,,,,,,,,50,33,20,75,55,22,22,-35,0.380902007,-0.290716257,1,0,0,0.1158,submitButton,-0.135808941,-0.391512014,0,0,0,1,31,91,17,1,33,69076,1,180,2022-02-22_11h18.53.568,orientation adjustment 1,2021.2.3,Win32,60.72382803,,,,,,,
,,,,,,,,,,,,,,,,,,,,,,68.33333333,-17,20,75,-24.66666667,7.666666667,7.666666667,-114.6666667,0.393633973,-0.285411217,1,0,0,0.0337,submitButton,-0.18037134,-0.387267982,0,0,0,1,32,92,1,1,17,69076,1,180,2022-02-22_11h18.53.568,orientation adjustment 1,2021.2.3,Win32,60.72382803,,,,,,,
,,,,,,,,,,,,,,,,,,,,,,-42.77777778,27,20,75,27.22222222,0.222222222,0.222222222,-62.77777778,-0.164456221,-0.386206975,1,0,0,1.0666,submitButton,-0.164456221,-0.386206975,0,0,0,1,33,93,11,1,27,69076,1,180,2022-02-22_11h18.53.568,orientation adjustment 1,2021.2.3,Win32,60.72382803,,,,,,,
,,,,,,,,,,,,,,,,,,,,,,-65.55555556,-74,20,75,-227.5555556,26.44444444,26.44444444,-317.5555556,-0.161273197,-0.404244045,1,0,0,1.8639,submitButton,-0.161273197,-0.404244045,0,0,0,1,34,94,58,1,74,69076,1,180,2022-02-22_11h18.53.568,orientation adjustment 1,2021.2.3,Win32,60.72382803,,,,,,,
,,,,,,,,,,,,,,,,,,,,,,-73.33333333,24,20,75,26.66666667,2.666666667,2.666666667,-63.33333333,-0.170822269,-0.397878062,1,0,0,1.8162,submitButton,0.168700283,-0.361803726,0,0,0,1,35,95,8,1,24,69076,1,180,2022-02-22_11h18.53.568,orientation adjustment 1,2021.2.3,Win32,60.72382803,,,,,,,
,,,,,,,,,,,,,,,,,,,,,,-51.66666667,53,20,75,38.33333333,14.66666667,14.66666667,-51.66666667,-0.125198861,-0.415915133,1,0,0,0.7327,submitButton,-0.125198861,-0.415915133,0,0,0,1,36,96,37,1,53,69076,1,180,2022-02-22_11h18.53.568,orientation adjustment 1,2021.2.3,Win32,60.72382803,,,,,,,
,,,,,,,,,,,,,,,,,,,,,,-30,35,20,75,39,4,4,-51,-0.142175053,-0.396817054,1,0,0,0.9634,submitButton,-0.142175053,-0.396817054,0,0,0,1,37,97,19,1,35,69076,1,180,2022-02-22_11h18.53.568,orientation adjustment 1,2021.2.3,Win32,60.72382803,,,,,,,
,,,,,,,,,,,,,,,,,,,,,,-38.88888889,-75,20,75,-217.8888889,37.11111111,37.11111111,-307.8888889,-0.154907149,-0.368169774,1,0,0,2.2802,submitButton,-0.192042428,-0.398939005,0,0,0,1,38,98,59,1,75,69076,1,180,2022-02-22_11h18.53.568,orientation adjustment 1,2021.2.3,Win32,60.72382803,,,,,,,
,,,,,,,,,,,,,,,,,,,,,,-35.55555556,32,20,75,33.44444444,1.444444444,1.444444444,-56.55555556,-0.138992029,-0.393633966,1,0,0,1.38,submitButton,-0.138992029,-0.393633966,0,0,0,1,39,99,16,1,32,69076,1,180,2022-02-22_11h18.53.568,orientation adjustment 1,2021.2.3,Win32,60.72382803,,,,,,,
,,,,,,,,,,,,,,,,,,,,,,51.66666667,72,20,75,231.6666667,20.33333333,20.33333333,141.6666667,-0.150663117,-0.366047823,1,0,0,2.3472,submitButton,-0.150663117,-0.394694974,0,0,0,1,40,100,56,1,72,69076,1,180,2022-02-22_11h18.53.568,orientation adjustment 1,2021.2.3,Win32,60.72382803,,,,,,,
,,,,,,,,,,,,,,,,,,,,,,37.77777778,-67,20,75,-75.22222222,8.222222222,8.222222222,-165.2222222,-0.257824858,-0.407427134,1,0,0,1.2683,submitButton,-0.257824858,-0.407427134,0,0,0,1,41,101,51,1,67,69076,1,180,2022-02-22_11h18.53.568,orientation adjustment 1,2021.2.3,Win32,60.72382803,,,,,,,
,,,,,,,,,,,,,,,,,,,,,,-62.22222222,40,20,75,36.77777778,3.222222222,3.222222222,-53.22222222,0.215384634,-0.309814336,1,0,0,0.1665,submitButton,-0.154907149,-0.403183102,0,0,0,1,42,102,24,1,40,69076,1,180,2022-02-22_11h18.53.568,orientation adjustment 1,2021.2.3,Win32,60.72382803,,,,,,,
,,,,,,,,,,,,,,,,,,,,,,-43.33333333,41,20,75,43.66666667,2.666666667,2.666666667,-46.33333333,0.197347498,-0.310875344,1,0,0,0.183,submitButton,-0.155968157,-0.402122094,0,0,0,1,43,103,25,1,41,69076,1,180,2022-02-22_11h18.53.568,orientation adjustment 1,2021.2.3,Win32,60.72382803,,,,,,,
,,,,,,,,,,,,,,,,,,,,,,-60.55555556,42,20,75,36.44444444,5.555555556,5.555555556,-53.55555556,-0.099734734,-0.397878062,1,0,0,1.4498,submitButton,0.238726809,-0.395755982,1,0,0,1,44,104,26,1,42,69076,1,180,2022-02-22_11h18.53.568,orientation adjustment 1,2021.2.3,Win32,60.72382803,pause_continueButton,,,,,,
,,,,,,,,,,,,,,,,,,,,,,71.66666667,-38,20,75,-35.33333333,2.666666667,2.666666667,-125.3333333,-0.11777187,-0.378779854,1,0,0,1.5635,submitButton,-0.11777187,-0.378779854,0,0,0,1,45,105,22,1,38,69076,1,180,2022-02-22_11h18.53.568,orientation adjustment 1,2021.2.3,Win32,60.72382803,,,,,,,
,,,,,,,,,,,,,,,,,,,,,,-70,37,20,75,34,3,3,-56,-0.161273197,-0.385145902,1,0,0,1.381,submitButton,-0.161273197,-0.385145902,0,0,0,1,46,106,21,1,37,69076,1,180,2022-02-22_11h18.53.568,orientation adjustment 1,2021.2.3,Win32,60.72382803,,,,,,,
,,,,,,,,,,,,,,,,,,,,,,-35.55555556,47,20,75,50.44444444,3.444444444,3.444444444,-39.55555556,-0.165517229,-0.401061021,1,0,0,0.8994,submitButton,-0.165517229,-0.401061021,0,0,0,1,47,107,31,1,47,69076,1,180,2022-02-22_11h18.53.568,orientation adjustment 1,2021.2.3,Win32,60.72382803,,,,,,,
,,,,,,,,,,,,,,,,,,,,,,-75,56,20,75,44,12,12,-46,-0.125198861,-0.392573022,1,0,0,1.3016,submitButton,-0.125198861,-0.392573022,0,0,0,1,48,108,40,1,56,69076,1,180,2022-02-22_11h18.53.568,orientation adjustment 1,2021.2.3,Win32,60.72382803,,,,,,,
,,,,,,,,,,,,,,,,,,,,,,42.77777778,-23,20,75,-23.22222222,0.222222222,0.222222222,-113.2222222,0.408488085,-0.269496097,1,0,0,0.0164,submitButton,-0.242970811,-0.376657903,0,0,0,1,49,109,7,1,23,69076,1,180,2022-02-22_11h18.53.568,orientation adjustment 1,2021.2.3,Win32,60.72382803,,,,,,,
,,,,,,,,,,,,,,,,,,,,,,23.88888889,-65,20,75,-68.11111111,3.111111111,3.111111111,-158.1111111,0.410610101,-0.284350144,1,0,0,0.0163,submitButton,-0.26419097,-0.408488142,0,0,0,1,50,110,49,1,65,69076,1,180,2022-02-22_11h18.53.568,orientation adjustment 1,2021.2.3,Win32,60.72382803,,,,,,,
,,,,,,,,,,,,,,,,,,,,,,59.44444444,-69,20,75,-50.55555556,18.44444444,18.44444444,-140.5555556,-0.242970811,-0.400000013,1,0,0,1.1966,submitButton,-0.242970811,-0.400000013,0,0,0,1,51,111,53,1,69,69076,1,180,2022-02-22_11h18.53.568,orientation adjustment 1,2021.2.3,Win32,60.72382803,,,,,,,
,,,,,,,,,,,,,,,,,,,,,,-21.66666667,-71,20,75,-63.66666667,7.333333333,7.333333333,-153.6666667,0.142175084,-0.310875344,1,0,0,0.0828,submitButton,-0.189920412,-0.402122094,0,0,0,1,52,112,55,1,71,69076,1,180,2022-02-22_11h18.53.568,orientation adjustment 1,2021.2.3,Win32,60.72382803,,,,,,,
,,,,,,,,,,,,,,,,,,,,,,72.77777778,26,20,75,208.7777778,2.777777778,2.777777778,118.7777778,0.204774554,-0.304509296,1,0,0,0.0329,submitButton,-0.132625981,-0.404244045,0,0,0,1,53,113,10,1,26,69076,1,180,2022-02-22_11h18.53.568,orientation adjustment 1,2021.2.3,Win32,60.72382803,,,,,,,
,,,,,,,,,,,,,,,,,,,,,,25,25,20,75,-23,48,48,-113,0.402122167,-0.297082305,1,0,0,0.3658,submitButton,-0.200530492,-0.387267982,0,0,0,1,54,114,9,1,25,69076,1,180,2022-02-22_11h18.53.568,orientation adjustment 1,2021.2.3,Win32,60.72382803,,,,,,,
,,,,,,,,,,,,,,,,,,,,,,48.88888889,46,20,75,217.8888889,8.111111111,8.111111111,127.8888889,-0.17824926,-0.378779854,1,0,0,2.4807,submitButton,-0.17824926,-0.378779854,0,0,0,1,55,115,30,1,46,69076,1,180,2022-02-22_11h18.53.568,orientation adjustment 1,2021.2.3,Win32,60.72382803,,,,,,,
,,,,,,,,,,,,,,,,,,,,,,-66.11111111,52,20,75,25.88888889,26.11111111,26.11111111,-64.11111111,0.182493387,-0.291777265,1,0,0,0.0833,submitButton,-0.176127308,-0.394694974,0,0,0,1,56,116,36,1,52,69076,1,180,2022-02-22_11h18.53.568,orientation adjustment 1,2021.2.3,Win32,60.72382803,,,,,,,
,,,,,,,,,,,,,,,,,,,,,,20,58,20,75,52,6,6,-38,0.430769252,-0.294960224,1,0,0,0.3325,submitButton,-0.1570291,-0.394694974,0,0,0,1,57,117,42,1,58,69076,1,180,2022-02-22_11h18.53.568,orientation adjustment 1,2021.2.3,Win32,60.72382803,,,,,,,
,,,,,,,,,,,,,,,,,,,,,,-40.55555556,-51,20,75,-59.55555556,8.555555556,8.555555556,-149.5555556,0.158090203,-0.311936416,1,0,0,0.0498,submitButton,-0.15172406,-0.396817054,0,0,0,1,58,118,35,1,51,69076,1,180,2022-02-22_11h18.53.568,orientation adjustment 1,2021.2.3,Win32,60.72382803,,,,,,,
,,,,,,,,,,,,,,,,,,,,,,73.33333333,-48,20,75,-31.66666667,16.33333333,16.33333333,-121.6666667,0.371352806,-0.301326337,1,0,0,0.0327,submitButton,0.263129993,-0.397878062,1,0,0,1,59,119,32,1,48,69076,1,180,2022-02-22_11h18.53.568,orientation adjustment 1,2021.2.3,Win32,60.72382803,pause_continueButton,,,,,,
,,,,,,,,,,,,,,,,,,,,,,53.33333333,71,20,75,214.3333333,36.66666667,36.66666667,124.3333333,0.223872698,-0.328912544,1,0,0,0.1165,submitButton,-0.298143225,-0.418037214,0,0,0,2,0,120,55,1,71,69076,1,180,2022-02-22_11h18.53.568,orientation adjustment 1,2021.2.3,Win32,60.72382803,,,,,,,
,,,,,,,,,,,,,,,,,,,,,,38.33333333,-20,20,75,-34.66666667,14.66666667,14.66666667,-124.6666667,0.430769252,-0.287533168,1,0,0,0.086,submitButton,-0.26949601,-0.412732174,0,0,0,2,1,121,4,1,20,69076,1,180,2022-02-22_11h18.53.568,orientation adjustment 1,2021.2.3,Win32,60.72382803,,,,,,,
,,,,,,,,,,,,,,,,,,,,,,-56.11111111,-21,20,75,-45.11111111,24.11111111,24.11111111,-135.1111111,0.21220161,-0.273740065,1,0,0,0.0501,submitButton,-0.215384539,-0.390450942,0,0,0,2,2,122,5,1,21,69076,1,180,2022-02-22_11h18.53.568,orientation adjustment 1,2021.2.3,Win32,60.72382803,,,,,,,
,,,,,,,,,,,,,,,,,,,,,,-33.33333333,-70,20,75,-235.3333333,14.66666667,14.66666667,-325.3333333,-0.350132616,-0.354376735,1,0,0,2.6636,submitButton,-0.349071608,-0.393633966,0,0,0,2,3,123,54,1,70,69076,1,180,2022-02-22_11h18.53.568,orientation adjustment 1,2021.2.3,Win32,60.72382803,,,,,,,
,,,,,,,,,,,,,,,,,,,,,,-64.44444444,-52,20,75,-226.4444444,5.555555556,5.555555556,-316.4444444,-0.169761261,-0.392573022,1,0,0,2.0657,submitButton,-0.169761261,-0.392573022,0,0,0,2,4,124,36,1,52,69076,1,180,2022-02-22_11h18.53.568,orientation adjustment 1,2021.2.3,Win32,60.72382803,,,,,,,
,,,,,,,,,,,,,,,,,,,,,,-59.44444444,-36,20,75,-43.44444444,7.444444444,7.444444444,-133.4444444,0.199469514,-0.306631377,1,0,0,0.3329,submitButton,-0.170822269,-0.380901935,0,0,0,2,5,125,20,1,36,69076,1,180,2022-02-22_11h18.53.568,orientation adjustment 1,2021.2.3,Win32,60.72382803,,,,,,,
,,,,,,,,,,,,,,,,,,,,,,37.77777778,50,20,75,58.77777778,8.777777778,8.777777778,-31.22222222,0.386207047,-0.267374017,1,0,0,0.0655,submitButton,-0.130503901,-0.398939005,0,0,0,2,6,126,34,1,50,69076,1,180,2022-02-22_11h18.53.568,orientation adjustment 1,2021.2.3,Win32,60.72382803,,,,,,,
,,,,,,,,,,,,,,,,,,,,,,-71.11111111,-28,20,75,-40.11111111,12.11111111,12.11111111,-130.1111111,-0.1750663,-0.408488142,1,0,0,1.3302,submitButton,-0.1750663,-0.408488142,0,0,0,2,7,127,12,1,28,69076,1,180,2022-02-22_11h18.53.568,orientation adjustment 1,2021.2.3,Win32,60.72382803,,,,,,,
,,,,,,,,,,,,,,,,,,,,,,64.44444444,-25,20,75,-25.55555556,0.555555556,0.555555556,-115.5555556,-0.259946938,-0.398939005,1,0,0,1.716,submitButton,-0.259946938,-0.398939005,0,0,0,2,8,128,9,1,25,69076,1,180,2022-02-22_11h18.53.568,orientation adjustment 1,2021.2.3,Win32,60.72382803,,,,,,,
,,,,,,,,,,,,,,,,,,,,,,-46.66666667,-45,20,75,-54.66666667,9.666666667,9.666666667,-144.6666667,0.174005323,-0.331034495,1,0,0,0.0328,submitButton,-0.145358077,-0.400000013,0,0,0,2,9,129,29,1,45,69076,1,180,2022-02-22_11h18.53.568,orientation adjustment 1,2021.2.3,Win32,60.72382803,,,,,,,
,,,,,,,,,,,,,,,,,,,,,,-48.33333333,-57,20,75,-51.33333333,5.666666667,5.666666667,-141.3333333,0.187798426,-0.293899216,1,0,0,0.0161,submitButton,-0.129442958,-0.390450942,0,0,0,2,10,130,41,1,57,69076,1,180,2022-02-22_11h18.53.568,orientation adjustment 1,2021.2.3,Win32,60.72382803,,,,,,,
,,,,,,,,,,,,,,,,,,,,,,-26.11111111,27,20,75,30.88888889,3.888888889,3.888888889,-59.11111111,-0.153846141,-0.377718846,1,0,0,0.9465,submitButton,-0.153846141,-0.377718846,0,0,0,2,11,131,11,1,27,69076,1,180,2022-02-22_11h18.53.568,orientation adjustment 1,2021.2.3,Win32,60.72382803,,,,,,,
,,,,,,,,,,,,,,,,,,,,,,40.55555556,60,20,75,224.5555556,15.44444444,15.44444444,134.5555556,0.219628666,-0.300265264,1,0,0,0.6324,submitButton,-0.199469419,-0.405305053,0,0,0,2,12,132,44,1,60,69076,1,180,2022-02-22_11h18.53.568,orientation adjustment 1,2021.2.3,Win32,60.72382803,,,,,,,
,,,,,,,,,,,,,,,,,,,,,,23.33333333,18,20,75,21.33333333,3.333333333,3.333333333,-68.66666667,-0.154907149,-0.410610093,1,0,0,0.7828,submitButton,-0.154907149,-0.410610093,0,0,0,2,13,133,2,1,18,69076,1,180,2022-02-22_11h18.53.568,orientation adjustment 1,2021.2.3,Win32,60.72382803,,,,,,,
,,,,,,,,,,,,,,,,,,,,,,63.88888889,-53,20,75,-29.11111111,23.88888889,23.88888889,-119.1111111,-0.207957548,-0.398939005,1,0,0,1.0635,submitButton,0.223872698,-0.395755982,1,0,0,2,14,134,37,1,53,69076,1,180,2022-02-22_11h18.53.568,orientation adjustment 1,2021.2.3,Win32,60.72382803,pause_continueButton,,,,,,
,,,,,,,,,,,,,,,,,,,,,,-62.77777778,19,20,75,32.22222222,13.22222222,13.22222222,-57.77777778,0.185676411,-0.286472225,1,0,0,0.0487,submitButton,0.242970841,-0.112466853,0,0,0,2,15,135,3,1,19,69076,1,180,2022-02-22_11h18.53.568,orientation adjustment 1,2021.2.3,Win32,60.72382803,,,,,,,
,,,,,,,,,,,,,,,,,,,,,,43.88888889,-43,20,75,-33.11111111,9.888888889,9.888888889,-123.1111111,-0.170822269,-0.356498687,1,0,0,0.8799,submitButton,-0.152785133,-0.252519905,0,0,0,2,16,136,27,1,43,69076,1,180,2022-02-22_11h18.53.568,orientation adjustment 1,2021.2.3,Win32,60.72382803,,,,,,,
,,,,,,,,,,,,,,,,,,,,,,25.55555556,-73,20,75,-66.44444444,6.555555556,6.555555556,-156.4444444,-0.221750651,-0.416976141,1,0,0,0.6811,submitButton,-0.221750651,-0.416976141,0,0,0,2,17,137,57,1,73,69076,1,180,2022-02-22_11h18.53.568,orientation adjustment 1,2021.2.3,Win32,60.72382803,,,,,,,
,,,,,,,,,,,,,,,,,,,,,,-63.88888889,16,20,75,25.11111111,9.111111111,9.111111111,-64.88888889,-0.144297069,-0.391512014,1,0,0,1.7799,submitButton,-0.144297069,-0.391512014,0,0,0,2,18,138,0,1,16,69076,1,180,2022-02-22_11h18.53.568,orientation adjustment 1,2021.2.3,Win32,60.72382803,,,,,,,
,,,,,,,,,,,,,,,,,,,,,,-36.11111111,-67,20,75,-60.11111111,6.888888889,6.888888889,-150.1111111,0.211140602,-0.321485423,1,0,0,0.3021,submitButton,-0.136870013,-0.386206975,0,0,0,2,19,139,51,1,67,69076,1,180,2022-02-22_11h18.53.568,orientation adjustment 1,2021.2.3,Win32,60.72382803,,,,,,,
,,,,,,,,,,,,,,,,,,,,,,-35,72,20,75,113,41,41,23,-0.14641902,-0.389389934,1,0,0,1.78,submitButton,-0.14641902,-0.389389934,0,0,0,2,20,140,56,1,72,69076,1,180,2022-02-22_11h18.53.568,orientation adjustment 1,2021.2.3,Win32,60.72382803,,,,,,,
,,,,,,,,,,,,,,,,,,,,,,-46.11111111,26,20,75,31.88888889,5.888888889,5.888888889,-58.11111111,0.230238745,-0.305570304,1,0,0,0.0332,submitButton,-0.204774459,-0.395755982,0,0,0,2,21,141,10,1,26,69076,1,180,2022-02-22_11h18.53.568,orientation adjustment 1,2021.2.3,Win32,60.72382803,,,,,,,
,,,,,,,,,,,,,,,,,,,,,,26.66666667,-38,20,75,-27.33333333,10.66666667,10.66666667,-117.3333333,0.383023894,-0.293899216,1,0,0,0.1323,submitButton,-0.234482747,-0.395755982,0,0,0,2,22,142,22,1,38,69076,1,180,2022-02-22_11h18.53.568,orientation adjustment 1,2021.2.3,Win32,60.72382803,,,,,,,
,,,,,,,,,,,,,,,,,,,,,,-20.55555556,-29,20,75,-27.55555556,1.444444444,1.444444444,-117.5555556,0.170822299,-0.306631377,1,0,0,0.0184,submitButton,-0.189920412,-0.393633966,0,0,0,2,23,143,13,1,29,69076,1,180,2022-02-22_11h18.53.568,orientation adjustment 1,2021.2.3,Win32,60.72382803,,,,,,,
,,,,,,,,,,,,,,,,,,,,,,-22.22222222,31,20,75,30.77777778,0.222222222,0.222222222,-59.22222222,-0.210079499,-0.391512014,1,0,0,1.0131,submitButton,-0.210079499,-0.391512014,0,0,0,2,24,144,15,1,31,69076,1,180,2022-02-22_11h18.53.568,orientation adjustment 1,2021.2.3,Win32,60.72382803,,,,,,,
,,,,,,,,,,,,,,,,,,,,,,-50.55555556,48,20,75,30.44444444,17.55555556,17.55555556,-59.55555556,0.189920442,-0.297082305,1,0,0,0.1822,submitButton,-0.145358077,-0.415915133,0,0,0,2,25,145,32,1,48,69076,1,180,2022-02-22_11h18.53.568,orientation adjustment 1,2021.2.3,Win32,60.72382803,,,,,,,
,,,,,,,,,,,,,,,,,,,,,,-68.88888889,-46,20,75,-226.8888889,0.888888889,0.888888889,-316.8888889,0.393633973,-0.285411217,1,0,0,0.5003,submitButton,-0.219628635,-0.405305053,0,0,0,2,26,146,30,1,46,69076,1,180,2022-02-22_11h18.53.568,orientation adjustment 1,2021.2.3,Win32,60.72382803,,,,,,,
,,,,,,,,,,,,,,,,,,,,,,52.77777778,-66,20,75,-46.22222222,19.77777778,19.77777778,-136.2222222,-0.207957548,-0.368169774,1,0,0,0.9134,submitButton,-0.19098142,-0.397878062,0,0,0,2,27,147,50,1,66,69076,1,180,2022-02-22_11h18.53.568,orientation adjustment 1,2021.2.3,Win32,60.72382803,,,,,,,
,,,,,,,,,,,,,,,,,,,,,,-20.55555556,33,20,75,43.44444444,10.44444444,10.44444444,-46.55555556,-0.170822269,-0.393633966,1,0,0,1.0965,submitButton,-0.170822269,-0.393633966,0,0,0,2,28,148,17,1,33,69076,1,180,2022-02-22_11h18.53.568,orientation adjustment 1,2021.2.3,Win32,60.72382803,,,,,,,
,,,,,,,,,,,,,,,,,,,,,,61.66666667,61,20,75,236.6666667,4.333333333,4.333333333,146.6666667,0.20159153,-0.307692384,1,0,0,2.2306,submitButton,0.28541116,-0.389389934,1,0,0,2,29,149,45,1,61,69076,1,180,2022-02-22_11h18.53.568,orientation adjustment 1,2021.2.3,Win32,60.72382803,pause_continueButton,,,,,,
,,,,,,,,,,,,,,,,,,,,,,65.55555556,63,20,75,214.5555556,28.44444444,28.44444444,124.5555556,-0.19628646,-0.412732174,1,0,0,1.5303,submitButton,-0.19628646,-0.412732174,0,0,0,2,30,150,47,1,63,69076,1,180,2022-02-22_11h18.53.568,orientation adjustment 1,2021.2.3,Win32,60.72382803,,,,,,,
,,,,,,,,,,,,,,,,,,,,,,-50.55555556,40,20,75,33.44444444,6.555555556,6.555555556,-56.55555556,-0.184615372,-0.408488142,1,0,0,1.1135,submitButton,-0.184615372,-0.408488142,0,0,0,2,31,151,24,1,40,69076,1,180,2022-02-22_11h18.53.568,orientation adjustment 1,2021.2.3,Win32,60.72382803,,,,,,,
,,,,,,,,,,,,,,,,,,,,,,-59.44444444,-74,20,75,-229.4444444,24.55555556,24.55555556,-319.4444444,-0.242970811,-0.391512014,1,0,0,1.7164,submitButton,-0.242970811,-0.391512014,0,0,0,2,32,152,58,1,74,69076,1,180,2022-02-22_11h18.53.568,orientation adjustment 1,2021.2.3,Win32,60.72382803,,,,,,,
,,,,,,,,,,,,,,,,,,,,,,-43.33333333,-54,20,75,-61.33333333,7.333333333,7.333333333,-151.3333333,0.209018586,-0.303448288,1,0,0,0.1326,submitButton,-0.170822269,-0.393633966,0,0,0,2,33,153,38,1,54,69076,1,180,2022-02-22_11h18.53.568,orientation adjustment 1,2021.2.3,Win32,60.72382803,,,,,,,
,,,,,,,,,,,,,,,,,,,,,,75,34,20,75,192,22,22,102,-0.219628635,-0.45411142,1,0,0,1.7297,submitButton,-0.205835532,-0.397878062,0,0,0,2,34,154,18,1,34,69076,1,180,2022-02-22_11h18.53.568,orientation adjustment 1,2021.2.3,Win32,60.72382803,,,,,,,
,,,,,,,,,,,,,,,,,,,,,,58.88888889,-32,20,75,-29.11111111,2.888888889,2.888888889,-119.1111111,-0.198408476,-0.362864734,1,0,0,1.247,submitButton,-0.200530492,-0.393633966,0,0,0,2,35,155,16,1,32,69076,1,180,2022-02-22_11h18.53.568,orientation adjustment 1,2021.2.3,Win32,60.72382803,,,,,,,
,,,,,,,,,,,,,,,,,,,,,,-70,44,20,75,34,10,10,-56,-0.129442958,-0.381962943,1,0,0,1.2289,submitButton,-0.129442958,-0.381962943,0,0,0,2,36,156,28,1,44,69076,1,180,2022-02-22_11h18.53.568,orientation adjustment 1,2021.2.3,Win32,60.72382803,,,,,,,
,,,,,,,,,,,,,,,,,,,,,,26.66666667,-69,20,75,-42.33333333,26.66666667,26.66666667,-132.3333333,-0.322546409,-0.442440332,1,0,0,0.6496,submitButton,-0.306631289,-0.420159165,0,0,0,2,37,157,53,1,69,69076,1,180,2022-02-22_11h18.53.568,orientation adjustment 1,2021.2.3,Win32,60.72382803,,,,,,,
,,,,,,,,,,,,,,,,,,,,,,-52.22222222,58,20,75,34.77777778,23.22222222,23.22222222,-55.22222222,-0.155968157,-0.411671101,1,0,0,0.9827,submitButton,-0.155968157,-0.411671101,0,0,0,2,38,158,42,1,58,69076,1,180,2022-02-22_11h18.53.568,orientation adjustment 1,2021.2.3,Win32,60.72382803,,,,,,,
,,,,,,,,,,,,,,,,,,,,,,43.33333333,62,20,75,224.3333333,17.66666667,17.66666667,134.3333333,-0.17824926,-0.408488142,1,0,0,2.6468,submitButton,-0.17824926,-0.408488142,0,0,0,2,39,159,46,1,62,69076,1,180,2022-02-22_11h18.53.568,orientation adjustment 1,2021.2.3,Win32,60.72382803,,,,,,,
,,,,,,,,,,,,,,,,,,,,,,30,-64,20,75,-51,13,13,-141,0.36392575,-0.296021297,1,0,0,0.55,submitButton,-0.166578237,-0.410610093,0,0,0,2,40,160,48,1,64,69076,1,180,2022-02-22_11h18.53.568,orientation adjustment 1,2021.2.3,Win32,60.72382803,,,,,,,
,,,,,,,,,,,,,,,,,,,,,,-41.66666667,65,20,75,44.33333333,20.66666667,20.66666667,-45.66666667,0.163395243,-0.302387345,1,0,0,0.2497,submitButton,-0.171883277,-0.402122094,0,0,0,2,41,161,49,1,65,69076,1,180,2022-02-22_11h18.53.568,orientation adjustment 1,2021.2.3,Win32,60.72382803,,,,,,,
,,,,,,,,,,,,,,,,,,,,,,63.88888889,41,20,75,214.8888889,6.111111111,6.111111111,124.8888889,-0.187798396,-0.400000013,1,0,0,2.6499,submitButton,-0.187798396,-0.400000013,0,0,0,2,42,162,25,1,41,69076,1,180,2022-02-22_11h18.53.568,orientation adjustment 1,2021.2.3,Win32,60.72382803,,,,,,,
,,,,,,,,,,,,,,,,,,,,,,32.77777778,-49,20,75,-35.22222222,13.77777778,13.77777778,-125.2222222,-0.187798396,-0.401061021,1,0,0,0.9461,submitButton,-0.187798396,-0.401061021,0,0,0,2,43,163,33,1,49,69076,1,180,2022-02-22_11h18.53.568,orientation adjustment 1,2021.2.3,Win32,60.72382803,,,,,,,
,,,,,,,,,,,,,,,,,,,,,,-27.22222222,-22,20,75,-31.22222222,9.222222222,9.222222222,-121.2222222,-0.169761261,-0.385145902,1,0,0,0.8468,submitButton,0.215384634,-0.387267982,1,0,0,2,44,164,6,1,22,69076,1,180,2022-02-22_11h18.53.568,orientation adjustment 1,2021.2.3,Win32,60.72382803,pause_continueButton,,,,,,
,,,,,,,,,,,,,,,,,,,,,,-32.77777778,51,20,75,49.22222222,1.777777778,1.777777778,-40.77777778,-0.272679034,-0.384084894,1,0,0,0.716,submitButton,-0.272679034,-0.384084894,0,0,0,2,45,165,35,1,51,69076,1,180,2022-02-22_11h18.53.568,orientation adjustment 1,2021.2.3,Win32,60.72382803,,,,,,,
,,,,,,,,,,,,,,,,,,,,,,28.33333333,-17,20,75,-25.66666667,8.666666667,8.666666667,-115.6666667,-0.17294422,-0.419098222,1,0,0,1.2301,submitButton,-0.17294422,-0.419098222,0,0,0,2,46,166,1,1,17,69076,1,180,2022-02-22_11h18.53.568,orientation adjustment 1,2021.2.3,Win32,60.72382803,,,,,,,
,,,,,,,,,,,,,,,,,,,,,,60.55555556,-56,20,75,-36.44444444,19.55555556,19.55555556,-126.4444444,-0.115649854,-0.385145902,1,0,0,0.9962,submitButton,-0.115649854,-0.385145902,0,0,0,2,47,167,40,1,56,69076,1,180,2022-02-22_11h18.53.568,orientation adjustment 1,2021.2.3,Win32,60.72382803,,,,,,,
,,,,,,,,,,,,,,,,,,,,,,-73.33333333,-55,20,75,-233.3333333,1.666666667,1.666666667,-323.3333333,-0.211140572,-0.389389934,1,0,0,2.0803,submitButton,-0.211140572,-0.389389934,0,0,0,2,48,168,39,1,55,69076,1,180,2022-02-22_11h18.53.568,orientation adjustment 1,2021.2.3,Win32,60.72382803,,,,,,,
,,,,,,,,,,,,,,,,,,,,,,57.22222222,24,20,75,60.22222222,36.22222222,36.22222222,-29.77777778,0.404244053,-0.302387345,1,0,0,0.4825,submitButton,-0.159151181,-0.394694974,0,0,0,2,49,169,8,1,24,69076,1,180,2022-02-22_11h18.53.568,orientation adjustment 1,2021.2.3,Win32,60.72382803,,,,,,,
,,,,,,,,,,,,,,,,,,,,,,51.66666667,47,20,75,59.66666667,12.66666667,12.66666667,-30.33333333,0.44244034,-0.285411217,1,0,0,0.0655,submitButton,-0.150663117,-0.407427134,0,0,0,2,50,170,31,1,47,69076,1,180,2022-02-22_11h18.53.568,orientation adjustment 1,2021.2.3,Win32,60.72382803,,,,,,,
,,,,,,,,,,,,,,,,,,,,,,-71.11111111,-59,20,75,-59.11111111,0.111111111,0.111111111,-149.1111111,0.181432379,-0.323607504,1,0,0,1.5306,submitButton,-0.14641902,-0.391512014,0,0,0,2,51,171,43,1,59,69076,1,180,2022-02-22_11h18.53.568,orientation adjustment 1,2021.2.3,Win32,60.72382803,,,,,,,
,,,,,,,,,,,,,,,,,,,,,,25,23,20,75,48,25,25,-42,-0.244031819,-0.406366061,1,0,0,0.5321,submitButton,-0.244031819,-0.406366061,0,0,0,2,52,172,7,1,23,69076,1,180,2022-02-22_11h18.53.568,orientation adjustment 1,2021.2.3,Win32,60.72382803,,,,,,,
,,,,,,,,,,,,,,,,,,,,,,-52.22222222,68,20,75,48.77777778,19.22222222,19.22222222,-41.22222222,-0.171883277,-0.391512014,1,0,0,1.0136,submitButton,-0.171883277,-0.391512014,0,0,0,2,53,173,52,1,68,69076,1,180,2022-02-22_11h18.53.568,orientation adjustment 1,2021.2.3,Win32,60.72382803,,,,,,,
,,,,,,,,,,,,,,,,,,,,,,-53.88888889,-30,20,75,-52.88888889,22.88888889,22.88888889,-142.8888889,0.20159153,-0.305570304,1,0,0,0.0661,submitButton,-0.166578237,-0.413793182,0,0,0,2,54,174,14,1,30,69076,1,180,2022-02-22_11h18.53.568,orientation adjustment 1,2021.2.3,Win32,60.72382803,,,,,,,
,,,,,,,,,,,,,,,,,,,,,,26.66666667,-37,20,75,-33.33333333,3.666666667,3.666666667,-123.3333333,0.423342326,-0.274801137,1,0,0,0.1657,submitButton,-0.165517229,-0.409549085,0,0,0,2,55,175,21,1,37,69076,1,180,2022-02-22_11h18.53.568,orientation adjustment 1,2021.2.3,Win32,60.72382803,,,,,,,
,,,,,,,,,,,,,,,,,,,,,,-43.33333333,-35,20,75,-51.33333333,16.33333333,16.33333333,-141.3333333,-0.135808941,-0.400000013,1,0,0,0.9299,submitButton,-0.135808941,-0.400000013,0,0,0,2,56,176,19,1,35,69076,1,180,2022-02-22_11h18.53.568,orientation adjustment 1,2021.2.3,Win32,60.72382803,,,,,,,
,,,,,,,,,,,,,,,,,,,,,,45,42,20,75,57,15,15,-33,0.392572965,-0.307692384,1,0,0,0.1837,submitButton,-0.239787787,-0.421220173,0,0,0,2,57,177,26,1,42,69076,1,180,2022-02-22_11h18.53.568,orientation adjustment 1,2021.2.3,Win32,60.72382803,,,,,,,
,,,,,,,,,,,,,,,,,,,,,,-32.22222222,-39,20,75,-41.22222222,2.222222222,2.222222222,-131.2222222,0.218567658,-0.314058368,1,0,0,0.2023,submitButton,-0.149602109,-0.397878062,0,0,0,2,58,178,23,1,39,69076,1,180,2022-02-22_11h18.53.568,orientation adjustment 1,2021.2.3,Win32,60.72382803,,,,,,,
,,,,,,,,,,,,,,,,,,,,,,57.77777778,75,20,75,227.7777778,27.22222222,27.22222222,137.7777778,0.229177737,-0.300265264,1,0,0,0.1485,submitButton,-0.225994618,-0.403183102,0,0,0,2,59,179,59,1,75,69076,1,180,2022-02-22_11h18.53.568,orientation adjustment 1,2021.2.3,Win32,60.72382803,,,,,,,
,,,,,,,,,,,,,,,,,,,,,,,,,,,,,,,,,,,,,,,,,,,,,,,,69076,1,180,2022-02-22_11h18.53.568,orientation adjustment 1,2021.2.3,Win32,60.72382803,,0.340583575,-0.391512014,1,0,0,EndButtonTxt
