consentMouse1.x,consentMouse1.y,consentMouse1.leftButton,consentMouse1.midButton,consentMouse1.rightButton,consentMouse1.clicked_name,consent_Mouse.x,consent_Mouse.y,consent_Mouse.leftButton,consent_Mouse.midButton,consent_Mouse.rightButton,consent_Mouse.clicked_name,startMouse.x,startMouse.y,startMouse.leftButton,startMouse.midButton,startMouse.rightButton,startMouse_2.x,startMouse_2.y,startMouse_2.leftButton,startMouse_2.midButton,startMouse_2.rightButton,start_distance,fixedOri,minimalDistance,maxOri,this_ori,accuracy,presented_accuracy,presented_this_ori,submitMouse.x,submitMouse.y,submitMouse.leftButton,submitMouse.midButton,submitMouse.rightButton,submitMouse.time,submitMouse.clicked_name,pauseMouse.x,pauseMouse.y,pauseMouse.leftButton,pauseMouse.midButton,pauseMouse.rightButton,trials.thisRepN,trials.thisTrialN,trials.thisN,trials.thisIndex,trials.ran,startOri,participant,condition,nTrials,date,expName,psychopyVersion,OS,frameRate,pauseMouse.clicked_name,EndButtonMouse.x,EndButtonMouse.y,EndButtonMouse.leftButton,EndButtonMouse.midButton,EndButtonMouse.rightButton,EndButtonMouse.clicked_name
0.337037168,-0.397222236,1,0,0,consent_button1,0.362962982,-0.39629631,1,0,0,consent_button,0.182407423,-0.2638889,1,0,0,0.182407423,-0.2638889,1,0,0,57.77777778,60,20,75,81.77777778,21.77777778,21.77777778,-8.222222222,0.371296315,-0.281481493,1,0,0,6.3318,submitButton,-0.19074073,-0.187037104,0,0,0,0,0,0,44,1,60,69160,1,180,2022-02-10_13h32.28.930,orientation adjustment 1,2021.2.3,Win32,60.08171113,,,,,,,
,,,,,,,,,,,,,,,,,,,,,,-28.88888889,-56,20,75,-98.88888889,42.88888889,42.88888889,-188.8888889,0.185185201,-0.282407419,1,0,0,1.7788,submitButton,-0.151851841,-0.348148161,0,0,0,0,1,1,40,1,56,69160,1,180,2022-02-10_13h32.28.930,orientation adjustment 1,2021.2.3,Win32,60.08171113,,,,,,,
,,,,,,,,,,,,,,,,,,,,,,-55.55555556,-49,20,75,-47.55555556,1.444444444,1.444444444,-137.5555556,0.378703836,-0.316666735,1,0,0,0.7331,submitButton,-0.356481474,-0.400925939,0,0,0,0,2,2,33,1,49,69160,1,180,2022-02-10_13h32.28.930,orientation adjustment 1,2021.2.3,Win32,60.08171113,,,,,,,
,,,,,,,,,,,,,,,,,,,,,,-52.77777778,-69,20,75,-83.77777778,14.77777778,14.77777778,-173.7777778,0.211111128,-0.302777846,1,0,0,0.8781,submitButton,-0.359259251,-0.387962976,0,0,0,0,3,3,53,1,69,69160,1,180,2022-02-10_13h32.28.930,orientation adjustment 1,2021.2.3,Win32,60.08171113,,,,,,,
,,,,,,,,,,,,,,,,,,,,,,45.55555556,-16,20,75,-17.44444444,1.444444444,1.444444444,-107.4444444,0.39537039,-0.257407419,1,0,0,0.5149,submitButton,-0.339814807,-0.39166668,0,0,0,0,4,4,0,1,16,69160,1,180,2022-02-10_13h32.28.930,orientation adjustment 1,2021.2.3,Win32,60.08171113,,,,,,,
,,,,,,,,,,,,,,,,,,,,,,-67.77777778,-41,20,75,-209.7777778,11.22222222,11.22222222,-299.7777778,0.365740759,-0.282407419,1,0,0,0.2665,submitButton,-0.324074066,-0.403703717,0,0,0,0,5,5,25,1,41,69160,1,180,2022-02-10_13h32.28.930,orientation adjustment 1,2021.2.3,Win32,60.08171113,,,,,,,
,,,,,,,,,,,,,,,,,,,,,,32.22222222,62,20,75,208.2222222,33.77777778,33.77777778,118.2222222,0.220370387,-0.304629642,1,0,0,0.4122,submitButton,-0.354629622,-0.401851865,0,0,0,0,6,6,46,1,62,69160,1,180,2022-02-10_13h32.28.930,orientation adjustment 1,2021.2.3,Win32,60.08171113,,,,,,,
,,,,,,,,,,,,,,,,,,,,,,21.11111111,26,20,75,195.1111111,10.88888889,10.88888889,105.1111111,0.211111128,-0.267592604,1,0,0,0.6939,submitButton,-0.31851851,-0.39537044,0,0,0,0,7,7,10,1,26,69160,1,180,2022-02-10_13h32.28.930,orientation adjustment 1,2021.2.3,Win32,60.08171113,,,,,,,
,,,,,,,,,,,,,,,,,,,,,,-56.11111111,58,20,75,73.88888889,15.88888889,15.88888889,-16.11111111,0.212037053,-0.314814827,1,0,0,0.312,submitButton,-0.346296288,-0.39166668,0,0,0,0,8,8,42,1,58,69160,1,180,2022-02-10_13h32.28.930,orientation adjustment 1,2021.2.3,Win32,60.08171113,,,,,,,
,,,,,,,,,,,,,,,,,,,,,,48.88888889,-29,20,75,-28.11111111,0.888888889,0.888888889,-118.1111111,0.391666686,-0.267592604,1,0,0,0.6018,submitButton,-0.315740732,-0.402777791,0,0,0,0,9,9,13,1,29,69160,1,180,2022-02-10_13h32.28.930,orientation adjustment 1,2021.2.3,Win32,60.08171113,,,,,,,
,,,,,,,,,,,,,,,,,,,,,,-52.22222222,52,20,75,60.77777778,8.777777778,8.777777778,-29.22222222,0.204629646,-0.262962974,1,0,0,0.0701,submitButton,-0.306481473,-0.39166668,0,0,0,0,10,10,36,1,52,69160,1,180,2022-02-10_13h32.28.930,orientation adjustment 1,2021.2.3,Win32,60.08171113,,,,,,,
,,,,,,,,,,,,,,,,,,,,,,-54.44444444,57,20,75,71.55555556,14.55555556,14.55555556,-18.44444444,0.207407424,-0.26851853,1,0,0,0.3662,submitButton,-0.358333325,-0.384259272,0,0,0,0,11,11,41,1,57,69160,1,180,2022-02-10_13h32.28.930,orientation adjustment 1,2021.2.3,Win32,60.08171113,,,,,,,
,,,,,,,,,,,,,,,,,,,,,,-49.44444444,-22,20,75,-195.4444444,6.555555556,6.555555556,-285.4444444,0.311111129,-0.274074086,1,0,0,0.3318,submitButton,-0.339814807,-0.397222236,0,0,0,0,12,12,6,1,22,69160,1,180,2022-02-10_13h32.28.930,orientation adjustment 1,2021.2.3,Win32,60.08171113,,,,,,,
,,,,,,,,,,,,,,,,,,,,,,40.55555556,44,20,75,214.5555556,9.444444444,9.444444444,124.5555556,0.198148164,-0.319444457,1,0,0,0.0835,submitButton,-0.324074066,-0.377777791,0,0,0,0,13,13,28,1,44,69160,1,180,2022-02-10_13h32.28.930,orientation adjustment 1,2021.2.3,Win32,60.08171113,,,,,,,
,,,,,,,,,,,,,,,,,,,,,,54.44444444,43,20,75,207.4444444,15.55555556,15.55555556,117.4444444,0.225000028,-0.333333333,1,0,0,1.8009,submitButton,0.307407425,-0.387962976,1,0,0,0,14,14,27,1,43,69160,1,180,2022-02-10_13h32.28.930,orientation adjustment 1,2021.2.3,Win32,60.08171113,pause_continueButton,,,,,,
,,,,,,,,,,,,,,,,,,,,,,-44.44444444,-28,20,75,-219.4444444,11.44444444,11.44444444,-309.4444444,0.419444464,-0.284259327,0,0,1,0.4124,submitButton,0.058333347,-0.199074084,0,0,0,0,15,15,12,1,28,69160,1,180,2022-02-10_13h32.28.930,orientation adjustment 1,2021.2.3,Win32,60.08171113,,,,,,,
,,,,,,,,,,,,,,,,,,,,,,-71.66666667,36,20,75,41.33333333,5.333333333,5.333333333,-48.66666667,0.221296313,-0.284259327,1,0,0,0.951,submitButton,-0.34814814,-0.387962976,0,0,0,0,16,16,20,1,36,69160,1,180,2022-02-10_13h32.28.930,orientation adjustment 1,2021.2.3,Win32,60.08171113,,,,,,,
,,,,,,,,,,,,,,,,,,,,,,-61.11111111,-61,20,75,-226.1111111,14.88888889,14.88888889,-316.1111111,0.375000019,-0.287037049,1,0,0,0.6152,submitButton,-0.329629621,-0.411111125,0,0,0,0,17,17,45,1,61,69160,1,180,2022-02-10_13h32.28.930,orientation adjustment 1,2021.2.3,Win32,60.08171113,,,,,,,
,,,,,,,,,,,,,,,,,,,,,,-72.22222222,35,20,75,34.77777778,0.222222222,0.222222222,-55.22222222,0.242592609,-0.282407419,1,0,0,0.4359,submitButton,-0.336111103,-0.406481495,0,0,0,0,18,18,19,1,35,69160,1,180,2022-02-10_13h32.28.930,orientation adjustment 1,2021.2.3,Win32,60.08171113,,,,,,,
,,,,,,,,,,,,,,,,,,,,,,22.77777778,39,20,75,205.7777778,13.22222222,13.22222222,115.7777778,0.213888905,-0.284259327,1,0,0,0.3659,submitButton,-0.329629621,-0.394444458,0,0,0,0,19,19,23,1,39,69160,1,180,2022-02-10_13h32.28.930,orientation adjustment 1,2021.2.3,Win32,60.08171113,,,,,,,
,,,,,,,,,,,,,,,,,,,,,,-70.55555556,68,20,75,61.44444444,6.555555556,6.555555556,-28.55555556,0.223148165,-0.27314816,1,0,0,0.3328,submitButton,-0.38703703,-0.411111125,0,0,0,0,20,20,52,1,68,69160,1,180,2022-02-10_13h32.28.930,orientation adjustment 1,2021.2.3,Win32,60.08171113,,,,,,,
,,,,,,,,,,,,,,,,,,,,,,66.66666667,-72,20,75,-69.33333333,2.666666667,2.666666667,-159.3333333,0.384259278,-0.321296365,1,0,0,0.1034,submitButton,-0.314814806,-0.403703717,0,0,0,0,21,21,56,1,72,69160,1,180,2022-02-10_13h32.28.930,orientation adjustment 1,2021.2.3,Win32,60.08171113,,,,,,,
,,,,,,,,,,,,,,,,,,,,,,-26.11111111,31,20,75,49.88888889,18.88888889,18.88888889,-40.11111111,-0.291666658,-0.39537044,1,0,0,1.3265,submitButton,-0.291666658,-0.39537044,0,0,0,0,22,22,15,1,31,69160,1,180,2022-02-10_13h32.28.930,orientation adjustment 1,2021.2.3,Win32,60.08171113,,,,,,,
,,,,,,,,,,,,,,,,,,,,,,-60.55555556,-64,20,75,-206.5555556,37.44444444,37.44444444,-296.5555556,0.406481614,-0.250925937,1,0,0,0.3626,submitButton,-0.330555547,-0.401851865,0,0,0,0,23,23,48,1,64,69160,1,180,2022-02-10_13h32.28.930,orientation adjustment 1,2021.2.3,Win32,60.08171113,,,,,,,
,,,,,,,,,,,,,,,,,,,,,,-27.77777778,65,20,75,198.2222222,46.77777778,46.77777778,108.2222222,-0.31851851,-0.399074087,1,0,0,3.3911,submitButton,0.325000018,-0.222222233,0,0,0,0,24,24,49,1,65,69160,1,180,2022-02-10_13h32.28.930,orientation adjustment 1,2021.2.3,Win32,60.08171113,,,,,,,
,,,,,,,,,,,,,,,,,,,,,,-27.77777778,-33,20,75,-210.7777778,2.222222222,2.222222222,-300.7777778,-0.355555548,-0.436111125,1,0,0,3.2712,submitButton,-0.330555547,-0.411111125,0,0,0,0,25,25,17,1,33,69160,1,180,2022-02-10_13h32.28.930,orientation adjustment 1,2021.2.3,Win32,60.08171113,,,,,,,
,,,,,,,,,,,,,,,,,,,,,,37.22222222,-45,20,75,-48.77777778,3.777777778,3.777777778,-138.7777778,0.375925945,-0.279629698,1,0,0,0.0335,submitButton,-0.28888888,-0.39629631,0,0,0,0,26,26,29,1,45,69160,1,180,2022-02-10_13h32.28.930,orientation adjustment 1,2021.2.3,Win32,60.08171113,,,,,,,
,,,,,,,,,,,,,,,,,,,,,,-26.11111111,-55,20,75,-226.1111111,8.888888889,8.888888889,-316.1111111,0.406481614,-0.292592604,1,0,0,0.0468,submitButton,-0.149999989,-0.420370384,0,0,0,0,27,27,39,1,55,69160,1,180,2022-02-10_13h32.28.930,orientation adjustment 1,2021.2.3,Win32,60.08171113,,,,,,,
,,,,,,,,,,,,,,,,,,,,,,-44.44444444,63,20,75,50.55555556,12.44444444,12.44444444,-39.44444444,-0.325925918,-0.413888959,1,0,0,1.928,submitButton,-0.325925918,-0.413888959,0,0,0,0,28,28,47,1,63,69160,1,180,2022-02-10_13h32.28.930,orientation adjustment 1,2021.2.3,Win32,60.08171113,,,,,,,
,,,,,,,,,,,,,,,,,,,,,,-71.66666667,-47,20,75,-220.6666667,6.333333333,6.333333333,-310.6666667,-0.312037028,-0.388888902,1,0,0,2.4402,submitButton,0.339814833,-0.389814828,1,0,0,0,29,29,31,1,47,69160,1,180,2022-02-10_13h32.28.930,orientation adjustment 1,2021.2.3,Win32,60.08171113,pause_continueButton,,,,,,
,,,,,,,,,,,,,,,,,,,,,,44.44444444,-37,20,75,-32.55555556,4.444444444,4.444444444,-122.5555556,0.417592612,-0.297222234,1,0,0,0.3998,submitButton,0.20833335,-0.227777789,0,0,0,0,30,30,21,1,37,69160,1,180,2022-02-10_13h32.28.930,orientation adjustment 1,2021.2.3,Win32,60.08171113,,,,,,,
,,,,,,,,,,,,,,,,,,,,,,56.66666667,48,20,75,204.6666667,23.33333333,23.33333333,114.6666667,-0.342592584,-0.398148162,1,0,0,2.494,submitButton,-0.342592584,-0.398148162,0,0,0,0,31,31,32,1,48,69160,1,180,2022-02-10_13h32.28.930,orientation adjustment 1,2021.2.3,Win32,60.08171113,,,,,,,
,,,,,,,,,,,,,,,,,,,,,,-62.22222222,34,20,75,36.77777778,2.777777778,2.777777778,-53.22222222,-0.292592584,-0.377777791,1,0,0,2.0108,submitButton,-0.026851839,-0.310185197,0,0,0,0,32,32,18,1,34,69160,1,180,2022-02-10_13h32.28.930,orientation adjustment 1,2021.2.3,Win32,60.08171113,,,,,,,
,,,,,,,,,,,,,,,,,,,,,,-67.22222222,67,20,75,-95.22222222,17.77777778,17.77777778,-185.2222222,-0.337962955,-0.412037051,1,0,0,2.7628,submitButton,-0.337962955,-0.412037051,0,0,0,0,33,33,51,1,67,69160,1,180,2022-02-10_13h32.28.930,orientation adjustment 1,2021.2.3,Win32,60.08171113,,,,,,,
,,,,,,,,,,,,,,,,,,,,,,-45.55555556,53,20,75,50.44444444,2.555555556,2.555555556,-39.55555556,0.250925943,-0.294444456,1,0,0,0.0333,submitButton,-0.357407399,-0.39166668,0,0,0,0,34,34,37,1,53,69160,1,180,2022-02-10_13h32.28.930,orientation adjustment 1,2021.2.3,Win32,60.08171113,,,,,,,
,,,,,,,,,,,,,,,,,,,,,,-72.77777778,-74,20,75,-260.7777778,6.777777778,6.777777778,-350.7777778,0.385185204,-0.270370438,1,0,0,0.0839,submitButton,-0.31851851,-0.375000013,0,0,0,0,35,35,58,1,74,69160,1,180,2022-02-10_13h32.28.930,orientation adjustment 1,2021.2.3,Win32,60.08171113,,,,,,,
,,,,,,,,,,,,,,,,,,,,,,-70.55555556,46,20,75,43.44444444,2.555555556,2.555555556,-46.55555556,0.237037054,-0.312037106,1,0,0,0.1703,submitButton,0.212037053,-0.24351853,0,0,0,0,36,36,30,1,46,69160,1,180,2022-02-10_13h32.28.930,orientation adjustment 1,2021.2.3,Win32,60.08171113,,,,,,,
,,,,,,,,,,,,,,,,,,,,,,-72.22222222,-25,20,75,-142.2222222,62.77777778,62.77777778,-232.2222222,-0.299074065,-0.406481495,1,0,0,1.0773,submitButton,-0.299074065,-0.406481495,0,0,0,0,37,37,9,1,25,69160,1,180,2022-02-10_13h32.28.930,orientation adjustment 1,2021.2.3,Win32,60.08171113,,,,,,,
,,,,,,,,,,,,,,,,,,,,,,35,17,20,75,29,12,12,-61,0.405555575,-0.285185197,1,0,0,1.3808,submitButton,-0.335185177,-0.406481495,0,0,0,0,38,38,1,1,17,69160,1,180,2022-02-10_13h32.28.930,orientation adjustment 1,2021.2.3,Win32,60.08171113,,,,,,,
,,,,,,,,,,,,,,,,,,,,,,-61.11111111,-27,20,75,-194.1111111,12.88888889,12.88888889,-284.1111111,0.364814947,-0.283333345,1,0,0,0.0204,submitButton,-0.356481474,-0.390740811,0,0,0,0,39,39,11,1,27,69160,1,180,2022-02-10_13h32.28.930,orientation adjustment 1,2021.2.3,Win32,60.08171113,,,,,,,
,,,,,,,,,,,,,,,,,,,,,,-46.11111111,70,20,75,65.88888889,4.111111111,4.111111111,-24.11111111,-0.332407399,-0.417592606,1,0,0,1.7926,submitButton,-0.332407399,-0.417592606,0,0,0,0,40,40,54,1,70,69160,1,180,2022-02-10_13h32.28.930,orientation adjustment 1,2021.2.3,Win32,60.08171113,,,,,,,
,,,,,,,,,,,,,,,,,,,,,,-61.11111111,54,20,75,66.88888889,12.88888889,12.88888889,-23.11111111,-0.351851844,-0.411111125,1,0,0,1.9584,submitButton,-0.351851844,-0.411111125,0,0,0,0,41,41,38,1,54,69160,1,180,2022-02-10_13h32.28.930,orientation adjustment 1,2021.2.3,Win32,60.08171113,,,,,,,
,,,,,,,,,,,,,,,,,,,,,,-25,30,20,75,39,9,9,-51,-0.31388888,-0.394444458,1,0,0,1.2602,submitButton,-0.31388888,-0.394444458,0,0,0,0,42,42,14,1,30,69160,1,180,2022-02-10_13h32.28.930,orientation adjustment 1,2021.2.3,Win32,60.08171113,,,,,,,
,,,,,,,,,,,,,,,,,,,,,,26.11111111,-59,20,75,-71.88888889,12.88888889,12.88888889,-161.8888889,0.39074076,-0.276851863,1,0,0,0.234,submitButton,-0.311111103,-0.390740811,0,0,0,0,43,43,43,1,59,69160,1,180,2022-02-10_13h32.28.930,orientation adjustment 1,2021.2.3,Win32,60.08171113,,,,,,,
,,,,,,,,,,,,,,,,,,,,,,20.55555556,66,20,75,227.5555556,18.44444444,18.44444444,137.5555556,0.213888905,-0.288888957,1,0,0,0.0503,submitButton,0.31851865,-0.412962977,1,0,0,0,44,44,50,1,66,69160,1,180,2022-02-10_13h32.28.930,orientation adjustment 1,2021.2.3,Win32,60.08171113,pause_continueButton,,,,,,
,,,,,,,,,,,,,,,,,,,,,,71.66666667,-40,20,75,-28.33333333,11.66666667,11.66666667,-118.3333333,-0.272222213,-0.359259272,1,0,0,2.1408,submitButton,0.379629649,-0.194444455,0,0,0,0,45,45,24,1,40,69160,1,180,2022-02-10_13h32.28.930,orientation adjustment 1,2021.2.3,Win32,60.08171113,,,,,,,
,,,,,,,,,,,,,,,,,,,,,,-26.11111111,51,20,75,70.88888889,19.88888889,19.88888889,-19.11111111,-0.309259251,-0.412037051,1,0,0,1.4757,submitButton,-0.309259251,-0.412037051,0,0,0,0,46,46,35,1,51,69160,1,180,2022-02-10_13h32.28.930,orientation adjustment 1,2021.2.3,Win32,60.08171113,,,,,,,
,,,,,,,,,,,,,,,,,,,,,,-30,-42,20,75,-205,17,17,-295,-0.324074066,-0.399074087,1,0,0,2.8433,submitButton,-0.324074066,-0.399074087,0,0,0,0,47,47,26,1,42,69160,1,180,2022-02-10_13h32.28.930,orientation adjustment 1,2021.2.3,Win32,60.08171113,,,,,,,
,,,,,,,,,,,,,,,,,,,,,,-57.22222222,50,20,75,69.77777778,19.77777778,19.77777778,-20.22222222,0.237037054,-0.314814827,1,0,0,0.03,submitButton,-0.341666659,-0.406481495,0,0,0,0,48,48,34,1,50,69160,1,180,2022-02-10_13h32.28.930,orientation adjustment 1,2021.2.3,Win32,60.08171113,,,,,,,
,,,,,,,,,,,,,,,,,,,,,,-67.77777778,-20,20,75,-204.7777778,4.777777778,4.777777778,-294.7777778,0.388888908,-0.291666678,1,0,0,0.3339,submitButton,-0.310185177,-0.407407421,0,0,0,0,49,49,4,1,20,69160,1,180,2022-02-10_13h32.28.930,orientation adjustment 1,2021.2.3,Win32,60.08171113,,,,,,,
,,,,,,,,,,,,,,,,,,,,,,-68.33333333,-23,20,75,-210.3333333,7.333333333,7.333333333,-300.3333333,0.410185205,-0.297222234,1,0,0,0.4991,submitButton,-0.328703695,-0.399074087,0,0,0,0,50,50,7,1,23,69160,1,180,2022-02-10_13h32.28.930,orientation adjustment 1,2021.2.3,Win32,60.08171113,,,,,,,
,,,,,,,,,,,,,,,,,,,,,,-57.77777778,73,20,75,58.22222222,14.77777778,14.77777778,-31.77777778,0.211111128,-0.284259327,1,0,0,0.3328,submitButton,-0.351851844,-0.40000007,0,0,0,0,51,51,57,1,73,69160,1,180,2022-02-10_13h32.28.930,orientation adjustment 1,2021.2.3,Win32,60.08171113,,,,,,,
,,,,,,,,,,,,,,,,,,,,,,40,-32,20,75,-33,1,1,-123,0.396296315,-0.279629698,1,0,0,0.2297,submitButton,-0.336111103,-0.417592606,0,0,0,0,52,52,16,1,32,69160,1,180,2022-02-10_13h32.28.930,orientation adjustment 1,2021.2.3,Win32,60.08171113,,,,,,,
,,,,,,,,,,,,,,,,,,,,,,-28.88888889,24,20,75,36.11111111,12.11111111,12.11111111,-53.88888889,0.227777794,-0.279629698,1,0,0,0.4787,submitButton,-0.339814807,-0.401851865,0,0,0,0,53,53,8,1,24,69160,1,180,2022-02-10_13h32.28.930,orientation adjustment 1,2021.2.3,Win32,60.08171113,,,,,,,
,,,,,,,,,,,,,,,,,,,,,,-45,-75,20,75,-201,54,54,-291,0.407407427,-0.275000068,1,0,0,0.4991,submitButton,-0.304629621,-0.412962977,0,0,0,0,54,54,59,1,75,69160,1,180,2022-02-10_13h32.28.930,orientation adjustment 1,2021.2.3,Win32,60.08171113,,,,,,,
,,,,,,,,,,,,,,,,,,,,,,-40.55555556,-71,20,75,-214.5555556,36.44444444,36.44444444,-304.5555556,0.391666686,-0.292592604,1,0,0,0.3831,submitButton,-0.34351851,-0.414814828,0,0,0,0,55,55,55,1,71,69160,1,180,2022-02-10_13h32.28.930,orientation adjustment 1,2021.2.3,Win32,60.08171113,,,,,,,
,,,,,,,,,,,,,,,,,,,,,,21.11111111,-38,20,75,-28.88888889,9.111111111,9.111111111,-118.8888889,0.226851868,-0.292592604,1,0,0,0.5688,submitButton,-0.325925918,-0.381481551,0,0,0,0,56,56,22,1,38,69160,1,180,2022-02-10_13h32.28.930,orientation adjustment 1,2021.2.3,Win32,60.08171113,,,,,,,
,,,,,,,,,,,,,,,,,,,,,,58.88888889,-21,20,75,-14.11111111,6.888888889,6.888888889,-104.1111111,0.239814832,-0.320370383,1,0,0,0.5468,submitButton,-0.34814814,-0.389814828,0,0,0,0,57,57,5,1,21,69160,1,180,2022-02-10_13h32.28.930,orientation adjustment 1,2021.2.3,Win32,60.08171113,,,,,,,
,,,,,,,,,,,,,,,,,,,,,,55,-19,20,75,-33,14,14,-123,0.372222241,-0.307407476,1,0,0,0.8109,submitButton,-0.349999992,-0.411111125,0,0,0,0,58,58,3,1,19,69160,1,180,2022-02-10_13h32.28.930,orientation adjustment 1,2021.2.3,Win32,60.08171113,,,,,,,
,,,,,,,,,,,,,,,,,,,,,,-73.88888889,-18,20,75,-199.8888889,1.888888889,1.888888889,-289.8888889,0.30925939,-0.304629642,1,0,0,0.0341,submitButton,0.330555574,-0.405555569,1,0,0,0,59,59,2,1,18,69160,1,180,2022-02-10_13h32.28.930,orientation adjustment 1,2021.2.3,Win32,60.08171113,pause_continueButton,,,,,,
,,,,,,,,,,,,,,,,,,,,,,62.77777778,-71,20,75,-19.22222222,51.77777778,51.77777778,-109.2222222,0.344444463,-0.309259271,1,0,0,1.1425,submitButton,0.289814832,-0.249074085,0,0,0,1,0,60,55,1,71,69160,1,180,2022-02-10_13h32.28.930,orientation adjustment 1,2021.2.3,Win32,60.08171113,,,,,,,
,,,,,,,,,,,,,,,,,,,,,,40,-37,20,75,133,10,10,43,-0.337962955,-0.400925939,1,0,0,3.1056,submitButton,-0.337962955,-0.400925939,0,0,0,1,1,61,21,1,37,69160,1,180,2022-02-10_13h32.28.930,orientation adjustment 1,2021.2.3,Win32,60.08171113,,,,,,,
,,,,,,,,,,,,,,,,,,,,,,33.88888889,22,20,75,26.88888889,4.888888889,4.888888889,-63.11111111,0.363888908,-0.291666678,1,0,0,0.1491,submitButton,-0.345370362,-0.39629631,0,0,0,1,2,62,6,1,22,69160,1,180,2022-02-10_13h32.28.930,orientation adjustment 1,2021.2.3,Win32,60.08171113,,,,,,,
,,,,,,,,,,,,,,,,,,,,,,67.22222222,-31,20,75,-18.77777778,12.22222222,12.22222222,-108.7777778,0.373148167,-0.300000012,1,0,0,0.8843,submitButton,-0.338888881,-0.382407421,0,0,0,1,3,63,15,1,31,69160,1,180,2022-02-10_13h32.28.930,orientation adjustment 1,2021.2.3,Win32,60.08171113,,,,,,,
,,,,,,,,,,,,,,,,,,,,,,38.33333333,-68,20,75,120.3333333,8.333333333,8.333333333,30.33333333,-0.34351851,-0.381481551,1,0,0,2.7728,submitButton,0.131481497,-0.260185197,0,0,0,1,4,64,52,1,68,69160,1,180,2022-02-10_13h32.28.930,orientation adjustment 1,2021.2.3,Win32,60.08171113,,,,,,,
,,,,,,,,,,,,,,,,,,,,,,54.44444444,-47,20,75,-58.55555556,11.55555556,11.55555556,-148.5555556,-0.332407399,-0.401851865,1,0,0,2.045,submitButton,0.303703721,-0.236111122,0,0,0,1,5,65,31,1,47,69160,1,180,2022-02-10_13h32.28.930,orientation adjustment 1,2021.2.3,Win32,60.08171113,,,,,,,
,,,,,,,,,,,,,,,,,,,,,,27.77777778,40,20,75,-107.2222222,32.77777778,32.77777778,-197.2222222,0.367592611,-0.293518587,1,0,0,0.5989,submitButton,-0.360185177,-0.39629631,0,0,0,1,6,66,24,1,40,69160,1,180,2022-02-10_13h32.28.930,orientation adjustment 1,2021.2.3,Win32,60.08171113,,,,,,,
,,,,,,,,,,,,,,,,,,,,,,68.33333333,-33,20,75,-58.66666667,25.66666667,25.66666667,-148.6666667,-0.316666658,-0.412037051,1,0,0,2.3937,submitButton,-0.316666658,-0.412037051,0,0,0,1,7,67,17,1,33,69160,1,180,2022-02-10_13h32.28.930,orientation adjustment 1,2021.2.3,Win32,60.08171113,,,,,,,
,,,,,,,,,,,,,,,,,,,,,,51.11111111,-45,20,75,-50.88888889,5.888888889,5.888888889,-140.8888889,-0.312962954,-0.412962977,1,0,0,2.0111,submitButton,-0.312962954,-0.412962977,0,0,0,1,8,68,29,1,45,69160,1,180,2022-02-10_13h32.28.930,orientation adjustment 1,2021.2.3,Win32,60.08171113,,,,,,,
,,,,,,,,,,,,,,,,,,,,,,-40,36,20,75,27,9,9,-63,0.240740758,-0.272222234,1,0,0,0.2328,submitButton,-0.322222214,-0.41666668,0,0,0,1,9,69,20,1,36,69160,1,180,2022-02-10_13h32.28.930,orientation adjustment 1,2021.2.3,Win32,60.08171113,,,,,,,
,,,,,,,,,,,,,,,,,,,,,,41.11111111,21,20,75,219.1111111,18.11111111,18.11111111,129.1111111,0.215740757,-0.281481493,1,0,0,0.1672,submitButton,0.179629646,-0.283333345,0,0,0,1,10,70,5,1,21,69160,1,180,2022-02-10_13h32.28.930,orientation adjustment 1,2021.2.3,Win32,60.08171113,,,,,,,
,,,,,,,,,,,,,,,,,,,,,,-40,-39,20,75,-103,64,64,-193,0.422222242,-0.296296308,1,0,0,0.1661,submitButton,-0.31851851,-0.400925939,0,0,0,1,11,71,23,1,39,69160,1,180,2022-02-10_13h32.28.930,orientation adjustment 1,2021.2.3,Win32,60.08171113,,,,,,,
,,,,,,,,,,,,,,,,,,,,,,-57.77777778,-73,20,75,-31.77777778,41.22222222,41.22222222,-121.7777778,0.231481498,-0.278703715,1,0,0,0.399,submitButton,-0.322222214,-0.401851865,0,0,0,1,12,72,57,1,73,69160,1,180,2022-02-10_13h32.28.930,orientation adjustment 1,2021.2.3,Win32,60.08171113,,,,,,,
,,,,,,,,,,,,,,,,,,,,,,-70,-67,20,75,-51,16,16,-141,0.224074091,-0.26851853,1,0,0,0.1164,submitButton,-0.369444437,-0.39629631,0,0,0,1,13,73,51,1,67,69160,1,180,2022-02-10_13h32.28.930,orientation adjustment 1,2021.2.3,Win32,60.08171113,,,,,,,
,,,,,,,,,,,,,,,,,,,,,,24.44444444,23,20,75,39.44444444,16.44444444,16.44444444,-50.55555556,0.20370372,-0.289814827,1,0,0,0.416,submitButton,0.348148167,-0.384259272,1,0,0,1,14,74,7,1,23,69160,1,180,2022-02-10_13h32.28.930,orientation adjustment 1,2021.2.3,Win32,60.08171113,pause_continueButton,,,,,,
,,,,,,,,,,,,,,,,,,,,,,-36.66666667,-57,20,75,-207.6666667,29.33333333,29.33333333,-297.6666667,0.400000019,-0.307407476,1,0,0,0.0835,submitButton,0.116666682,-0.23425927,0,0,0,1,15,75,41,1,57,69160,1,180,2022-02-10_13h32.28.930,orientation adjustment 1,2021.2.3,Win32,60.08171113,,,,,,,
,,,,,,,,,,,,,,,,,,,,,,-73.33333333,64,20,75,40.66666667,23.33333333,23.33333333,-49.33333333,-0.347222214,-0.380555569,1,0,0,2.1447,submitButton,-0.347222214,-0.380555569,0,0,0,1,16,76,48,1,64,69160,1,180,2022-02-10_13h32.28.930,orientation adjustment 1,2021.2.3,Win32,60.08171113,,,,,,,
,,,,,,,,,,,,,,,,,,,,,,40.55555556,-53,20,75,-46.44444444,6.555555556,6.555555556,-136.4444444,0.406481614,-0.294444456,1,0,0,0.6616,submitButton,-0.350925918,-0.380555569,0,0,0,1,17,77,37,1,53,69160,1,180,2022-02-10_13h32.28.930,orientation adjustment 1,2021.2.3,Win32,60.08171113,,,,,,,
,,,,,,,,,,,,,,,,,,,,,,70.55555556,-46,20,75,-33.44444444,12.55555556,12.55555556,-123.4444444,0.398148167,-0.299074086,1,0,0,0.2867,submitButton,-0.335185177,-0.382407421,0,0,0,1,18,78,30,1,46,69160,1,180,2022-02-10_13h32.28.930,orientation adjustment 1,2021.2.3,Win32,60.08171113,,,,,,,
,,,,,,,,,,,,,,,,,,,,,,-51.11111111,-59,20,75,-253.1111111,14.11111111,14.11111111,-343.1111111,0.398148167,-0.266666678,1,0,0,0.1133,submitButton,-0.331481473,-0.394444458,0,0,0,1,19,79,43,1,59,69160,1,180,2022-02-10_13h32.28.930,orientation adjustment 1,2021.2.3,Win32,60.08171113,,,,,,,
,,,,,,,,,,,,,,,,,,,,,,70.55555556,-32,20,75,144.5555556,3.444444444,3.444444444,54.55555556,-0.324074066,-0.42592594,1,0,0,2.843,submitButton,-0.310185177,-0.42129631,0,0,0,1,20,80,16,1,32,69160,1,180,2022-02-10_13h32.28.930,orientation adjustment 1,2021.2.3,Win32,60.08171113,,,,,,,
,,,,,,,,,,,,,,,,,,,,,,35,-61,20,75,-37,24,24,-127,0.376851871,-0.305555568,1,0,0,1.7621,submitButton,-0.336111103,-0.408333347,0,0,0,1,21,81,45,1,61,69160,1,180,2022-02-10_13h32.28.930,orientation adjustment 1,2021.2.3,Win32,60.08171113,,,,,,,
,,,,,,,,,,,,,,,,,,,,,,24.44444444,-28,20,75,133.4444444,18.55555556,18.55555556,43.44444444,0.157407423,-0.325925995,1,0,0,0.1497,submitButton,-0.292592584,-0.397222236,0,0,0,1,22,82,12,1,28,69160,1,180,2022-02-10_13h32.28.930,orientation adjustment 1,2021.2.3,Win32,60.08171113,,,,,,,
,,,,,,,,,,,,,,,,,,,,,,-27.77777778,35,20,75,-131.7777778,13.22222222,13.22222222,-221.7777778,0.387963095,-0.26851853,1,0,0,0.3341,submitButton,-0.335185177,-0.389814828,0,0,0,1,23,83,19,1,35,69160,1,180,2022-02-10_13h32.28.930,orientation adjustment 1,2021.2.3,Win32,60.08171113,,,,,,,
,,,,,,,,,,,,,,,,,,,,,,-70,-17,20,75,-8,9,9,-98,0.207407424,-0.298148217,1,0,0,3.6235,submitButton,-0.331481473,-0.4046297,0,0,0,1,24,84,1,1,17,69160,1,180,2022-02-10_13h32.28.930,orientation adjustment 1,2021.2.3,Win32,60.08171113,,,,,,,
,,,,,,,,,,,,,,,,,,,,,,-47.22222222,-18,20,75,-22.22222222,4.222222222,4.222222222,-112.2222222,0.206481498,-0.316666735,1,0,0,0.033,submitButton,-0.337037029,-0.412962977,0,0,0,1,25,85,2,1,18,69160,1,180,2022-02-10_13h32.28.930,orientation adjustment 1,2021.2.3,Win32,60.08171113,,,,,,,
,,,,,,,,,,,,,,,,,,,,,,61.11111111,34,20,75,45.11111111,11.11111111,11.11111111,-44.88888889,0.38611113,-0.284259327,1,0,0,0.2679,submitButton,-0.332407399,-0.412962977,0,0,0,1,26,86,18,1,34,69160,1,180,2022-02-10_13h32.28.930,orientation adjustment 1,2021.2.3,Win32,60.08171113,,,,,,,
,,,,,,,,,,,,,,,,,,,,,,28.33333333,72,20,75,63.33333333,8.666666667,8.666666667,-26.66666667,0.397222354,-0.321296365,1,0,0,0.4506,submitButton,-0.300925917,-0.403703717,0,0,0,1,27,87,56,1,72,69160,1,180,2022-02-10_13h32.28.930,orientation adjustment 1,2021.2.3,Win32,60.08171113,,,,,,,
,,,,,,,,,,,,,,,,,,,,,,62.22222222,-26,20,75,155.2222222,1.222222222,1.222222222,65.22222222,0.215740757,-0.325925995,1,0,0,0.1662,submitButton,-0.34814814,-0.415740754,0,0,0,1,28,88,10,1,26,69160,1,180,2022-02-10_13h32.28.930,orientation adjustment 1,2021.2.3,Win32,60.08171113,,,,,,,
,,,,,,,,,,,,,,,,,,,,,,38.88888889,-63,20,75,125.8888889,8.888888889,8.888888889,35.88888889,0.224074091,-0.287037049,1,0,0,0.2326,submitButton,0.32685187,-0.399074087,1,0,0,1,29,89,47,1,63,69160,1,180,2022-02-10_13h32.28.930,orientation adjustment 1,2021.2.3,Win32,60.08171113,pause_continueButton,,,,,,
,,,,,,,,,,,,,,,,,,,,,,66.66666667,41,20,75,30.66666667,10.33333333,10.33333333,-59.33333333,0.383333465,-0.298148217,1,0,0,2.4069,submitButton,-0.297222213,-0.398148162,0,0,0,1,30,90,25,1,41,69160,1,180,2022-02-10_13h32.28.930,orientation adjustment 1,2021.2.3,Win32,60.08171113,,,,,,,
,,,,,,,,,,,,,,,,,,,,,,53.33333333,42,20,75,95.33333333,53.33333333,53.33333333,5.333333333,-0.297222213,-0.398148162,1,0,0,0.2007,submitButton,-0.297222213,-0.398148162,0,0,0,1,31,91,26,1,42,69160,1,180,2022-02-10_13h32.28.930,orientation adjustment 1,2021.2.3,Win32,60.08171113,,,,,,,
,,,,,,,,,,,,,,,,,,,,,,70,-38,20,75,52,90,90,-38,0.225925943,-0.293518587,1,0,0,1.5831,submitButton,-0.315740732,-0.39629631,0,0,0,1,32,92,22,1,38,69160,1,180,2022-02-10_13h32.28.930,orientation adjustment 1,2021.2.3,Win32,60.08171113,,,,,,,
,,,,,,,,,,,,,,,,,,,,,,-32.77777778,56,20,75,43.22222222,12.77777778,12.77777778,-46.77777778,0.403703723,-0.328703716,1,0,0,0.2211,submitButton,-0.304629621,-0.388888902,0,0,0,1,33,93,40,1,56,69160,1,180,2022-02-10_13h32.28.930,orientation adjustment 1,2021.2.3,Win32,60.08171113,,,,,,,
,,,,,,,,,,,,,,,,,,,,,,27.22222222,58,20,75,51.22222222,6.777777778,6.777777778,-38.77777778,0.401851984,-0.299074086,1,0,0,0.4959,submitButton,-0.350925918,-0.411111125,0,0,0,1,34,94,42,1,58,69160,1,180,2022-02-10_13h32.28.930,orientation adjustment 1,2021.2.3,Win32,60.08171113,,,,,,,
,,,,,,,,,,,,,,,,,,,,,,-36.66666667,-66,20,75,-206.6666667,39.33333333,39.33333333,-296.6666667,0.393518538,-0.320370383,1,0,0,3.0103,submitButton,-0.341666659,-0.405555569,0,0,0,1,35,95,50,1,66,69160,1,180,2022-02-10_13h32.28.930,orientation adjustment 1,2021.2.3,Win32,60.08171113,,,,,,,
,,,,,,,,,,,,,,,,,,,,,,55.55555556,-70,20,75,-60.44444444,9.555555556,9.555555556,-150.4444444,0.417592612,-0.289814827,1,0,0,0.3117,submitButton,-0.287037028,-0.424074088,0,0,0,1,36,96,54,1,70,69160,1,180,2022-02-10_13h32.28.930,orientation adjustment 1,2021.2.3,Win32,60.08171113,,,,,,,
,,,,,,,,,,,,,,,,,,,,,,-21.11111111,75,20,75,65.88888889,9.111111111,9.111111111,-24.11111111,0.212037053,-0.296296308,1,0,0,0.9774,submitButton,-0.291666658,-0.40000007,0,0,0,1,37,97,59,1,75,69160,1,180,2022-02-10_13h32.28.930,orientation adjustment 1,2021.2.3,Win32,60.08171113,,,,,,,
,,,,,,,,,,,,,,,,,,,,,,-65,-19,20,75,-216,17,17,-306,-0.292592584,-0.403703717,1,0,0,3.1213,submitButton,-0.292592584,-0.403703717,0,0,0,1,38,98,3,1,19,69160,1,180,2022-02-10_13h32.28.930,orientation adjustment 1,2021.2.3,Win32,60.08171113,,,,,,,
,,,,,,,,,,,,,,,,,,,,,,-47.22222222,60,20,75,37.77777778,22.22222222,22.22222222,-52.22222222,0.217592609,-0.282407419,1,0,0,0.4616,submitButton,-0.301851843,-0.394444458,0,0,0,1,39,99,44,1,60,69160,1,180,2022-02-10_13h32.28.930,orientation adjustment 1,2021.2.3,Win32,60.08171113,,,,,,,
,,,,,,,,,,,,,,,,,,,,,,-20,48,20,75,55,7,7,-35,0.20370372,-0.295370382,1,0,0,0.0473,submitButton,-0.325925918,-0.393518532,0,0,0,1,40,100,32,1,48,69160,1,180,2022-02-10_13h32.28.930,orientation adjustment 1,2021.2.3,Win32,60.08171113,,,,,,,
,,,,,,,,,,,,,,,,,,,,,,32.22222222,-16,20,75,-20.77777778,4.777777778,4.777777778,-110.7777778,-0.322222214,-0.369444457,1,0,0,1.8616,submitButton,-0.305555547,-0.39166668,0,0,0,1,41,101,0,1,16,69160,1,180,2022-02-10_13h32.28.930,orientation adjustment 1,2021.2.3,Win32,60.08171113,,,,,,,
,,,,,,,,,,,,,,,,,,,,,,69.44444444,54,20,75,221.4444444,12.55555556,12.55555556,131.4444444,-0.357407399,-0.390740811,1,0,0,2.2075,submitButton,-0.357407399,-0.390740811,0,0,0,1,42,102,38,1,54,69160,1,180,2022-02-10_13h32.28.930,orientation adjustment 1,2021.2.3,Win32,60.08171113,,,,,,,
,,,,,,,,,,,,,,,,,,,,,,46.66666667,-65,20,75,-51.33333333,13.66666667,13.66666667,-141.3333333,0.419444464,-0.301851864,1,0,0,0.279,submitButton,-0.330555547,-0.39629631,0,0,0,1,43,103,49,1,65,69160,1,180,2022-02-10_13h32.28.930,orientation adjustment 1,2021.2.3,Win32,60.08171113,,,,,,,
,,,,,,,,,,,,,,,,,,,,,,-27.77777778,-52,20,75,-42.77777778,9.222222222,9.222222222,-132.7777778,0.204629646,-0.322222234,1,0,0,0.2497,submitButton,0.369444576,-0.402777791,1,0,0,1,44,104,36,1,52,69160,1,180,2022-02-10_13h32.28.930,orientation adjustment 1,2021.2.3,Win32,60.08171113,pause_continueButton,,,,,,
,,,,,,,,,,,,,,,,,,,,,,-71.11111111,-29,20,75,-34.11111111,5.111111111,5.111111111,-124.1111111,-0.31388888,-0.392592606,1,0,0,1.8087,submitButton,-0.31388888,-0.392592606,0,0,0,1,45,105,13,1,29,69160,1,180,2022-02-10_13h32.28.930,orientation adjustment 1,2021.2.3,Win32,60.08171113,,,,,,,
,,,,,,,,,,,,,,,,,,,,,,-65,62,20,75,55,7,7,-35,-0.316666658,-0.39629631,1,0,0,1.2436,submitButton,-0.316666658,-0.39629631,0,0,0,1,46,106,46,1,62,69160,1,180,2022-02-10_13h32.28.930,orientation adjustment 1,2021.2.3,Win32,60.08171113,,,,,,,
,,,,,,,,,,,,,,,,,,,,,,-23.88888889,50,20,75,56.11111111,6.111111111,6.111111111,-33.88888889,0.183333349,-0.302777846,1,0,0,0.2837,submitButton,-0.337962955,-0.39166668,0,0,0,1,47,107,34,1,50,69160,1,180,2022-02-10_13h32.28.930,orientation adjustment 1,2021.2.3,Win32,60.08171113,,,,,,,
,,,,,,,,,,,,,,,,,,,,,,46.66666667,24,20,75,36.66666667,12.66666667,12.66666667,-53.33333333,0.220370387,-0.266666678,1,0,0,0.1299,submitButton,-0.304629621,-0.39629631,0,0,0,1,48,108,8,1,24,69160,1,180,2022-02-10_13h32.28.930,orientation adjustment 1,2021.2.3,Win32,60.08171113,,,,,,,
,,,,,,,,,,,,,,,,,,,,,,-31.66666667,-30,20,75,-25.66666667,4.333333333,4.333333333,-115.6666667,-0.316666658,-0.399074087,1,0,0,1.3967,submitButton,-0.316666658,-0.399074087,0,0,0,1,49,109,14,1,30,69160,1,180,2022-02-10_13h32.28.930,orientation adjustment 1,2021.2.3,Win32,60.08171113,,,,,,,
,,,,,,,,,,,,,,,,,,,,,,41.11111111,55,20,75,49.11111111,5.888888889,5.888888889,-40.88888889,0.434259392,-0.306481493,1,0,0,0.5617,submitButton,-0.303703695,-0.412962977,0,0,0,1,50,110,39,1,55,69160,1,180,2022-02-10_13h32.28.930,orientation adjustment 1,2021.2.3,Win32,60.08171113,,,,,,,
,,,,,,,,,,,,,,,,,,,,,,-21.66666667,27,20,75,42.33333333,15.33333333,15.33333333,-47.66666667,0.186111127,-0.288888957,1,0,0,0.3333,submitButton,-0.324999992,-0.401851865,0,0,0,1,51,111,11,1,27,69160,1,180,2022-02-10_13h32.28.930,orientation adjustment 1,2021.2.3,Win32,60.08171113,,,,,,,
,,,,,,,,,,,,,,,,,,,,,,59.44444444,-51,20,75,-38.55555556,12.44444444,12.44444444,-128.5555556,0.348148167,-0.297222234,1,0,0,0.0177,submitButton,-0.324999992,-0.412962977,0,0,0,1,52,112,35,1,51,69160,1,180,2022-02-10_13h32.28.930,orientation adjustment 1,2021.2.3,Win32,60.08171113,,,,,,,
,,,,,,,,,,,,,,,,,,,,,,-60,25,20,75,41,16,16,-49,0.239814832,-0.334259272,1,0,0,0.2462,submitButton,-0.315740732,-0.39629631,0,0,0,1,53,113,9,1,25,69160,1,180,2022-02-10_13h32.28.930,orientation adjustment 1,2021.2.3,Win32,60.08171113,,,,,,,
,,,,,,,,,,,,,,,,,,,,,,25.55555556,-20,20,75,-20.44444444,0.444444444,0.444444444,-110.4444444,-0.299074065,-0.371296309,1,0,0,1.3431,submitButton,-0.301851843,-0.406481495,0,0,0,1,54,114,4,1,20,69160,1,180,2022-02-10_13h32.28.930,orientation adjustment 1,2021.2.3,Win32,60.08171113,,,,,,,
,,,,,,,,,,,,,,,,,,,,,,-46.11111111,43,20,75,62.88888889,19.88888889,19.88888889,-27.11111111,-0.304629621,-0.397222236,1,0,0,1.4803,submitButton,-0.304629621,-0.397222236,0,0,0,1,55,115,27,1,43,69160,1,180,2022-02-10_13h32.28.930,orientation adjustment 1,2021.2.3,Win32,60.08171113,,,,,,,
,,,,,,,,,,,,,,,,,,,,,,73.33333333,44,20,75,37.33333333,6.666666667,6.666666667,-52.66666667,0.427777797,-0.275000068,1,0,0,0.3327,submitButton,-0.287962954,-0.408333347,0,0,0,1,56,116,28,1,44,69160,1,180,2022-02-10_13h32.28.930,orientation adjustment 1,2021.2.3,Win32,60.08171113,,,,,,,
,,,,,,,,,,,,,,,,,,,,,,-73.33333333,74,20,75,78.66666667,4.666666667,4.666666667,-11.33333333,0.226851868,-0.321296365,1,0,0,0.1463,submitButton,-0.331481473,-0.40000007,0,0,0,1,57,117,58,1,74,69160,1,180,2022-02-10_13h32.28.930,orientation adjustment 1,2021.2.3,Win32,60.08171113,,,,,,,
,,,,,,,,,,,,,,,,,,,,,,-68.33333333,-69,20,75,-106.3333333,37.33333333,37.33333333,-196.3333333,0.180555571,-0.285185197,1,0,0,0.213,submitButton,-0.338888881,-0.409259329,0,0,0,1,58,118,53,1,69,69160,1,180,2022-02-10_13h32.28.930,orientation adjustment 1,2021.2.3,Win32,60.08171113,,,,,,,
,,,,,,,,,,,,,,,,,,,,,,32.22222222,-49,20,75,-56.77777778,7.777777778,7.777777778,-146.7777778,0.249074091,-0.300000012,1,0,0,0.1338,submitButton,0.333333352,-0.41666668,1,0,0,1,59,119,33,1,49,69160,1,180,2022-02-10_13h32.28.930,orientation adjustment 1,2021.2.3,Win32,60.08171113,pause_continueButton,,,,,,
,,,,,,,,,,,,,,,,,,,,,,-69.44444444,-59,20,75,-128.4444444,69.44444444,69.44444444,-218.4444444,-0.309259251,-0.393518532,1,0,0,1.7628,submitButton,-0.309259251,-0.393518532,0,0,0,2,0,120,43,1,59,69160,1,180,2022-02-10_13h32.28.930,orientation adjustment 1,2021.2.3,Win32,60.08171113,,,,,,,
,,,,,,,,,,,,,,,,,,,,,,39.44444444,-37,20,75,146.4444444,3.444444444,3.444444444,56.44444444,0.216666683,-0.295370382,1,0,0,0.0875,submitButton,0.123148163,-0.284259327,0,0,0,2,1,121,21,1,37,69160,1,180,2022-02-10_13h32.28.930,orientation adjustment 1,2021.2.3,Win32,60.08171113,,,,,,,
,,,,,,,,,,,,,,,,,,,,,,69.44444444,63,20,75,42.44444444,20.55555556,20.55555556,-47.55555556,-0.308333325,-0.405555569,1,0,0,2.3775,submitButton,-0.308333325,-0.405555569,0,0,0,2,2,122,47,1,63,69160,1,180,2022-02-10_13h32.28.930,orientation adjustment 1,2021.2.3,Win32,60.08171113,,,,,,,
,,,,,,,,,,,,,,,,,,,,,,31.11111111,33,20,75,197.1111111,15.88888889,15.88888889,107.1111111,0.257407424,-0.287962975,1,0,0,0.5991,submitButton,-0.303703695,-0.407407421,0,0,0,2,3,123,17,1,33,69160,1,180,2022-02-10_13h32.28.930,orientation adjustment 1,2021.2.3,Win32,60.08171113,,,,,,,
,,,,,,,,,,,,,,,,,,,,,,46.66666667,-54,20,75,-49.33333333,4.666666667,4.666666667,-139.3333333,0.414814834,-0.27314816,1,0,0,0.3029,submitButton,-0.337037029,-0.419444458,0,0,0,2,4,124,38,1,54,69160,1,180,2022-02-10_13h32.28.930,orientation adjustment 1,2021.2.3,Win32,60.08171113,,,,,,,
,,,,,,,,,,,,,,,,,,,,,,51.66666667,21,20,75,204.6666667,3.666666667,3.666666667,114.6666667,0.23333335,-0.279629698,1,0,0,0.3623,submitButton,-0.3824074,-0.411111125,0,0,0,2,5,125,5,1,21,69160,1,180,2022-02-10_13h32.28.930,orientation adjustment 1,2021.2.3,Win32,60.08171113,,,,,,,
,,,,,,,,,,,,,,,,,,,,,,51.11111111,60,20,75,57.11111111,2.888888889,2.888888889,-32.88888889,0.366666685,-0.284259327,1,0,0,0.1497,submitButton,-0.327777769,-0.389814828,0,0,0,2,6,126,44,1,60,69160,1,180,2022-02-10_13h32.28.930,orientation adjustment 1,2021.2.3,Win32,60.08171113,,,,,,,
,,,,,,,,,,,,,,,,,,,,,,-48.88888889,16,20,75,-131.8888889,32.11111111,32.11111111,-221.8888889,0.414814834,-0.275000068,1,0,0,0.2176,submitButton,-0.329629621,-0.399074087,0,0,0,2,7,127,0,1,16,69160,1,180,2022-02-10_13h32.28.930,orientation adjustment 1,2021.2.3,Win32,60.08171113,,,,,,,
,,,,,,,,,,,,,,,,,,,,,,-61.66666667,64,20,75,-111.6666667,4.333333333,4.333333333,-201.6666667,0.45740754,-0.277777789,1,0,0,0.2835,submitButton,-0.338888881,-0.408333347,0,0,0,2,8,128,48,1,64,69160,1,180,2022-02-10_13h32.28.930,orientation adjustment 1,2021.2.3,Win32,60.08171113,,,,,,,
,,,,,,,,,,,,,,,,,,,,,,48.88888889,-45,20,75,-48.11111111,3.111111111,3.111111111,-138.1111111,-0.345370362,-0.383333346,1,0,0,1.724,submitButton,-0.345370362,-0.383333346,0,0,0,2,9,129,29,1,45,69160,1,180,2022-02-10_13h32.28.930,orientation adjustment 1,2021.2.3,Win32,60.08171113,,,,,,,
,,,,,,,,,,,,,,,,,,,,,,-56.66666667,-48,20,75,-207.6666667,20.33333333,20.33333333,-297.6666667,0.408333353,-0.284259327,1,0,0,0.2496,submitButton,-0.297222213,-0.401851865,0,0,0,2,10,130,32,1,48,69160,1,180,2022-02-10_13h32.28.930,orientation adjustment 1,2021.2.3,Win32,60.08171113,,,,,,,
,,,,,,,,,,,,,,,,,,,,,,49.44444444,-20,20,75,140.4444444,19.55555556,19.55555556,50.44444444,0.222222239,-0.299074086,1,0,0,0.7156,submitButton,-0.394444437,-0.410185199,0,0,0,2,11,131,4,1,20,69160,1,180,2022-02-10_13h32.28.930,orientation adjustment 1,2021.2.3,Win32,60.08171113,,,,,,,
,,,,,,,,,,,,,,,,,,,,,,-55.55555556,36,20,75,32.44444444,3.555555556,3.555555556,-57.55555556,0.238888906,-0.288888957,1,0,0,0.6852,submitButton,-0.340740733,-0.393518532,0,0,0,2,12,132,20,1,36,69160,1,180,2022-02-10_13h32.28.930,orientation adjustment 1,2021.2.3,Win32,60.08171113,,,,,,,
,,,,,,,,,,,,,,,,,,,,,,57.22222222,65,20,75,66.22222222,1.222222222,1.222222222,-23.77777778,0.400925945,-0.286111123,1,0,0,0.7821,submitButton,-0.345370362,-0.39537044,0,0,0,2,13,133,49,1,65,69160,1,180,2022-02-10_13h32.28.930,orientation adjustment 1,2021.2.3,Win32,60.08171113,,,,,,,
,,,,,,,,,,,,,,,,,,,,,,-55,70,20,75,79,9,9,-11,0.185185201,-0.278703715,1,0,0,0.4786,submitButton,0.336111129,-0.408333347,1,0,0,2,14,134,54,1,70,69160,1,180,2022-02-10_13h32.28.930,orientation adjustment 1,2021.2.3,Win32,60.08171113,pause_continueButton,,,,,,
,,,,,,,,,,,,,,,,,,,,,,-43.33333333,56,20,75,43.66666667,12.33333333,12.33333333,-46.33333333,0.226851868,-0.32777779,1,0,0,1.0644,submitButton,-0.396296289,-0.417592606,0,0,0,2,15,135,40,1,56,69160,1,180,2022-02-10_13h32.28.930,orientation adjustment 1,2021.2.3,Win32,60.08171113,,,,,,,
,,,,,,,,,,,,,,,,,,,,,,-50,-66,20,75,-217,29,29,-307,0.382407426,-0.278703715,1,0,0,0.4124,submitButton,-0.295370362,-0.385185198,0,0,0,2,16,136,50,1,66,69160,1,180,2022-02-10_13h32.28.930,orientation adjustment 1,2021.2.3,Win32,60.08171113,,,,,,,
,,,,,,,,,,,,,,,,,,,,,,47.77777778,-74,20,75,-62.22222222,11.77777778,11.77777778,-152.2222222,0.225000017,-0.305555568,1,0,0,0.4943,submitButton,-0.302777769,-0.387962976,0,0,0,2,17,137,58,1,74,69160,1,180,2022-02-10_13h32.28.930,orientation adjustment 1,2021.2.3,Win32,60.08171113,,,,,,,
,,,,,,,,,,,,,,,,,,,,,,-38.88888889,41,20,75,42.11111111,1.111111111,1.111111111,-47.88888889,0.189814831,-0.307407476,1,0,0,1.1636,submitButton,-0.349999992,-0.39166668,0,0,0,2,18,138,25,1,41,69160,1,180,2022-02-10_13h32.28.930,orientation adjustment 1,2021.2.3,Win32,60.08171113,,,,,,,
,,,,,,,,,,,,,,,,,,,,,,75,28,20,75,231,23,23,141,0.213888905,-0.286111123,1,0,0,0.6355,submitButton,-0.291666658,-0.39537044,0,0,0,2,19,139,12,1,28,69160,1,180,2022-02-10_13h32.28.930,orientation adjustment 1,2021.2.3,Win32,60.08171113,,,,,,,
,,,,,,,,,,,,,,,,,,,,,,-70,31,20,75,45,14,14,-45,0.225925943,-0.276851863,1,0,0,0.2203,submitButton,-0.317592584,-0.388888902,0,0,0,2,20,140,15,1,31,69160,1,180,2022-02-10_13h32.28.930,orientation adjustment 1,2021.2.3,Win32,60.08171113,,,,,,,
,,,,,,,,,,,,,,,,,,,,,,-42.22222222,68,20,75,84.77777778,16.77777778,16.77777778,-5.222222222,0.172222238,-0.299074086,1,0,0,0.386,submitButton,-0.334259251,-0.408333347,0,0,0,2,21,141,52,1,68,69160,1,180,2022-02-10_13h32.28.930,orientation adjustment 1,2021.2.3,Win32,60.08171113,,,,,,,
,,,,,,,,,,,,,,,,,,,,,,70.55555556,-73,20,75,-32.44444444,40.55555556,40.55555556,-122.4444444,0.19907409,-0.293518587,1,0,0,0.3789,submitButton,-0.364814807,-0.389814828,0,0,0,2,22,142,57,1,73,69160,1,180,2022-02-10_13h32.28.930,orientation adjustment 1,2021.2.3,Win32,60.08171113,,,,,,,
,,,,,,,,,,,,,,,,,,,,,,49.44444444,-23,20,75,164.4444444,7.444444444,7.444444444,74.44444444,0.207407424,-0.293518587,1,0,0,2.4772,submitButton,-0.311111103,-0.403703717,0,0,0,2,23,143,7,1,23,69160,1,180,2022-02-10_13h32.28.930,orientation adjustment 1,2021.2.3,Win32,60.08171113,,,,,,,
,,,,,,,,,,,,,,,,,,,,,,-23.33333333,-27,20,75,-16.33333333,10.66666667,10.66666667,-106.3333333,0.220370387,-0.305555568,1,0,0,0.4482,submitButton,-0.336111103,-0.398148162,0,0,0,2,24,144,11,1,27,69160,1,180,2022-02-10_13h32.28.930,orientation adjustment 1,2021.2.3,Win32,60.08171113,,,,,,,
,,,,,,,,,,,,,,,,,,,,,,-54.44444444,30,20,75,27.55555556,2.444444444,2.444444444,-62.44444444,0.218518535,-0.264814826,1,0,0,0.5155,submitButton,-0.320370362,-0.398148162,0,0,0,2,25,145,14,1,30,69160,1,180,2022-02-10_13h32.28.930,orientation adjustment 1,2021.2.3,Win32,60.08171113,,,,,,,
,,,,,,,,,,,,,,,,,,,,,,-30.55555556,24,20,75,35.44444444,11.44444444,11.44444444,-54.55555556,0.217592609,-0.290740753,1,0,0,0.4161,submitButton,-0.312037028,-0.387962976,0,0,0,2,26,146,8,1,24,69160,1,180,2022-02-10_13h32.28.930,orientation adjustment 1,2021.2.3,Win32,60.08171113,,,,,,,
,,,,,,,,,,,,,,,,,,,,,,63.33333333,40,20,75,210.3333333,9.666666667,9.666666667,120.3333333,0.225000017,-0.275000068,1,0,0,0.0995,submitButton,-0.281481472,-0.392592606,0,0,0,2,27,147,24,1,40,69160,1,180,2022-02-10_13h32.28.930,orientation adjustment 1,2021.2.3,Win32,60.08171113,,,,,,,
,,,,,,,,,,,,,,,,,,,,,,67.77777778,-55,20,75,-43.22222222,11.77777778,11.77777778,-133.2222222,0.362962982,-0.285185197,1,0,0,0.0501,submitButton,-0.359259251,-0.407407421,0,0,0,2,28,148,39,1,55,69160,1,180,2022-02-10_13h32.28.930,orientation adjustment 1,2021.2.3,Win32,60.08171113,,,,,,,
,,,,,,,,,,,,,,,,,,,,,,-47.77777778,19,20,75,33.22222222,14.22222222,14.22222222,-56.77777778,0.325925944,-0.288888957,1,0,0,0.2504,submitButton,0.362037056,-0.405555569,1,0,0,2,29,149,3,1,19,69160,1,180,2022-02-10_13h32.28.930,orientation adjustment 1,2021.2.3,Win32,60.08171113,pause_continueButton,,,,,,
,,,,,,,,,,,,,,,,,,,,,,-21.11111111,17,20,75,-35.11111111,52.11111111,52.11111111,-125.1111111,0.401851984,-0.283333345,1,0,0,0.7824,submitButton,-0.307407399,-0.392592606,0,0,0,2,30,150,1,1,17,69160,1,180,2022-02-10_13h32.28.930,orientation adjustment 1,2021.2.3,Win32,60.08171113,,,,,,,
,,,,,,,,,,,,,,,,,,,,,,-60.55555556,52,20,75,56.44444444,4.444444444,4.444444444,-33.55555556,0.193518535,-0.317592605,1,0,0,0.0139,submitButton,-0.334259251,-0.392592606,0,0,0,2,31,151,36,1,52,69160,1,180,2022-02-10_13h32.28.930,orientation adjustment 1,2021.2.3,Win32,60.08171113,,,,,,,
,,,,,,,,,,,,,,,,,,,,,,52.77777778,-22,20,75,-35.22222222,13.22222222,13.22222222,-125.2222222,0.403703723,-0.298148217,1,0,0,0.0966,submitButton,-0.341666659,-0.386111181,0,0,0,2,32,152,6,1,22,69160,1,180,2022-02-10_13h32.28.930,orientation adjustment 1,2021.2.3,Win32,60.08171113,,,,,,,
,,,,,,,,,,,,,,,,,,,,,,-50,32,20,75,42,10,10,-48,-0.333333325,-0.412962977,1,0,0,1.3959,submitButton,-0.333333325,-0.412962977,0,0,0,2,33,153,16,1,32,69160,1,180,2022-02-10_13h32.28.930,orientation adjustment 1,2021.2.3,Win32,60.08171113,,,,,,,
,,,,,,,,,,,,,,,,,,,,,,71.66666667,69,20,75,240.6666667,8.333333333,8.333333333,150.6666667,-0.306481473,-0.426851866,1,0,0,2.2901,submitButton,-0.306481473,-0.426851866,0,0,0,2,34,154,53,1,69,69160,1,180,2022-02-10_13h32.28.930,orientation adjustment 1,2021.2.3,Win32,60.08171113,,,,,,,
,,,,,,,,,,,,,,,,,,,,,,37.77777778,75,20,75,247.7777778,7.222222222,7.222222222,157.7777778,0.23796298,-0.286111123,1,0,0,0.4861,submitButton,-0.331481473,-0.412962977,0,0,0,2,35,155,59,1,75,69160,1,180,2022-02-10_13h32.28.930,orientation adjustment 1,2021.2.3,Win32,60.08171113,,,,,,,
,,,,,,,,,,,,,,,,,,,,,,-57.77777778,35,20,75,-143.7777778,1.222222222,1.222222222,-233.7777778,0.296296314,-0.278703715,1,0,0,0.4342,submitButton,-0.099074062,-0.325000012,0,0,0,2,36,156,19,1,35,69160,1,180,2022-02-10_13h32.28.930,orientation adjustment 1,2021.2.3,Win32,60.08171113,,,,,,,
,,,,,,,,,,,,,,,,,,,,,,28.33333333,-51,20,75,-50.66666667,0.333333333,0.333333333,-140.6666667,0.408333353,-0.302777846,1,0,0,0.6155,submitButton,-0.354629622,-0.389814828,0,0,0,2,37,157,35,1,51,69160,1,180,2022-02-10_13h32.28.930,orientation adjustment 1,2021.2.3,Win32,60.08171113,,,,,,,
,,,,,,,,,,,,,,,,,,,,,,40.55555556,-39,20,75,-34.44444444,4.555555556,4.555555556,-124.4444444,0.226851868,-0.300000012,1,0,0,0.6323,submitButton,-0.306481473,-0.406481495,0,0,0,2,38,158,23,1,39,69160,1,180,2022-02-10_13h32.28.930,orientation adjustment 1,2021.2.3,Win32,60.08171113,,,,,,,
,,,,,,,,,,,,,,,,,,,,,,-43.88888889,26,20,75,25.11111111,0.888888889,0.888888889,-64.88888889,0.150000015,-0.280555567,1,0,0,0.3493,submitButton,-0.349074066,-0.412037051,0,0,0,2,39,159,10,1,26,69160,1,180,2022-02-10_13h32.28.930,orientation adjustment 1,2021.2.3,Win32,60.08171113,,,,,,,
,,,,,,,,,,,,,,,,,,,,,,-47.22222222,-44,20,75,-214.2222222,9.777777778,9.777777778,-304.2222222,0.412962982,-0.291666678,1,0,0,0.0168,submitButton,-0.304629621,-0.405555569,0,0,0,2,40,160,28,1,44,69160,1,180,2022-02-10_13h32.28.930,orientation adjustment 1,2021.2.3,Win32,60.08171113,,,,,,,
,,,,,,,,,,,,,,,,,,,,,,-61.11111111,67,20,75,63.88888889,3.111111111,3.111111111,-26.11111111,-0.316666658,-0.394444458,1,0,0,2.0081,submitButton,-0.316666658,-0.394444458,0,0,0,2,41,161,51,1,67,69160,1,180,2022-02-10_13h32.28.930,orientation adjustment 1,2021.2.3,Win32,60.08171113,,,,,,,
,,,,,,,,,,,,,,,,,,,,,,-47.77777778,58,20,75,64.22222222,6.222222222,6.222222222,-25.77777778,0.227777794,-0.297222234,1,0,0,0.3121,submitButton,-0.324074066,-0.405555569,0,0,0,2,42,162,42,1,58,69160,1,180,2022-02-10_13h32.28.930,orientation adjustment 1,2021.2.3,Win32,60.08171113,,,,,,,
,,,,,,,,,,,,,,,,,,,,,,-56.66666667,43,20,75,42.33333333,0.666666667,0.666666667,-47.66666667,-0.325925918,-0.402777791,1,0,0,1.7753,submitButton,-0.325925918,-0.402777791,0,0,0,2,43,163,27,1,43,69160,1,180,2022-02-10_13h32.28.930,orientation adjustment 1,2021.2.3,Win32,60.08171113,,,,,,,
,,,,,,,,,,,,,,,,,,,,,,-57.22222222,29,20,75,-151.2222222,0.222222222,0.222222222,-241.2222222,0.399074093,-0.286111123,1,0,0,0.3825,submitButton,0.300000131,-0.400925939,1,0,0,2,44,164,13,1,29,69160,1,180,2022-02-10_13h32.28.930,orientation adjustment 1,2021.2.3,Win32,60.08171113,pause_continueButton,,,,,,
,,,,,,,,,,,,,,,,,,,,,,-65,-38,20,75,-42,4,4,-132,-0.365740733,-0.411111125,1,0,0,1.8456,submitButton,-0.365740733,-0.411111125,0,0,0,2,45,165,22,1,38,69160,1,180,2022-02-10_13h32.28.930,orientation adjustment 1,2021.2.3,Win32,60.08171113,,,,,,,
,,,,,,,,,,,,,,,,,,,,,,21.11111111,-42,20,75,-20.88888889,21.11111111,21.11111111,-110.8888889,-0.326851843,-0.394444458,1,0,0,0.8849,submitButton,-0.326851843,-0.394444458,0,0,0,2,46,166,26,1,42,69160,1,180,2022-02-10_13h32.28.930,orientation adjustment 1,2021.2.3,Win32,60.08171113,,,,,,,
,,,,,,,,,,,,,,,,,,,,,,-33.88888889,-25,20,75,-25.88888889,0.888888889,0.888888889,-115.8888889,0.205555572,-0.333333346,1,0,0,0.1345,submitButton,-0.326851843,-0.401851865,0,0,0,2,47,167,9,1,25,69160,1,180,2022-02-10_13h32.28.930,orientation adjustment 1,2021.2.3,Win32,60.08171113,,,,,,,
,,,,,,,,,,,,,,,,,,,,,,61.66666667,-57,20,75,123.6666667,0.666666667,0.666666667,33.66666667,0.20370372,-0.293518587,1,0,0,0.1163,submitButton,-0.316666658,-0.417592606,0,0,0,2,48,168,41,1,57,69160,1,180,2022-02-10_13h32.28.930,orientation adjustment 1,2021.2.3,Win32,60.08171113,,,,,,,
,,,,,,,,,,,,,,,,,,,,,,-68.33333333,18,20,75,-143.3333333,18.66666667,18.66666667,-233.3333333,0.337037168,-0.325925995,1,0,0,0.183,submitButton,-0.28888888,-0.407407421,0,0,0,2,49,169,2,1,18,69160,1,180,2022-02-10_13h32.28.930,orientation adjustment 1,2021.2.3,Win32,60.08171113,,,,,,,
,,,,,,,,,,,,,,,,,,,,,,55,34,20,75,26,8,8,-64,0.393518538,-0.271296308,1,0,0,0.5997,submitButton,-0.31388888,-0.392592606,0,0,0,2,50,170,18,1,34,69160,1,180,2022-02-10_13h32.28.930,orientation adjustment 1,2021.2.3,Win32,60.08171113,,,,,,,
,,,,,,,,,,,,,,,,,,,,,,-38.88888889,-72,20,75,-236.8888889,15.11111111,15.11111111,-326.8888889,0.376851871,-0.301851864,1,0,0,0.9105,submitButton,-0.052777765,-0.25185192,0,0,0,2,51,171,56,1,72,69160,1,180,2022-02-10_13h32.28.930,orientation adjustment 1,2021.2.3,Win32,60.08171113,,,,,,,
,,,,,,,,,,,,,,,,,,,,,,36.11111111,-50,20,75,-47.88888889,2.111111111,2.111111111,-137.8888889,0.394444464,-0.298148217,1,0,0,0.1007,submitButton,-0.312962954,-0.408333347,0,0,0,2,52,172,34,1,50,69160,1,180,2022-02-10_13h32.28.930,orientation adjustment 1,2021.2.3,Win32,60.08171113,,,,,,,
,,,,,,,,,,,,,,,,,,,,,,37.22222222,-46,20,75,-46.77777778,0.777777778,0.777777778,-136.7777778,0.412037056,-0.292592604,1,0,0,0.23,submitButton,-0.360185177,-0.403703717,0,0,0,2,53,173,30,1,46,69160,1,180,2022-02-10_13h32.28.930,orientation adjustment 1,2021.2.3,Win32,60.08171113,,,,,,,
,,,,,,,,,,,,,,,,,,,,,,65.55555556,62,20,75,215.5555556,26.44444444,26.44444444,125.5555556,0.278703721,-0.294444456,1,0,0,0.6985,submitButton,-0.320370362,-0.39537044,0,0,0,2,54,174,46,1,62,69160,1,180,2022-02-10_13h32.28.930,orientation adjustment 1,2021.2.3,Win32,60.08171113,,,,,,,
,,,,,,,,,,,,,,,,,,,,,,53.33333333,-47,20,75,-45.66666667,1.333333333,1.333333333,-135.6666667,0.408333353,-0.285185197,1,0,0,0.1299,submitButton,-0.309259251,-0.398148162,0,0,0,2,55,175,31,1,47,69160,1,180,2022-02-10_13h32.28.930,orientation adjustment 1,2021.2.3,Win32,60.08171113,,,,,,,
,,,,,,,,,,,,,,,,,,,,,,-30.55555556,53,20,75,54.44444444,1.444444444,1.444444444,-35.55555556,0.20370372,-0.285185197,1,0,0,1.2261,submitButton,-0.422222215,-0.400925939,0,0,0,2,56,176,37,1,53,69160,1,180,2022-02-10_13h32.28.930,orientation adjustment 1,2021.2.3,Win32,60.08171113,,,,,,,
,,,,,,,,,,,,,,,,,,,,,,-40,-49,20,75,-211,18,18,-301,0.377777797,-0.280555567,1,0,0,1.6591,submitButton,-0.315740732,-0.387962976,0,0,0,2,57,177,33,1,49,69160,1,180,2022-02-10_13h32.28.930,orientation adjustment 1,2021.2.3,Win32,60.08171113,,,,,,,
,,,,,,,,,,,,,,,,,,,,,,-33.88888889,-61,20,75,-235.8888889,5.111111111,5.111111111,-325.8888889,0.402777797,-0.284259327,1,0,0,0.3319,submitButton,-0.312962954,-0.413888959,0,0,0,2,58,178,45,1,61,69160,1,180,2022-02-10_13h32.28.930,orientation adjustment 1,2021.2.3,Win32,60.08171113,,,,,,,
,,,,,,,,,,,,,,,,,,,,,,-56.66666667,71,20,75,61.33333333,9.666666667,9.666666667,-28.66666667,0.413888908,-0.269444456,1,0,0,0.4147,submitButton,-0.31851851,-0.405555569,0,0,0,2,59,179,55,1,71,69160,1,180,2022-02-10_13h32.28.930,orientation adjustment 1,2021.2.3,Win32,60.08171113,,,,,,,
,,,,,,,,,,,,,,,,,,,,,,,,,,,,,,,,,,,,,,,,,,,,,,,,69160,1,180,2022-02-10_13h32.28.930,orientation adjustment 1,2021.2.3,Win32,60.08171113,,0.321296314,-0.411111125,1,0,0,EndButtonTxt
