consentMouse1.x,consentMouse1.y,consentMouse1.leftButton,consentMouse1.midButton,consentMouse1.rightButton,consentMouse1.clicked_name,consent_Mouse.x,consent_Mouse.y,consent_Mouse.leftButton,consent_Mouse.midButton,consent_Mouse.rightButton,consent_Mouse.clicked_name,startMouse.x,startMouse.y,startMouse.leftButton,startMouse.midButton,startMouse.rightButton,startMouse_2.x,startMouse_2.y,startMouse_2.leftButton,startMouse_2.midButton,startMouse_2.rightButton,start_distance,fixedOri,minimalDistance,maxOri,this_ori,accuracy,presented_accuracy,presented_this_ori,submitMouse.x,submitMouse.y,submitMouse.leftButton,submitMouse.midButton,submitMouse.rightButton,submitMouse.time,submitMouse.clicked_name,pauseMouse.x,pauseMouse.y,pauseMouse.leftButton,pauseMouse.midButton,pauseMouse.rightButton,trials.thisRepN,trials.thisTrialN,trials.thisN,trials.thisIndex,trials.ran,startOri,participant,condition,nTrials,date,expName,psychopyVersion,OS,frameRate,pauseMouse.clicked_name,EndButtonMouse.x,EndButtonMouse.y,EndButtonMouse.leftButton,EndButtonMouse.midButton,EndButtonMouse.rightButton,EndButtonMouse.clicked_name
0.356481519,-0.393518602,1,0,0,consent_button1,0.366666704,-0.395370397,1,0,0,consent_button,0.254629664,-0.06759261,1,0,0,0.254629664,-0.06759261,1,0,0,-68.33333333,-53,20,75,-213.3333333,19.66666667,19.66666667,-303.3333333,0.421296335,-0.303703728,1,0,0,2.948,submitButton,-0.243518499,-0.395370397,0,0,0,0,0,0,37,1,53,69175,1,180,2022-02-09_22h41.50.505,orientation adjustment 1,2021.2.3,Win32,59.53089654,,,,,,,
,,,,,,,,,,,,,,,,,,,,,,-53.88888889,49,20,75,46.11111111,2.888888889,2.888888889,-43.88888889,0.205555588,-0.30555558,1,0,0,0.1335,submitButton,-0.330555539,-0.397222249,0,0,0,0,1,1,33,1,49,69175,1,180,2022-02-09_22h41.50.505,orientation adjustment 1,2021.2.3,Win32,59.53089654,,,,,,,
,,,,,,,,,,,,,,,,,,,,,,57.22222222,74,20,75,245.2222222,8.777777778,8.777777778,155.2222222,0.210185218,-0.30462971,1,0,0,0.1039,submitButton,-0.361111095,-0.398148175,0,0,0,0,2,2,58,1,74,69175,1,180,2022-02-09_22h41.50.505,orientation adjustment 1,2021.2.3,Win32,59.53089654,,,,,,,
,,,,,,,,,,,,,,,,,,,,,,23.33333333,-60,20,75,-62.66666667,2.666666667,2.666666667,-152.6666667,0.388888927,-0.300000024,1,0,0,0.3199,submitButton,-0.227777758,-0.406481508,0,0,0,0,3,3,44,1,60,69175,1,180,2022-02-09_22h41.50.505,orientation adjustment 1,2021.2.3,Win32,59.53089654,,,,,,,
,,,,,,,,,,,,,,,,,,,,,,65.55555556,-57,20,75,-55.44444444,1.555555556,1.555555556,-145.4444444,0.370370408,-0.30555558,1,0,0,0.1836,submitButton,-0.284259241,-0.389814841,0,0,0,0,4,4,41,1,57,69175,1,180,2022-02-09_22h41.50.505,orientation adjustment 1,2021.2.3,Win32,59.53089654,,,,,,,
,,,,,,,,,,,,,,,,,,,,,,70.55555556,-69,20,75,-57.44444444,11.55555556,11.55555556,-147.4444444,0.390740779,-0.281481505,1,0,0,0.566,submitButton,-0.281481463,-0.409259286,0,0,0,0,5,5,53,1,69,69175,1,180,2022-02-09_22h41.50.505,orientation adjustment 1,2021.2.3,Win32,59.53089654,,,,,,,
,,,,,,,,,,,,,,,,,,,,,,-55,-27,20,75,-30,3,3,-120,0.16851855,-0.277777801,1,0,0,0.3803,submitButton,-0.327777761,-0.395370397,0,0,0,0,6,6,11,1,27,69175,1,180,2022-02-09_22h41.50.505,orientation adjustment 1,2021.2.3,Win32,59.53089654,,,,,,,
,,,,,,,,,,,,,,,,,,,,,,32.22222222,56,20,75,225.2222222,10.77777778,10.77777778,135.2222222,0.194444477,-0.295370394,1,0,0,3.0829,submitButton,-0.212962943,-0.400925953,0,0,0,0,7,7,40,1,56,69175,1,180,2022-02-09_22h41.50.505,orientation adjustment 1,2021.2.3,Win32,59.53089654,,,,,,,
,,,,,,,,,,,,,,,,,,,,,,-20.55555556,58,20,75,72.44444444,14.44444444,14.44444444,-17.55555556,0.192592625,-0.286111135,1,0,0,0.4496,submitButton,-0.262037018,-0.414814842,0,0,0,0,8,8,42,1,58,69175,1,180,2022-02-09_22h41.50.505,orientation adjustment 1,2021.2.3,Win32,59.53089654,,,,,,,
,,,,,,,,,,,,,,,,,,,,,,-55,-22,20,75,-207,5,5,-297,0.414814854,-0.281481505,1,0,0,1.1508,submitButton,-0.23888887,-0.407407491,0,0,0,0,9,9,6,1,22,69175,1,180,2022-02-09_22h41.50.505,orientation adjustment 1,2021.2.3,Win32,59.53089654,,,,,,,
,,,,,,,,,,,,,,,,,,,,,,53.88888889,54,20,75,222.8888889,11.11111111,11.11111111,132.8888889,0.176851884,-0.281481505,1,0,0,2.0454,submitButton,-0.251851833,-0.385185268,0,0,0,0,10,10,38,1,54,69175,1,180,2022-02-09_22h41.50.505,orientation adjustment 1,2021.2.3,Win32,59.53089654,,,,,,,
,,,,,,,,,,,,,,,,,,,,,,25,-30,20,75,-31,1,1,-121,0.400000038,-0.29166669,1,0,0,0.0995,submitButton,-0.25925924,-0.401851935,0,0,0,0,11,11,14,1,30,69175,1,180,2022-02-09_22h41.50.505,orientation adjustment 1,2021.2.3,Win32,59.53089654,,,,,,,
,,,,,,,,,,,,,,,,,,,,,,26.11111111,-72,20,75,-71.88888889,0.111111111,0.111111111,-161.8888889,0.399074112,-0.296296377,1,0,0,0.3459,submitButton,-0.270370352,-0.413888916,0,0,0,0,12,12,56,1,72,69175,1,180,2022-02-09_22h41.50.505,orientation adjustment 1,2021.2.3,Win32,59.53089654,,,,,,,
,,,,,,,,,,,,,,,,,,,,,,34.44444444,-28,20,75,-33.55555556,5.555555556,5.555555556,-123.5555556,0.434259299,-0.258333356,1,0,0,0.1496,submitButton,-0.244444425,-0.406481508,0,0,0,0,13,13,12,1,28,69175,1,180,2022-02-09_22h41.50.505,orientation adjustment 1,2021.2.3,Win32,59.53089654,,,,,,,
,,,,,,,,,,,,,,,,,,,,,,-68.88888889,40,20,75,27.11111111,12.88888889,12.88888889,-62.88888889,0.230555589,-0.310185266,1,0,0,0.862,submitButton,0.507407449,-0.412963047,1,0,0,0,14,14,24,1,40,69175,1,180,2022-02-09_22h41.50.505,orientation adjustment 1,2021.2.3,Win32,59.53089654,pause_continueButton,,,,,,
,,,,,,,,,,,,,,,,,,,,,,54.44444444,24,20,75,26.44444444,2.444444444,2.444444444,-63.55555556,0.399074112,-0.299074154,1,0,0,0.4467,submitButton,0.183333365,-0.324074155,0,0,0,0,15,15,8,1,24,69175,1,180,2022-02-09_22h41.50.505,orientation adjustment 1,2021.2.3,Win32,59.53089654,,,,,,,
,,,,,,,,,,,,,,,,,,,,,,41.11111111,34,20,75,34.11111111,0.111111111,0.111111111,-55.88888889,0.424074113,-0.300000024,1,0,0,0.3289,submitButton,-0.219444424,-0.390740824,0,0,0,0,16,16,18,1,34,69175,1,180,2022-02-09_22h41.50.505,orientation adjustment 1,2021.2.3,Win32,59.53089654,,,,,,,
,,,,,,,,,,,,,,,,,,,,,,35,-19,20,75,-17,2,2,-107,0.394444483,-0.298148172,1,0,0,0.5797,submitButton,-0.246296277,-0.38333336,0,0,0,0,17,17,3,1,19,69175,1,180,2022-02-09_22h41.50.505,orientation adjustment 1,2021.2.3,Win32,59.53089654,,,,,,,
,,,,,,,,,,,,,,,,,,,,,,-55.55555556,71,20,75,62.44444444,8.555555556,8.555555556,-27.55555556,0.205555588,-0.300000024,1,0,0,0.7961,submitButton,-0.202777757,-0.379629712,0,0,0,0,18,18,55,1,71,69175,1,180,2022-02-09_22h41.50.505,orientation adjustment 1,2021.2.3,Win32,59.53089654,,,,,,,
,,,,,,,,,,,,,,,,,,,,,,35,29,20,75,39,10,10,-51,0.437963003,-0.30092595,1,0,0,0.2161,submitButton,0.137962994,-0.270370393,0,0,0,0,19,19,13,1,29,69175,1,180,2022-02-09_22h41.50.505,orientation adjustment 1,2021.2.3,Win32,59.53089654,,,,,,,
,,,,,,,,,,,,,,,,,,,,,,-56.66666667,-31,20,75,-211.6666667,0.666666667,0.666666667,-301.6666667,0.40648152,-0.293518599,1,0,0,1.8003,submitButton,-0.295370353,-0.420370398,0,0,0,0,20,20,15,1,31,69175,1,180,2022-02-09_22h41.50.505,orientation adjustment 1,2021.2.3,Win32,59.53089654,,,,,,,
,,,,,,,,,,,,,,,,,,,,,,66.11111111,-35,20,75,-24.88888889,10.11111111,10.11111111,-114.8888889,0.40648152,-0.28703706,1,0,0,0.6297,submitButton,-0.266666648,-0.389814841,0,0,0,0,21,21,19,1,35,69175,1,180,2022-02-09_22h41.50.505,orientation adjustment 1,2021.2.3,Win32,59.53089654,,,,,,,
,,,,,,,,,,,,,,,,,,,,,,-61.66666667,51,20,75,36.33333333,14.66666667,14.66666667,-53.66666667,0.199074106,-0.29166669,1,0,0,0.05,submitButton,-0.294444427,-0.404629713,0,0,0,0,22,22,35,1,51,69175,1,180,2022-02-09_22h41.50.505,orientation adjustment 1,2021.2.3,Win32,59.53089654,,,,,,,
,,,,,,,,,,,,,,,,,,,,,,-47.77777778,-39,20,75,-35.77777778,3.222222222,3.222222222,-125.7777778,0.227777811,-0.274074154,1,0,0,0.8999,submitButton,-0.262962944,-0.387037063,0,0,0,0,23,23,23,1,39,69175,1,180,2022-02-09_22h41.50.505,orientation adjustment 1,2021.2.3,Win32,59.53089654,,,,,,,
,,,,,,,,,,,,,,,,,,,,,,-70.55555556,-26,20,75,-212.5555556,6.555555556,6.555555556,-302.5555556,0.405555594,-0.278703727,1,0,0,0.6804,submitButton,-0.298148131,-0.389814841,0,0,0,0,24,24,10,1,26,69175,1,180,2022-02-09_22h41.50.505,orientation adjustment 1,2021.2.3,Win32,59.53089654,,,,,,,
,,,,,,,,,,,,,,,,,,,,,,24.44444444,-50,20,75,-51.55555556,1.555555556,1.555555556,-141.5555556,0.404629668,-0.293518599,1,0,0,0.2663,submitButton,-0.337037021,-0.405555583,0,0,0,0,25,25,34,1,50,69175,1,180,2022-02-09_22h41.50.505,orientation adjustment 1,2021.2.3,Win32,59.53089654,,,,,,,
,,,,,,,,,,,,,,,,,,,,,,-23.88888889,-21,20,75,-31.88888889,10.88888889,10.88888889,-121.8888889,-0.274074056,-0.410185269,1,0,0,1.2967,submitButton,0.242592626,-0.268518598,0,0,0,0,26,26,5,1,21,69175,1,180,2022-02-09_22h41.50.505,orientation adjustment 1,2021.2.3,Win32,59.53089654,,,,,,,
,,,,,,,,,,,,,,,,,,,,,,34.44444444,-32,20,75,-23.55555556,8.444444444,8.444444444,-113.5555556,0.444444484,-0.263888912,1,0,0,0.3638,submitButton,-0.236111092,-0.381481508,0,0,0,0,27,27,16,1,32,69175,1,180,2022-02-09_22h41.50.505,orientation adjustment 1,2021.2.3,Win32,59.53089654,,,,,,,
,,,,,,,,,,,,,,,,,,,,,,37.22222222,20,20,75,34.22222222,14.22222222,14.22222222,-55.77777778,0.403703742,-0.276851932,1,0,0,0.0995,submitButton,-0.309259242,-0.393518602,0,0,0,0,28,28,4,1,20,69175,1,180,2022-02-09_22h41.50.505,orientation adjustment 1,2021.2.3,Win32,59.53089654,,,,,,,
,,,,,,,,,,,,,,,,,,,,,,42.22222222,-45,20,75,-28.77777778,16.22222222,16.22222222,-118.7777778,0.405555594,-0.279629709,1,0,0,0.2797,submitButton,0.438888928,-0.389814841,1,0,0,0,29,29,29,1,45,69175,1,180,2022-02-09_22h41.50.505,orientation adjustment 1,2021.2.3,Win32,59.53089654,pause_continueButton,,,,,,
,,,,,,,,,,,,,,,,,,,,,,-72.77777778,-44,20,75,-226.7777778,2.777777778,2.777777778,-316.7777778,0.395370409,-0.300000024,1,0,0,0.7625,submitButton,0.264814849,-0.36944447,0,0,0,0,30,30,28,1,44,69175,1,180,2022-02-09_22h41.50.505,orientation adjustment 1,2021.2.3,Win32,59.53089654,,,,,,,
,,,,,,,,,,,,,,,,,,,,,,51.11111111,-46,20,75,-37.88888889,8.111111111,8.111111111,-127.8888889,-0.373148133,-0.404629713,1,0,0,1.3801,submitButton,0.149074105,-0.249074153,0,0,0,0,31,31,30,1,46,69175,1,180,2022-02-09_22h41.50.505,orientation adjustment 1,2021.2.3,Win32,59.53089654,,,,,,,
,,,,,,,,,,,,,,,,,,,,,,-71.11111111,37,20,75,26.88888889,10.11111111,10.11111111,-63.11111111,0.201851884,-0.295370394,1,0,0,0.9462,submitButton,0.191666699,-0.280555579,0,0,0,0,32,32,21,1,37,69175,1,180,2022-02-09_22h41.50.505,orientation adjustment 1,2021.2.3,Win32,59.53089654,,,,,,,
,,,,,,,,,,,,,,,,,,,,,,-22.77777778,38,20,75,42.22222222,4.222222222,4.222222222,-47.77777778,0.193518551,-0.26666669,1,0,0,0.2199,submitButton,-0.236111092,-0.409259286,0,0,0,0,33,33,22,1,38,69175,1,180,2022-02-09_22h41.50.505,orientation adjustment 1,2021.2.3,Win32,59.53089654,,,,,,,
,,,,,,,,,,,,,,,,,,,,,,33.33333333,25,20,75,35.33333333,10.33333333,10.33333333,-54.66666667,0.356481519,-0.307407488,1,0,0,0.3133,submitButton,-0.321296279,-0.414814842,0,0,0,0,34,34,9,1,25,69175,1,180,2022-02-09_22h41.50.505,orientation adjustment 1,2021.2.3,Win32,59.53089654,,,,,,,
,,,,,,,,,,,,,,,,,,,,,,62.22222222,66,20,75,68.22222222,2.222222222,2.222222222,-21.77777778,0.37685189,-0.287963043,1,0,0,0.4331,submitButton,-0.301851834,-0.392592619,0,0,0,0,35,35,50,1,66,69175,1,180,2022-02-09_22h41.50.505,orientation adjustment 1,2021.2.3,Win32,59.53089654,,,,,,,
,,,,,,,,,,,,,,,,,,,,,,-47.22222222,-16,20,75,-27.22222222,11.22222222,11.22222222,-117.2222222,0.21203707,-0.268518598,1,0,0,0.3125,submitButton,-0.265740722,-0.413888916,0,0,0,0,36,36,0,1,16,69175,1,180,2022-02-09_22h41.50.505,orientation adjustment 1,2021.2.3,Win32,59.53089654,,,,,,,
,,,,,,,,,,,,,,,,,,,,,,21.66666667,-67,20,75,-58.33333333,8.666666667,8.666666667,-148.3333333,0.357407445,-0.28703706,1,0,0,0.3003,submitButton,-0.287037019,-0.398148175,0,0,0,0,37,37,51,1,67,69175,1,180,2022-02-09_22h41.50.505,orientation adjustment 1,2021.2.3,Win32,59.53089654,,,,,,,
,,,,,,,,,,,,,,,,,,,,,,65,23,20,75,210,7,7,120,0.223148181,-0.286111135,1,0,0,1.2036,submitButton,-0.206481461,-0.38333336,0,0,0,0,38,38,7,1,23,69175,1,180,2022-02-09_22h41.50.505,orientation adjustment 1,2021.2.3,Win32,59.53089654,,,,,,,
,,,,,,,,,,,,,,,,,,,,,,41.66666667,-62,20,75,-47.33333333,14.66666667,14.66666667,-137.3333333,0.369444482,-0.283333357,1,0,0,0.2208,submitButton,-0.266666648,-0.381481508,0,0,0,0,39,39,46,1,62,69175,1,180,2022-02-09_22h41.50.505,orientation adjustment 1,2021.2.3,Win32,59.53089654,,,,,,,
,,,,,,,,,,,,,,,,,,,,,,-32.22222222,-18,20,75,-24.22222222,6.222222222,6.222222222,-114.2222222,0.155555587,-0.289814838,1,0,0,0.4164,submitButton,-0.258333315,-0.398148175,0,0,0,0,40,40,2,1,18,69175,1,180,2022-02-09_22h41.50.505,orientation adjustment 1,2021.2.3,Win32,59.53089654,,,,,,,
,,,,,,,,,,,,,,,,,,,,,,-53.33333333,63,20,75,49.66666667,13.33333333,13.33333333,-40.33333333,0.203703736,-0.289814838,1,0,0,0.7295,submitButton,-0.26388887,-0.388888915,0,0,0,0,41,41,47,1,63,69175,1,180,2022-02-09_22h41.50.505,orientation adjustment 1,2021.2.3,Win32,59.53089654,,,,,,,
,,,,,,,,,,,,,,,,,,,,,,-55,33,20,75,45,12,12,-45,0.188888921,-0.280555579,1,0,0,0.0371,submitButton,-0.212962943,-0.394444471,0,0,0,0,42,42,17,1,33,69175,1,180,2022-02-09_22h41.50.505,orientation adjustment 1,2021.2.3,Win32,59.53089654,,,,,,,
,,,,,,,,,,,,,,,,,,,,,,-42.77777778,55,20,75,57.22222222,2.222222222,2.222222222,-32.77777778,0.243518552,-0.289814838,1,0,0,0.6154,submitButton,-0.245370351,-0.410185269,0,0,0,0,43,43,39,1,55,69175,1,180,2022-02-09_22h41.50.505,orientation adjustment 1,2021.2.3,Win32,59.53089654,,,,,,,
,,,,,,,,,,,,,,,,,,,,,,40.55555556,-17,20,75,-26.44444444,9.444444444,9.444444444,-116.4444444,0.387037075,-0.258333356,1,0,0,0.7164,submitButton,0.210185218,-0.397222249,1,0,0,0,44,44,1,1,17,69175,1,180,2022-02-09_22h41.50.505,orientation adjustment 1,2021.2.3,Win32,59.53089654,pause_continueButton,,,,,,
,,,,,,,,,,,,,,,,,,,,,,-46.66666667,-59,20,75,-231.6666667,7.333333333,7.333333333,-321.6666667,0.360185222,-0.307407488,1,0,0,1.6625,submitButton,0.297222258,-0.264814838,0,0,0,0,45,45,43,1,59,69175,1,180,2022-02-09_22h41.50.505,orientation adjustment 1,2021.2.3,Win32,59.53089654,,,,,,,
,,,,,,,,,,,,,,,,,,,,,,50,65,20,75,68,3,3,-22,0.410185224,-0.288888912,1,0,0,0.7972,submitButton,-0.275925908,-0.401851935,0,0,0,0,46,46,49,1,65,69175,1,180,2022-02-09_22h41.50.505,orientation adjustment 1,2021.2.3,Win32,59.53089654,,,,,,,
,,,,,,,,,,,,,,,,,,,,,,45.55555556,43,20,75,226.5555556,3.555555556,3.555555556,136.5555556,0.191666699,-0.282407487,1,0,0,0.0496,submitButton,-0.221296276,-0.390740824,0,0,0,0,47,47,27,1,43,69175,1,180,2022-02-09_22h41.50.505,orientation adjustment 1,2021.2.3,Win32,59.53089654,,,,,,,
,,,,,,,,,,,,,,,,,,,,,,-45,47,20,75,47,0,0,-43,0.213888922,-0.302777802,1,0,0,0.7128,submitButton,-0.187037016,-0.402777805,0,0,0,0,48,48,31,1,47,69175,1,180,2022-02-09_22h41.50.505,orientation adjustment 1,2021.2.3,Win32,59.53089654,,,,,,,
,,,,,,,,,,,,,,,,,,,,,,31.66666667,-42,20,75,-26.33333333,15.66666667,15.66666667,-116.3333333,0.383333371,-0.298148172,1,0,0,0.0167,submitButton,-0.179629608,-0.391666693,0,0,0,0,49,49,26,1,42,69175,1,180,2022-02-09_22h41.50.505,orientation adjustment 1,2021.2.3,Win32,59.53089654,,,,,,,
,,,,,,,,,,,,,,,,,,,,,,32.77777778,-41,20,75,-44.22222222,3.222222222,3.222222222,-134.2222222,0.402777816,-0.29166669,1,0,0,0.45,submitButton,-0.30277776,-0.400000027,0,0,0,0,50,50,25,1,41,69175,1,180,2022-02-09_22h41.50.505,orientation adjustment 1,2021.2.3,Win32,59.53089654,,,,,,,
,,,,,,,,,,,,,,,,,,,,,,25.55555556,-61,20,75,-58.44444444,2.555555556,2.555555556,-148.4444444,0.352777815,-0.308333357,1,0,0,0.0984,submitButton,-0.231481462,-0.394444471,0,0,0,0,51,51,45,1,61,69175,1,180,2022-02-09_22h41.50.505,orientation adjustment 1,2021.2.3,Win32,59.53089654,,,,,,,
,,,,,,,,,,,,,,,,,,,,,,43.33333333,-70,20,75,-70.66666667,0.666666667,0.666666667,-160.6666667,0.412963002,-0.311111135,1,0,0,0.0993,submitButton,-0.223148128,-0.42222225,0,0,0,0,52,52,54,1,70,69175,1,180,2022-02-09_22h41.50.505,orientation adjustment 1,2021.2.3,Win32,59.53089654,,,,,,,
,,,,,,,,,,,,,,,,,,,,,,-63.33333333,75,20,75,66.66666667,8.333333333,8.333333333,-23.33333333,0.211111144,-0.294444468,1,0,0,0.8838,submitButton,-0.22037035,-0.387963046,0,0,0,0,53,53,59,1,75,69175,1,180,2022-02-09_22h41.50.505,orientation adjustment 1,2021.2.3,Win32,59.53089654,,,,,,,
,,,,,,,,,,,,,,,,,,,,,,-26.66666667,48,20,75,56.33333333,8.333333333,8.333333333,-33.66666667,0.193518551,-0.297222246,1,0,0,0.413,submitButton,-0.164814737,-0.410185269,0,0,0,0,54,54,32,1,48,69175,1,180,2022-02-09_22h41.50.505,orientation adjustment 1,2021.2.3,Win32,59.53089654,,,,,,,
,,,,,,,,,,,,,,,,,,,,,,-27.77777778,64,20,75,58.22222222,5.777777778,5.777777778,-31.77777778,-0.180555534,-0.390740824,1,0,0,1.0462,submitButton,-0.180555534,-0.390740824,0,0,0,0,55,55,48,1,64,69175,1,180,2022-02-09_22h41.50.505,orientation adjustment 1,2021.2.3,Win32,59.53089654,,,,,,,
,,,,,,,,,,,,,,,,,,,,,,-48.33333333,-68,20,75,-68.33333333,0.333333333,0.333333333,-158.3333333,0.20740744,-0.309259283,1,0,0,0.2334,submitButton,-0.201851831,-0.405555583,0,0,0,0,56,56,52,1,68,69175,1,180,2022-02-09_22h41.50.505,orientation adjustment 1,2021.2.3,Win32,59.53089654,,,,,,,
,,,,,,,,,,,,,,,,,,,,,,-40,-36,20,75,-31,5,5,-121,0.178703736,-0.29166669,1,0,0,0.3205,submitButton,0.01759262,-0.370370396,0,0,0,0,57,57,20,1,36,69175,1,180,2022-02-09_22h41.50.505,orientation adjustment 1,2021.2.3,Win32,59.53089654,,,,,,,
,,,,,,,,,,,,,,,,,,,,,,-33.88888889,52,20,75,52.11111111,0.111111111,0.111111111,-37.88888889,0.180555587,-0.283333357,1,0,0,0.4667,submitButton,-0.183333312,-0.399074157,0,0,0,0,58,58,36,1,52,69175,1,180,2022-02-09_22h41.50.505,orientation adjustment 1,2021.2.3,Win32,59.53089654,,,,,,,
,,,,,,,,,,,,,,,,,,,,,,-60,73,20,75,60,13,13,-30,0.187037069,-0.299074154,1,0,0,0.2628,submitButton,0.436111151,-0.412037064,1,0,0,0,59,59,57,1,73,69175,1,180,2022-02-09_22h41.50.505,orientation adjustment 1,2021.2.3,Win32,59.53089654,pause_continueButton,,,,,,
,,,,,,,,,,,,,,,,,,,,,,71.66666667,-46,20,75,-39.33333333,6.666666667,6.666666667,-129.3333333,0.400925964,-0.325925951,1,0,0,0.5799,submitButton,-0.257407389,-0.38333336,0,0,0,1,0,60,30,1,46,69175,1,180,2022-02-09_22h41.50.505,orientation adjustment 1,2021.2.3,Win32,59.53089654,,,,,,,
,,,,,,,,,,,,,,,,,,,,,,-69.44444444,33,20,75,36.55555556,3.555555556,3.555555556,-53.44444444,0.178703736,-0.30092595,1,0,0,1.1466,submitButton,-0.212962943,-0.403703731,0,0,0,1,1,61,17,1,33,69175,1,180,2022-02-09_22h41.50.505,orientation adjustment 1,2021.2.3,Win32,59.53089654,,,,,,,
,,,,,,,,,,,,,,,,,,,,,,50,-29,20,75,-31,2,2,-121,0.386111149,-0.309259283,1,0,0,0.8833,submitButton,-0.274999982,-0.393518602,0,0,0,1,2,62,13,1,29,69175,1,180,2022-02-09_22h41.50.505,orientation adjustment 1,2021.2.3,Win32,59.53089654,,,,,,,
,,,,,,,,,,,,,,,,,,,,,,-69.44444444,-45,20,75,-227.4444444,2.444444444,2.444444444,-317.4444444,0.37685189,-0.294444468,1,0,0,1.9966,submitButton,-0.299999982,-0.409259286,0,0,0,1,3,63,29,1,45,69175,1,180,2022-02-09_22h41.50.505,orientation adjustment 1,2021.2.3,Win32,59.53089654,,,,,,,
,,,,,,,,,,,,,,,,,,,,,,-23.88888889,36,20,75,32.11111111,3.888888889,3.888888889,-57.88888889,0.395370409,-0.274074154,1,0,0,1.4461,submitButton,-0.230555536,-0.392592619,0,0,0,1,4,64,20,1,36,69175,1,180,2022-02-09_22h41.50.505,orientation adjustment 1,2021.2.3,Win32,59.53089654,,,,,,,
,,,,,,,,,,,,,,,,,,,,,,-53.33333333,34,20,75,34.66666667,0.666666667,0.666666667,-55.33333333,0.198148181,-0.309259283,1,0,0,0.5335,submitButton,-0.218518499,-0.393518602,0,0,0,1,5,65,18,1,34,69175,1,180,2022-02-09_22h41.50.505,orientation adjustment 1,2021.2.3,Win32,59.53089654,,,,,,,
,,,,,,,,,,,,,,,,,,,,,,-67.77777778,75,20,75,47.22222222,27.77777778,27.77777778,-42.77777778,-0.359259243,-0.42222225,1,0,0,1.2295,submitButton,-0.359259243,-0.42222225,0,0,0,1,6,66,59,1,75,69175,1,180,2022-02-09_22h41.50.505,orientation adjustment 1,2021.2.3,Win32,59.53089654,,,,,,,
,,,,,,,,,,,,,,,,,,,,,,42.22222222,-42,20,75,-24.77777778,17.22222222,17.22222222,-114.7777778,-0.274074056,-0.384259286,1,0,0,2.0526,submitButton,-0.274074056,-0.384259286,0,0,0,1,7,67,26,1,42,69175,1,180,2022-02-09_22h41.50.505,orientation adjustment 1,2021.2.3,Win32,59.53089654,,,,,,,
,,,,,,,,,,,,,,,,,,,,,,28.88888889,-53,20,75,-57.11111111,4.111111111,4.111111111,-147.1111111,-0.254629611,-0.401851935,1,0,0,1.4003,submitButton,-0.254629611,-0.401851935,0,0,0,1,8,68,37,1,53,69175,1,180,2022-02-09_22h41.50.505,orientation adjustment 1,2021.2.3,Win32,59.53089654,,,,,,,
,,,,,,,,,,,,,,,,,,,,,,-68.88888889,71,20,75,45.11111111,25.88888889,25.88888889,-44.88888889,0.206481514,-0.314814839,1,0,0,0.45,submitButton,-0.27777776,-0.398148175,0,0,0,1,9,69,55,1,71,69175,1,180,2022-02-09_22h41.50.505,orientation adjustment 1,2021.2.3,Win32,59.53089654,,,,,,,
,,,,,,,,,,,,,,,,,,,,,,38.33333333,-64,20,75,-56.66666667,7.333333333,7.333333333,-146.6666667,0.368518556,-0.314814839,1,0,0,0.0829,submitButton,-0.291666649,-0.397222249,0,0,0,1,10,70,48,1,64,69175,1,180,2022-02-09_22h41.50.505,orientation adjustment 1,2021.2.3,Win32,59.53089654,,,,,,,
,,,,,,,,,,,,,,,,,,,,,,-72.22222222,-23,20,75,-30.22222222,7.222222222,7.222222222,-120.2222222,0.174074106,-0.299074154,1,0,0,0.9165,submitButton,-0.26388887,-0.394444471,0,0,0,1,11,71,7,1,23,69175,1,180,2022-02-09_22h41.50.505,orientation adjustment 1,2021.2.3,Win32,59.53089654,,,,,,,
,,,,,,,,,,,,,,,,,,,,,,51.11111111,61,20,75,54.11111111,6.888888889,6.888888889,-35.88888889,0.393518557,-0.288888912,1,0,0,0.5831,submitButton,-0.324074057,-0.415740825,0,0,0,1,12,72,45,1,61,69175,1,180,2022-02-09_22h41.50.505,orientation adjustment 1,2021.2.3,Win32,59.53089654,,,,,,,
,,,,,,,,,,,,,,,,,,,,,,50,67,20,75,233,14,14,143,0.21203707,-0.286111135,1,0,0,0.9831,submitButton,-0.249074055,-0.405555583,0,0,0,1,13,73,51,1,67,69175,1,180,2022-02-09_22h41.50.505,orientation adjustment 1,2021.2.3,Win32,59.53089654,,,,,,,
,,,,,,,,,,,,,,,,,,,,,,-47.77777778,21,20,75,24.22222222,3.222222222,3.222222222,-65.77777778,0.243518552,-0.286111135,1,0,0,1.0803,submitButton,0.28055559,-0.400925953,1,0,0,1,14,74,5,1,21,69175,1,180,2022-02-09_22h41.50.505,orientation adjustment 1,2021.2.3,Win32,59.53089654,pause_continueButton,,,,,,
,,,,,,,,,,,,,,,,,,,,,,-63.33333333,55,20,75,45.66666667,9.333333333,9.333333333,-44.33333333,-0.304629612,-0.404629713,1,0,0,1.4798,submitButton,0.223148181,-0.292592616,0,0,0,1,15,75,39,1,55,69175,1,180,2022-02-09_22h41.50.505,orientation adjustment 1,2021.2.3,Win32,59.53089654,,,,,,,
,,,,,,,,,,,,,,,,,,,,,,36.66666667,-70,20,75,-67.33333333,2.666666667,2.666666667,-157.3333333,-0.264814796,-0.38333336,1,0,0,1.2295,submitButton,-0.264814796,-0.38333336,0,0,0,1,16,76,54,1,70,69175,1,180,2022-02-09_22h41.50.505,orientation adjustment 1,2021.2.3,Win32,59.53089654,,,,,,,
,,,,,,,,,,,,,,,,,,,,,,38.33333333,50,20,75,217.3333333,12.66666667,12.66666667,127.3333333,-0.217592573,-0.400000027,1,0,0,2.4953,submitButton,-0.217592573,-0.400000027,0,0,0,1,17,77,34,1,50,69175,1,180,2022-02-09_22h41.50.505,orientation adjustment 1,2021.2.3,Win32,59.53089654,,,,,,,
,,,,,,,,,,,,,,,,,,,,,,31.11111111,40,20,75,43.11111111,3.111111111,3.111111111,-46.88888889,0.37222226,-0.302777802,1,0,0,0.3124,submitButton,-0.209259239,-0.376851934,0,0,0,1,18,78,24,1,40,69175,1,180,2022-02-09_22h41.50.505,orientation adjustment 1,2021.2.3,Win32,59.53089654,,,,,,,
,,,,,,,,,,,,,,,,,,,,,,-28.88888889,16,20,75,16.11111111,0.111111111,0.111111111,-73.88888889,0.20277781,-0.302777802,1,0,0,0.0331,submitButton,-0.287962945,-0.400000027,0,0,0,1,19,79,0,1,16,69175,1,180,2022-02-09_22h41.50.505,orientation adjustment 1,2021.2.3,Win32,59.53089654,,,,,,,
,,,,,,,,,,,,,,,,,,,,,,-58.33333333,-43,20,75,-202.3333333,20.66666667,20.66666667,-292.3333333,-0.318518502,-0.398148175,1,0,0,2.3305,submitButton,-0.318518502,-0.398148175,0,0,0,1,20,80,27,1,43,69175,1,180,2022-02-09_22h41.50.505,orientation adjustment 1,2021.2.3,Win32,59.53089654,,,,,,,
,,,,,,,,,,,,,,,,,,,,,,-46.11111111,35,20,75,40.88888889,5.888888889,5.888888889,-49.11111111,0.20740744,-0.290740821,1,0,0,0.7132,submitButton,-0.240740721,-0.394444471,0,0,0,1,21,81,19,1,35,69175,1,180,2022-02-09_22h41.50.505,orientation adjustment 1,2021.2.3,Win32,59.53089654,,,,,,,
,,,,,,,,,,,,,,,,,,,,,,-32.77777778,28,20,75,20.22222222,7.777777778,7.777777778,-69.77777778,-0.332407391,-0.400000027,1,0,0,1.2954,submitButton,-0.332407391,-0.400000027,0,0,0,1,22,82,12,1,28,69175,1,180,2022-02-09_22h41.50.505,orientation adjustment 1,2021.2.3,Win32,59.53089654,,,,,,,
,,,,,,,,,,,,,,,,,,,,,,-60,-49,20,75,-52,3,3,-142,0.170370402,-0.287963043,1,0,0,0.3464,submitButton,-0.239814795,-0.381481508,0,0,0,1,23,83,33,1,49,69175,1,180,2022-02-09_22h41.50.505,orientation adjustment 1,2021.2.3,Win32,59.53089654,,,,,,,
,,,,,,,,,,,,,,,,,,,,,,-20,54,20,75,21,33,33,-69,0.412037076,-0.297222246,1,0,0,0.2466,submitButton,-0.235185166,-0.403703731,0,0,0,1,24,84,38,1,54,69175,1,180,2022-02-09_22h41.50.505,orientation adjustment 1,2021.2.3,Win32,59.53089654,,,,,,,
,,,,,,,,,,,,,,,,,,,,,,-71.11111111,-20,20,75,-218.1111111,18.11111111,18.11111111,-308.1111111,0.398148187,-0.281481505,1,0,0,2.0795,submitButton,-0.374074059,-0.401851935,0,0,0,1,25,85,4,1,20,69175,1,180,2022-02-09_22h41.50.505,orientation adjustment 1,2021.2.3,Win32,59.53089654,,,,,,,
,,,,,,,,,,,,,,,,,,,,,,46.11111111,44,20,75,213.1111111,10.88888889,10.88888889,123.1111111,0.199074106,-0.296296377,1,0,0,0.6663,submitButton,-0.265740722,-0.392592619,0,0,0,1,26,86,28,1,44,69175,1,180,2022-02-09_22h41.50.505,orientation adjustment 1,2021.2.3,Win32,59.53089654,,,,,,,
,,,,,,,,,,,,,,,,,,,,,,-55,-41,20,75,-39,2,2,-129,0.204629662,-0.285185265,1,0,0,0.4831,submitButton,0.16388892,-0.322222247,0,0,0,1,27,87,25,1,41,69175,1,180,2022-02-09_22h41.50.505,orientation adjustment 1,2021.2.3,Win32,59.53089654,,,,,,,
,,,,,,,,,,,,,,,,,,,,,,-53.88888889,74,20,75,65.11111111,8.888888889,8.888888889,-24.88888889,0.20740744,-0.29166669,1,0,0,0.5824,submitButton,-0.245370351,-0.39629638,0,0,0,1,28,88,58,1,74,69175,1,180,2022-02-09_22h41.50.505,orientation adjustment 1,2021.2.3,Win32,59.53089654,,,,,,,
,,,,,,,,,,,,,,,,,,,,,,-38.33333333,-32,20,75,-37.33333333,5.333333333,5.333333333,-127.3333333,0.200925958,-0.290740821,1,0,0,0.3665,submitButton,0.32407411,-0.374074157,1,0,0,1,29,89,16,1,32,69175,1,180,2022-02-09_22h41.50.505,orientation adjustment 1,2021.2.3,Win32,59.53089654,pause_continueButton,,,,,,
,,,,,,,,,,,,,,,,,,,,,,34.44444444,-24,20,75,-21.55555556,2.444444444,2.444444444,-111.5555556,0.381481519,-0.30092595,1,0,0,0.3987,submitButton,0.12962966,-0.290740821,0,0,0,1,30,90,8,1,24,69175,1,180,2022-02-09_22h41.50.505,orientation adjustment 1,2021.2.3,Win32,59.53089654,,,,,,,
,,,,,,,,,,,,,,,,,,,,,,-62.77777778,-59,20,75,-61.77777778,2.777777778,2.777777778,-151.7777778,0.178703736,-0.296296377,1,0,0,0.0999,submitButton,-0.374074059,-0.397222249,0,0,0,1,31,91,43,1,59,69175,1,180,2022-02-09_22h41.50.505,orientation adjustment 1,2021.2.3,Win32,59.53089654,,,,,,,
,,,,,,,,,,,,,,,,,,,,,,-58.88888889,-62,20,75,-60.88888889,1.111111111,1.111111111,-150.8888889,-0.296296279,-0.400925953,1,0,0,1.9176,submitButton,-0.296296279,-0.400925953,0,0,0,1,32,92,46,1,62,69175,1,180,2022-02-09_22h41.50.505,orientation adjustment 1,2021.2.3,Win32,59.53089654,,,,,,,
,,,,,,,,,,,,,,,,,,,,,,-33.33333333,-39,20,75,-34.33333333,4.666666667,4.666666667,-124.3333333,0.224074107,-0.298148172,1,0,0,0.7535,submitButton,-0.222222202,-0.393518602,0,0,0,1,33,93,23,1,39,69175,1,180,2022-02-09_22h41.50.505,orientation adjustment 1,2021.2.3,Win32,59.53089654,,,,,,,
,,,,,,,,,,,,,,,,,,,,,,-33.33333333,26,20,75,27.66666667,1.666666667,1.666666667,-62.33333333,0.24629633,-0.282407487,1,0,0,0.0829,submitButton,0.151851883,-0.241666689,0,0,0,1,34,94,10,1,26,69175,1,180,2022-02-09_22h41.50.505,orientation adjustment 1,2021.2.3,Win32,59.53089654,,,,,,,
,,,,,,,,,,,,,,,,,,,,,,60.55555556,25,20,75,35.55555556,10.55555556,10.55555556,-54.44444444,0.400925964,-0.306481506,1,0,0,0.7319,submitButton,-0.289814797,-0.423148176,0,0,0,1,35,95,9,1,25,69175,1,180,2022-02-09_22h41.50.505,orientation adjustment 1,2021.2.3,Win32,59.53089654,,,,,,,
,,,,,,,,,,,,,,,,,,,,,,28.88888889,-68,20,75,-61.11111111,6.888888889,6.888888889,-151.1111111,0.382407445,-0.300000024,1,0,0,0.0501,submitButton,-0.265740722,-0.425925954,0,0,0,1,36,96,52,1,68,69175,1,180,2022-02-09_22h41.50.505,orientation adjustment 1,2021.2.3,Win32,59.53089654,,,,,,,
,,,,,,,,,,,,,,,,,,,,,,42.77777778,56,20,75,63.77777778,7.777777778,7.777777778,-26.22222222,0.417592632,-0.264814838,1,0,0,0.2627,submitButton,-0.331481465,-0.390740824,0,0,0,1,37,97,40,1,56,69175,1,180,2022-02-09_22h41.50.505,orientation adjustment 1,2021.2.3,Win32,59.53089654,,,,,,,
,,,,,,,,,,,,,,,,,,,,,,58.33333333,-65,20,75,-58.66666667,6.333333333,6.333333333,-148.6666667,0.444444484,-0.288888912,1,0,0,0.8459,submitButton,-0.372222207,-0.394444471,0,0,0,1,38,98,49,1,65,69175,1,180,2022-02-09_22h41.50.505,orientation adjustment 1,2021.2.3,Win32,59.53089654,,,,,,,
,,,,,,,,,,,,,,,,,,,,,,75,-19,20,75,-28,9,9,-118,0.412037076,-0.278703727,1,0,0,0.2304,submitButton,-0.324074057,-0.424074158,0,0,0,1,39,99,3,1,19,69175,1,180,2022-02-09_22h41.50.505,orientation adjustment 1,2021.2.3,Win32,59.53089654,,,,,,,
,,,,,,,,,,,,,,,,,,,,,,-60,-47,20,75,-207,20,20,-297,0.404629668,-0.277777801,1,0,0,0.1,submitButton,0.37685189,-0.251851931,0,0,0,1,40,100,31,1,47,69175,1,180,2022-02-09_22h41.50.505,orientation adjustment 1,2021.2.3,Win32,59.53089654,,,,,,,
,,,,,,,,,,,,,,,,,,,,,,26.66666667,73,20,75,61.66666667,11.33333333,11.33333333,-28.33333333,0.417592632,-0.28703706,1,0,0,0.4001,submitButton,-0.333333317,-0.414814842,0,0,0,1,41,101,57,1,73,69175,1,180,2022-02-09_22h41.50.505,orientation adjustment 1,2021.2.3,Win32,59.53089654,,,,,,,
,,,,,,,,,,,,,,,,,,,,,,54.44444444,-58,20,75,-40.55555556,17.44444444,17.44444444,-130.5555556,-0.347222206,-0.397222249,1,0,0,1.3791,submitButton,-0.347222206,-0.397222249,0,0,0,1,42,102,42,1,58,69175,1,180,2022-02-09_22h41.50.505,orientation adjustment 1,2021.2.3,Win32,59.53089654,,,,,,,
,,,,,,,,,,,,,,,,,,,,,,28.33333333,48,20,75,53.33333333,5.333333333,5.333333333,-36.66666667,0.425000039,-0.30462971,1,0,0,0.217,submitButton,-0.304629612,-0.401851935,0,0,0,1,43,103,32,1,48,69175,1,180,2022-02-09_22h41.50.505,orientation adjustment 1,2021.2.3,Win32,59.53089654,,,,,,,
,,,,,,,,,,,,,,,,,,,,,,-20.55555556,63,20,75,64.44444444,1.444444444,1.444444444,-25.55555556,-0.226851832,-0.400000027,1,0,0,1.2129,submitButton,0.357407445,-0.393518602,1,0,0,1,44,104,47,1,63,69175,1,180,2022-02-09_22h41.50.505,orientation adjustment 1,2021.2.3,Win32,59.53089654,pause_continueButton,,,,,,
,,,,,,,,,,,,,,,,,,,,,,56.11111111,27,20,75,25.11111111,1.888888889,1.888888889,-64.88888889,0.405555594,-0.285185265,1,0,0,0.0661,submitButton,-0.126851829,-0.362037063,0,0,0,1,45,105,11,1,27,69175,1,180,2022-02-09_22h41.50.505,orientation adjustment 1,2021.2.3,Win32,59.53089654,,,,,,,
,,,,,,,,,,,,,,,,,,,,,,-21.11111111,57,20,75,60.88888889,3.888888889,3.888888889,-29.11111111,0.182407439,-0.299074154,1,0,0,0.2953,submitButton,-0.267592574,-0.391666693,0,0,0,1,46,106,41,1,57,69175,1,180,2022-02-09_22h41.50.505,orientation adjustment 1,2021.2.3,Win32,59.53089654,,,,,,,
,,,,,,,,,,,,,,,,,,,,,,-33.88888889,38,20,75,43.11111111,5.111111111,5.111111111,-46.88888889,0.20277781,-0.312963044,1,0,0,0.6128,submitButton,0.132407438,-0.2527778,0,0,0,1,47,107,22,1,38,69175,1,180,2022-02-09_22h41.50.505,orientation adjustment 1,2021.2.3,Win32,59.53089654,,,,,,,
,,,,,,,,,,,,,,,,,,,,,,-42.22222222,72,20,75,72.77777778,0.777777778,0.777777778,-17.22222222,0.192592625,-0.284259283,1,0,0,0.5132,submitButton,0.08611114,-0.281481505,0,0,0,1,48,108,56,1,72,69175,1,180,2022-02-09_22h41.50.505,orientation adjustment 1,2021.2.3,Win32,59.53089654,,,,,,,
,,,,,,,,,,,,,,,,,,,,,,-75,37,20,75,31,6,6,-59,0.217592626,-0.295370394,1,0,0,0.0373,submitButton,-0.30740739,-0.372222248,0,0,0,1,49,109,21,1,37,69175,1,180,2022-02-09_22h41.50.505,orientation adjustment 1,2021.2.3,Win32,59.53089654,,,,,,,
,,,,,,,,,,,,,,,,,,,,,,-51.66666667,69,20,75,52.33333333,16.66666667,16.66666667,-37.66666667,0.187962995,-0.293518599,1,0,0,0.4464,submitButton,-0.301851834,-0.407407491,0,0,0,1,50,110,53,1,69,69175,1,180,2022-02-09_22h41.50.505,orientation adjustment 1,2021.2.3,Win32,59.53089654,,,,,,,
,,,,,,,,,,,,,,,,,,,,,,29.44444444,18,20,75,25.44444444,7.444444444,7.444444444,-64.55555556,-0.317592576,-0.377777804,1,0,0,1.1993,submitButton,-0.317592576,-0.377777804,0,0,0,1,51,111,2,1,18,69175,1,180,2022-02-09_22h41.50.505,orientation adjustment 1,2021.2.3,Win32,59.53089654,,,,,,,
,,,,,,,,,,,,,,,,,,,,,,60.55555556,52,20,75,199.5555556,32.44444444,32.44444444,109.5555556,0.189814847,-0.296296377,1,0,0,0.6004,submitButton,0.043518603,-0.288888912,0,0,0,1,52,112,36,1,52,69175,1,180,2022-02-09_22h41.50.505,orientation adjustment 1,2021.2.3,Win32,59.53089654,,,,,,,
,,,,,,,,,,,,,,,,,,,,,,65.55555556,17,20,75,21.55555556,4.555555556,4.555555556,-68.44444444,0.394444483,-0.272222245,1,0,0,0.2025,submitButton,-0.261111092,-0.399074157,0,0,0,1,53,113,1,1,17,69175,1,180,2022-02-09_22h41.50.505,orientation adjustment 1,2021.2.3,Win32,59.53089654,,,,,,,
,,,,,,,,,,,,,,,,,,,,,,-21.11111111,-22,20,75,-30.11111111,8.111111111,8.111111111,-120.1111111,0.242592626,-0.306481506,1,0,0,0.3673,submitButton,-0.003703621,-0.340740822,0,0,0,1,54,114,6,1,22,69175,1,180,2022-02-09_22h41.50.505,orientation adjustment 1,2021.2.3,Win32,59.53089654,,,,,,,
,,,,,,,,,,,,,,,,,,,,,,51.66666667,66,20,75,68.66666667,2.666666667,2.666666667,-21.33333333,0.392592631,-0.283333357,1,0,0,0.3965,submitButton,-0.315740724,-0.387963046,0,0,0,1,55,115,50,1,66,69175,1,180,2022-02-09_22h41.50.505,orientation adjustment 1,2021.2.3,Win32,59.53089654,,,,,,,
,,,,,,,,,,,,,,,,,,,,,,56.11111111,-60,20,75,-45.88888889,14.11111111,14.11111111,-135.8888889,0.439814854,-0.263888912,1,0,0,0.0809,submitButton,-0.318518502,-0.397222249,0,0,0,1,56,116,44,1,60,69175,1,180,2022-02-09_22h41.50.505,orientation adjustment 1,2021.2.3,Win32,59.53089654,,,,,,,
,,,,,,,,,,,,,,,,,,,,,,33.88888889,-31,20,75,-39.11111111,8.111111111,8.111111111,-129.1111111,0.384259297,-0.286111135,1,0,0,0.0338,submitButton,-0.324074057,-0.401851935,0,0,0,1,57,117,15,1,31,69175,1,180,2022-02-09_22h41.50.505,orientation adjustment 1,2021.2.3,Win32,59.53089654,,,,,,,
,,,,,,,,,,,,,,,,,,,,,,51.66666667,-30,20,75,-28.33333333,1.666666667,1.666666667,-118.3333333,0.405555594,-0.278703727,1,0,0,0.7356,submitButton,0.014814842,-0.40833336,0,0,0,1,58,118,14,1,30,69175,1,180,2022-02-09_22h41.50.505,orientation adjustment 1,2021.2.3,Win32,59.53089654,,,,,,,
,,,,,,,,,,,,,,,,,,,,,,-52.22222222,51,20,75,43.77777778,7.222222222,7.222222222,-46.22222222,0.211111144,-0.30462971,1,0,0,0.5829,submitButton,0.292592628,-0.384259286,1,0,0,1,59,119,35,1,51,69175,1,180,2022-02-09_22h41.50.505,orientation adjustment 1,2021.2.3,Win32,59.53089654,pause_continueButton,,,,,,
,,,,,,,,,,,,,,,,,,,,,,-28.33333333,43,20,75,41.66666667,1.333333333,1.333333333,-48.33333333,-0.324074057,-0.398148175,1,0,0,1.0324,submitButton,0.151851883,-0.341666692,0,0,0,2,0,120,27,1,43,69175,1,180,2022-02-09_22h41.50.505,orientation adjustment 1,2021.2.3,Win32,59.53089654,,,,,,,
,,,,,,,,,,,,,,,,,,,,,,31.11111111,17,20,75,23.11111111,6.111111111,6.111111111,-66.88888889,0.351851889,-0.290740821,1,0,0,0.1667,submitButton,-0.320370353,-0.41759262,0,0,0,2,1,121,1,1,17,69175,1,180,2022-02-09_22h41.50.505,orientation adjustment 1,2021.2.3,Win32,59.53089654,,,,,,,
,,,,,,,,,,,,,,,,,,,,,,-68.88888889,-52,20,75,-53.88888889,1.888888889,1.888888889,-143.8888889,0.248148182,-0.292592616,1,0,0,0.4166,submitButton,-0.315740724,-0.398148175,0,0,0,2,2,122,36,1,52,69175,1,180,2022-02-09_22h41.50.505,orientation adjustment 1,2021.2.3,Win32,59.53089654,,,,,,,
,,,,,,,,,,,,,,,,,,,,,,-58.88888889,-70,20,75,-228.8888889,21.11111111,21.11111111,-318.8888889,0.412037076,-0.311111135,1,0,0,0.3657,submitButton,-0.308333316,-0.37870373,0,0,0,2,3,123,54,1,70,69175,1,180,2022-02-09_22h41.50.505,orientation adjustment 1,2021.2.3,Win32,59.53089654,,,,,,,
,,,,,,,,,,,,,,,,,,,,,,-37.22222222,16,20,75,32.77777778,16.77777778,16.77777778,-57.22222222,0.221296329,-0.292592616,1,0,0,0.6659,submitButton,-0.215740721,-0.401851935,0,0,0,2,4,124,0,1,16,69175,1,180,2022-02-09_22h41.50.505,orientation adjustment 1,2021.2.3,Win32,59.53089654,,,,,,,
,,,,,,,,,,,,,,,,,,,,,,25,-21,20,75,-21,0,0,-111,0.347222259,-0.279629709,1,0,0,0.5306,submitButton,-0.308333316,-0.405555583,0,0,0,2,5,125,5,1,21,69175,1,180,2022-02-09_22h41.50.505,orientation adjustment 1,2021.2.3,Win32,59.53089654,,,,,,,
,,,,,,,,,,,,,,,,,,,,,,-23.33333333,63,20,75,62.66666667,0.333333333,0.333333333,-27.33333333,-0.330555539,-0.394444471,1,0,0,0.8332,submitButton,-0.330555539,-0.394444471,0,0,0,2,6,126,47,1,63,69175,1,180,2022-02-09_22h41.50.505,orientation adjustment 1,2021.2.3,Win32,59.53089654,,,,,,,
,,,,,,,,,,,,,,,,,,,,,,63.33333333,48,20,75,60.33333333,12.33333333,12.33333333,-29.66666667,0.40185189,-0.269444467,1,0,0,0.2995,submitButton,-0.357407392,-0.410185269,0,0,0,2,7,127,32,1,48,69175,1,180,2022-02-09_22h41.50.505,orientation adjustment 1,2021.2.3,Win32,59.53089654,,,,,,,
,,,,,,,,,,,,,,,,,,,,,,24.44444444,-68,20,75,-56.55555556,11.44444444,11.44444444,-146.5555556,0.360185222,-0.26203706,1,0,0,0.213,submitButton,-0.334259243,-0.397222249,0,0,0,2,8,128,52,1,68,69175,1,180,2022-02-09_22h41.50.505,orientation adjustment 1,2021.2.3,Win32,59.53089654,,,,,,,
,,,,,,,,,,,,,,,,,,,,,,-41.66666667,-74,20,75,-68.66666667,5.333333333,5.333333333,-158.6666667,0.171296328,-0.294444468,1,0,0,0.3131,submitButton,0.15925929,-0.390740824,0,0,0,2,9,129,58,1,74,69175,1,180,2022-02-09_22h41.50.505,orientation adjustment 1,2021.2.3,Win32,59.53089654,,,,,,,
,,,,,,,,,,,,,,,,,,,,,,61.11111111,57,20,75,70.11111111,13.11111111,13.11111111,-19.88888889,0.373148186,-0.300000024,1,0,0,0.4829,submitButton,-0.290740723,-0.375925952,0,0,0,2,10,130,41,1,57,69175,1,180,2022-02-09_22h41.50.505,orientation adjustment 1,2021.2.3,Win32,59.53089654,,,,,,,
,,,,,,,,,,,,,,,,,,,,,,48.33333333,-34,20,75,-25.66666667,8.333333333,8.333333333,-115.6666667,0.349074111,-0.279629709,1,0,0,0.0682,submitButton,-0.35555554,-0.386111138,0,0,0,2,11,131,18,1,34,69175,1,180,2022-02-09_22h41.50.505,orientation adjustment 1,2021.2.3,Win32,59.53089654,,,,,,,
,,,,,,,,,,,,,,,,,,,,,,-40,72,20,75,57,15,15,-33,0.232407441,-0.295370394,1,0,0,0.4128,submitButton,-0.304629612,-0.399074157,0,0,0,2,12,132,56,1,72,69175,1,180,2022-02-09_22h41.50.505,orientation adjustment 1,2021.2.3,Win32,59.53089654,,,,,,,
,,,,,,,,,,,,,,,,,,,,,,67.22222222,-69,20,75,-43.77777778,25.22222222,25.22222222,-133.7777778,0.400925964,-0.289814838,1,0,0,0.1681,submitButton,-0.347222206,-0.425925954,0,0,0,2,13,133,53,1,69,69175,1,180,2022-02-09_22h41.50.505,orientation adjustment 1,2021.2.3,Win32,59.53089654,,,,,,,
,,,,,,,,,,,,,,,,,,,,,,-30.55555556,-62,20,75,-60.55555556,1.444444444,1.444444444,-150.5555556,0.20277781,-0.30555558,1,0,0,0.2999,submitButton,0.256481516,-0.386111138,1,0,0,2,14,134,46,1,62,69175,1,180,2022-02-09_22h41.50.505,orientation adjustment 1,2021.2.3,Win32,59.53089654,pause_continueButton,,,,,,
,,,,,,,,,,,,,,,,,,,,,,-23.33333333,-26,20,75,-26.33333333,0.333333333,0.333333333,-116.3333333,-0.34166665,-0.39629638,1,0,0,1.1124,submitButton,-0.34166665,-0.39629638,0,0,0,2,15,135,10,1,26,69175,1,180,2022-02-09_22h41.50.505,orientation adjustment 1,2021.2.3,Win32,59.53089654,,,,,,,
,,,,,,,,,,,,,,,,,,,,,,-57.22222222,37,20,75,34.77777778,2.222222222,2.222222222,-55.22222222,0.203703736,-0.286111135,1,0,0,0.2003,submitButton,0.261111145,-0.26574082,0,0,0,2,16,136,21,1,37,69175,1,180,2022-02-09_22h41.50.505,orientation adjustment 1,2021.2.3,Win32,59.53089654,,,,,,,
,,,,,,,,,,,,,,,,,,,,,,68.33333333,-45,20,75,-41.66666667,3.333333333,3.333333333,-131.6666667,-0.349999984,-0.419444472,1,0,0,1.9295,submitButton,-0.349999984,-0.419444472,0,0,0,2,17,137,29,1,45,69175,1,180,2022-02-09_22h41.50.505,orientation adjustment 1,2021.2.3,Win32,59.53089654,,,,,,,
,,,,,,,,,,,,,,,,,,,,,,37.22222222,-55,20,75,20.22222222,75.22222222,75.22222222,-69.77777778,0.200000032,-0.288888912,1,0,0,0.5792,submitButton,-0.076851828,-0.318518599,0,0,0,2,18,138,39,1,55,69175,1,180,2022-02-09_22h41.50.505,orientation adjustment 1,2021.2.3,Win32,59.53089654,,,,,,,
,,,,,,,,,,,,,,,,,,,,,,-29.44444444,31,20,75,33.55555556,2.555555556,2.555555556,-56.44444444,-0.352777762,-0.410185269,1,0,0,1.1803,submitButton,-0.352777762,-0.410185269,0,0,0,2,19,139,15,1,31,69175,1,180,2022-02-09_22h41.50.505,orientation adjustment 1,2021.2.3,Win32,59.53089654,,,,,,,
,,,,,,,,,,,,,,,,,,,,,,-32.77777778,-44,20,75,-39.77777778,4.222222222,4.222222222,-129.7777778,0.200925958,-0.306481506,1,0,0,0.2966,submitButton,0.092592622,-0.312037061,0,0,0,2,20,140,28,1,44,69175,1,180,2022-02-09_22h41.50.505,orientation adjustment 1,2021.2.3,Win32,59.53089654,,,,,,,
,,,,,,,,,,,,,,,,,,,,,,-72.22222222,41,20,75,39.77777778,1.222222222,1.222222222,-50.22222222,0.183333365,-0.283333357,1,0,0,0.1198,submitButton,-0.311111094,-0.38333336,0,0,0,2,21,141,25,1,41,69175,1,180,2022-02-09_22h41.50.505,orientation adjustment 1,2021.2.3,Win32,59.53089654,,,,,,,
,,,,,,,,,,,,,,,,,,,,,,35.55555556,27,20,75,28.55555556,1.555555556,1.555555556,-61.44444444,0.398148187,-0.300000024,1,0,0,0.3132,submitButton,-0.344444428,-0.401851935,0,0,0,2,22,142,11,1,27,69175,1,180,2022-02-09_22h41.50.505,orientation adjustment 1,2021.2.3,Win32,59.53089654,,,,,,,
,,,,,,,,,,,,,,,,,,,,,,25,-47,20,75,-54,7,7,-144,-0.358333318,-0.423148176,1,0,0,1.3957,submitButton,-0.358333318,-0.423148176,0,0,0,2,23,143,31,1,47,69175,1,180,2022-02-09_22h41.50.505,orientation adjustment 1,2021.2.3,Win32,59.53089654,,,,,,,
,,,,,,,,,,,,,,,,,,,,,,40.55555556,40,20,75,31.55555556,8.444444444,8.444444444,-58.44444444,0.386111149,-0.281481505,1,0,0,0.3295,submitButton,-0.334259243,-0.387037063,0,0,0,2,24,144,24,1,40,69175,1,180,2022-02-09_22h41.50.505,orientation adjustment 1,2021.2.3,Win32,59.53089654,,,,,,,
,,,,,,,,,,,,,,,,,,,,,,-67.77777778,75,20,75,60.22222222,14.77777778,14.77777778,-29.77777778,0.187962995,-0.290740821,1,0,0,0.8126,submitButton,-0.325925909,-0.405555583,0,0,0,2,25,145,59,1,75,69175,1,180,2022-02-09_22h41.50.505,orientation adjustment 1,2021.2.3,Win32,59.53089654,,,,,,,
,,,,,,,,,,,,,,,,,,,,,,-44.44444444,28,20,75,32.55555556,4.555555556,4.555555556,-57.44444444,0.199074106,-0.290740821,1,0,0,0.4028,submitButton,-0.309259242,-0.389814841,0,0,0,2,26,146,12,1,28,69175,1,180,2022-02-09_22h41.50.505,orientation adjustment 1,2021.2.3,Win32,59.53089654,,,,,,,
,,,,,,,,,,,,,,,,,,,,,,-20,-53,20,75,-52,1,1,-142,0.178703736,-0.284259283,1,0,0,0.3336,submitButton,-0.340740724,-0.404629713,0,0,0,2,27,147,37,1,53,69175,1,180,2022-02-09_22h41.50.505,orientation adjustment 1,2021.2.3,Win32,59.53089654,,,,,,,
,,,,,,,,,,,,,,,,,,,,,,-49.44444444,-66,20,75,-62.44444444,3.555555556,3.555555556,-152.4444444,0.192592625,-0.275000023,1,0,0,1.5498,submitButton,-0.31203702,-0.395370397,0,0,0,2,28,148,50,1,66,69175,1,180,2022-02-09_22h41.50.505,orientation adjustment 1,2021.2.3,Win32,59.53089654,,,,,,,
,,,,,,,,,,,,,,,,,,,,,,-46.66666667,54,20,75,60.33333333,6.333333333,6.333333333,-29.66666667,0.240740774,-0.281481505,1,0,0,0.0373,submitButton,0.247222256,-0.41759262,1,0,0,2,29,149,38,1,54,69175,1,180,2022-02-09_22h41.50.505,orientation adjustment 1,2021.2.3,Win32,59.53089654,pause_continueButton,,,,,,
,,,,,,,,,,,,,,,,,,,,,,-49.44444444,-24,20,75,-36.44444444,12.44444444,12.44444444,-126.4444444,0.188888921,-0.317592617,1,0,0,0.4464,submitButton,0.013888916,-0.303703728,0,0,0,2,30,150,8,1,24,69175,1,180,2022-02-09_22h41.50.505,orientation adjustment 1,2021.2.3,Win32,59.53089654,,,,,,,
,,,,,,,,,,,,,,,,,,,,,,-71.11111111,64,20,75,62.88888889,1.111111111,1.111111111,-27.11111111,0.204629662,-0.293518599,1,0,0,0.1495,submitButton,-0.363888873,-0.375000026,0,0,0,2,31,151,48,1,64,69175,1,180,2022-02-09_22h41.50.505,orientation adjustment 1,2021.2.3,Win32,59.53089654,,,,,,,
,,,,,,,,,,,,,,,,,,,,,,55,51,20,75,63,12,12,-27,0.395370409,-0.286111135,1,0,0,0.3667,submitButton,0.200000032,-0.314814839,0,0,0,2,32,152,35,1,51,69175,1,180,2022-02-09_22h41.50.505,orientation adjustment 1,2021.2.3,Win32,59.53089654,,,,,,,
,,,,,,,,,,,,,,,,,,,,,,20,-35,20,75,-38,3,3,-128,0.453703744,-0.295370394,1,0,0,0.3483,submitButton,-0.292592575,-0.395370397,0,0,0,2,33,153,19,1,35,69175,1,180,2022-02-09_22h41.50.505,orientation adjustment 1,2021.2.3,Win32,59.53089654,,,,,,,
,,,,,,,,,,,,,,,,,,,,,,-41.66666667,-39,20,75,-48.66666667,9.666666667,9.666666667,-138.6666667,0.191666699,-0.26574082,1,0,0,0.0204,submitButton,0.194444477,-0.30462971,0,0,0,2,34,154,23,1,39,69175,1,180,2022-02-09_22h41.50.505,orientation adjustment 1,2021.2.3,Win32,59.53089654,,,,,,,
,,,,,,,,,,,,,,,,,,,,,,-49.44444444,25,20,75,31.55555556,6.555555556,6.555555556,-58.44444444,0.197222255,-0.288888912,1,0,0,1.0624,submitButton,-0.050925844,-0.261111134,0,0,0,2,35,155,9,1,25,69175,1,180,2022-02-09_22h41.50.505,orientation adjustment 1,2021.2.3,Win32,59.53089654,,,,,,,
,,,,,,,,,,,,,,,,,,,,,,-32.77777778,71,20,75,69.22222222,1.777777778,1.777777778,-20.77777778,-0.324999983,-0.400000027,1,0,0,1.363,submitButton,-0.324999983,-0.400000027,0,0,0,2,36,156,55,1,71,69175,1,180,2022-02-09_22h41.50.505,orientation adjustment 1,2021.2.3,Win32,59.53089654,,,,,,,
,,,,,,,,,,,,,,,,,,,,,,52.77777778,67,20,75,78.77777778,11.77777778,11.77777778,-11.22222222,0.434259299,-0.278703727,1,0,0,0.396,submitButton,0.068518547,-0.325000025,0,0,0,2,37,157,51,1,67,69175,1,180,2022-02-09_22h41.50.505,orientation adjustment 1,2021.2.3,Win32,59.53089654,,,,,,,
,,,,,,,,,,,,,,,,,,,,,,47.22222222,19,20,75,42.22222222,23.22222222,23.22222222,-47.77777778,0.350000037,-0.271296376,1,0,0,0.2459,submitButton,-0.325925909,-0.400925953,0,0,0,2,38,158,3,1,19,69175,1,180,2022-02-09_22h41.50.505,orientation adjustment 1,2021.2.3,Win32,59.53089654,,,,,,,
,,,,,,,,,,,,,,,,,,,,,,48.88888889,42,20,75,56.88888889,14.88888889,14.88888889,-33.11111111,0.403703742,-0.310185266,1,0,0,0.2499,submitButton,-0.319444427,-0.389814841,0,0,0,2,39,159,26,1,42,69175,1,180,2022-02-09_22h41.50.505,orientation adjustment 1,2021.2.3,Win32,59.53089654,,,,,,,
,,,,,,,,,,,,,,,,,,,,,,62.77777778,-32,20,75,-27.22222222,4.777777778,4.777777778,-117.2222222,-0.328703687,-0.395370397,1,0,0,1.7961,submitButton,-0.328703687,-0.395370397,0,0,0,2,40,160,16,1,32,69175,1,180,2022-02-09_22h41.50.505,orientation adjustment 1,2021.2.3,Win32,59.53089654,,,,,,,
,,,,,,,,,,,,,,,,,,,,,,-35,-61,20,75,-71,10,10,-161,0.16851855,-0.288888912,1,0,0,0.1,submitButton,-0.327777761,-0.393518602,0,0,0,2,41,161,45,1,61,69175,1,180,2022-02-09_22h41.50.505,orientation adjustment 1,2021.2.3,Win32,59.53089654,,,,,,,
,,,,,,,,,,,,,,,,,,,,,,65.55555556,60,20,75,58.55555556,1.444444444,1.444444444,-31.44444444,0.44074078,-0.270370393,1,0,0,0.1464,submitButton,-0.34166665,-0.389814841,0,0,0,2,42,162,44,1,60,69175,1,180,2022-02-09_22h41.50.505,orientation adjustment 1,2021.2.3,Win32,59.53089654,,,,,,,
,,,,,,,,,,,,,,,,,,,,,,69.44444444,56,20,75,55.44444444,0.555555556,0.555555556,-34.55555556,0.344444481,-0.290740821,1,0,0,0.449,submitButton,-0.034259177,-0.345370396,0,0,0,2,43,163,40,1,56,69175,1,180,2022-02-09_22h41.50.505,orientation adjustment 1,2021.2.3,Win32,59.53089654,,,,,,,
,,,,,,,,,,,,,,,,,,,,,,-32.77777778,-33,20,75,-35.77777778,2.777777778,2.777777778,-125.7777778,-0.303703686,-0.376851934,1,0,0,1.5293,submitButton,0.288888924,-0.405555583,1,0,0,2,44,164,17,1,33,69175,1,180,2022-02-09_22h41.50.505,orientation adjustment 1,2021.2.3,Win32,59.53089654,pause_continueButton,,,,,,
,,,,,,,,,,,,,,,,,,,,,,-57.22222222,18,20,75,29.77777778,11.77777778,11.77777778,-60.22222222,0.210185218,-0.312037061,1,0,0,1.3502,submitButton,-0.325925909,-0.416666694,0,0,0,2,45,165,2,1,18,69175,1,180,2022-02-09_22h41.50.505,orientation adjustment 1,2021.2.3,Win32,59.53089654,,,,,,,
,,,,,,,,,,,,,,,,,,,,,,-51.11111111,-22,20,75,-32.11111111,10.11111111,10.11111111,-122.1111111,0.176851884,-0.306481506,1,0,0,0.6494,submitButton,-0.320370353,-0.401851935,0,0,0,2,46,166,6,1,22,69175,1,180,2022-02-09_22h41.50.505,orientation adjustment 1,2021.2.3,Win32,59.53089654,,,,,,,
,,,,,,,,,,,,,,,,,,,,,,36.66666667,-73,20,75,-82.33333333,9.333333333,9.333333333,-172.3333333,0.374074112,-0.292592616,1,0,0,2.0496,submitButton,-0.319444427,-0.411111138,0,0,0,2,47,167,57,1,73,69175,1,180,2022-02-09_22h41.50.505,orientation adjustment 1,2021.2.3,Win32,59.53089654,,,,,,,
,,,,,,,,,,,,,,,,,,,,,,-38.33333333,-36,20,75,-29.33333333,6.666666667,6.666666667,-119.3333333,0.17314818,-0.287963043,1,0,0,0.1367,submitButton,0.071296325,-0.319444469,0,0,0,2,48,168,20,1,36,69175,1,180,2022-02-09_22h41.50.505,orientation adjustment 1,2021.2.3,Win32,59.53089654,,,,,,,
,,,,,,,,,,,,,,,,,,,,,,47.22222222,58,20,75,68.22222222,10.22222222,10.22222222,-21.77777778,0.394444483,-0.294444468,1,0,0,0.2461,submitButton,-0.321296279,-0.406481508,0,0,0,2,49,169,42,1,58,69175,1,180,2022-02-09_22h41.50.505,orientation adjustment 1,2021.2.3,Win32,59.53089654,,,,,,,
,,,,,,,,,,,,,,,,,,,,,,35.55555556,49,20,75,71.55555556,22.55555556,22.55555556,-18.44444444,0.386111149,-0.264814838,1,0,0,0.014,submitButton,-0.303703686,-0.402777805,0,0,0,2,50,170,33,1,49,69175,1,180,2022-02-09_22h41.50.505,orientation adjustment 1,2021.2.3,Win32,59.53089654,,,,,,,
,,,,,,,,,,,,,,,,,,,,,,-46.11111111,30,20,75,29.88888889,0.111111111,0.111111111,-60.11111111,0.191666699,-0.308333357,1,0,0,0.0337,submitButton,-0.378703688,-0.42129638,0,0,0,2,51,171,14,1,30,69175,1,180,2022-02-09_22h41.50.505,orientation adjustment 1,2021.2.3,Win32,59.53089654,,,,,,,
,,,,,,,,,,,,,,,,,,,,,,38.88888889,-29,20,75,-29.11111111,0.111111111,0.111111111,-119.1111111,0.437037077,-0.262963042,1,0,0,0.0541,submitButton,-0.30277776,-0.392592619,0,0,0,2,52,172,13,1,29,69175,1,180,2022-02-09_22h41.50.505,orientation adjustment 1,2021.2.3,Win32,59.53089654,,,,,,,
,,,,,,,,,,,,,,,,,,,,,,48.33333333,23,20,75,33.33333333,10.33333333,10.33333333,-56.66666667,0.383333371,-0.30555558,1,0,0,0.2631,submitButton,-0.343518502,-0.38240749,0,0,0,2,53,173,7,1,23,69175,1,180,2022-02-09_22h41.50.505,orientation adjustment 1,2021.2.3,Win32,59.53089654,,,,,,,
,,,,,,,,,,,,,,,,,,,,,,-72.22222222,46,20,75,26.77777778,19.22222222,19.22222222,-63.22222222,0.209259292,-0.285185265,1,0,0,0.4498,submitButton,-0.296296279,-0.389814841,0,0,0,2,54,174,30,1,46,69175,1,180,2022-02-09_22h41.50.505,orientation adjustment 1,2021.2.3,Win32,59.53089654,,,,,,,
,,,,,,,,,,,,,,,,,,,,,,57.77777778,38,20,75,45.77777778,7.777777778,7.777777778,-44.22222222,0.425000039,-0.289814838,1,0,0,0.4665,submitButton,-0.326851835,-0.405555583,0,0,0,2,55,175,22,1,38,69175,1,180,2022-02-09_22h41.50.505,orientation adjustment 1,2021.2.3,Win32,59.53089654,,,,,,,
,,,,,,,,,,,,,,,,,,,,,,32.22222222,-59,20,75,-53.77777778,5.222222222,5.222222222,-143.7777778,0.371296334,-0.306481506,1,0,0,0.3792,submitButton,-0.300925908,-0.403703731,0,0,0,2,56,176,43,1,59,69175,1,180,2022-02-09_22h41.50.505,orientation adjustment 1,2021.2.3,Win32,59.53089654,,,,,,,
,,,,,,,,,,,,,,,,,,,,,,-30.55555556,-20,20,75,-25.55555556,5.555555556,5.555555556,-115.5555556,0.179629661,-0.285185265,1,0,0,0.2991,submitButton,-0.335185169,-0.411111138,0,0,0,2,57,177,4,1,20,69175,1,180,2022-02-09_22h41.50.505,orientation adjustment 1,2021.2.3,Win32,59.53089654,,,,,,,
,,,,,,,,,,,,,,,,,,,,,,-42.77777778,-65,20,75,-72.77777778,7.777777778,7.777777778,-162.7777778,0.235185219,-0.293518599,1,0,0,0.2468,submitButton,-0.319444427,-0.38333336,0,0,0,2,58,178,49,1,65,69175,1,180,2022-02-09_22h41.50.505,orientation adjustment 1,2021.2.3,Win32,59.53089654,,,,,,,
,,,,,,,,,,,,,,,,,,,,,,35,50,20,75,72,22,22,-18,0.41111115,-0.285185265,1,0,0,0.1629,submitButton,0.101851881,-0.276851932,0,0,0,2,59,179,34,1,50,69175,1,180,2022-02-09_22h41.50.505,orientation adjustment 1,2021.2.3,Win32,59.53089654,,,,,,,
,,,,,,,,,,,,,,,,,,,,,,,,,,,,,,,,,,,,,,,,,,,,,,,,69175,1,180,2022-02-09_22h41.50.505,orientation adjustment 1,2021.2.3,Win32,59.53089654,,0.277777813,-0.391666693,1,0,0,EndButtonTxt
