consentMouse1.x,consentMouse1.y,consentMouse1.leftButton,consentMouse1.midButton,consentMouse1.rightButton,consentMouse1.clicked_name,consent_Mouse.x,consent_Mouse.y,consent_Mouse.leftButton,consent_Mouse.midButton,consent_Mouse.rightButton,consent_Mouse.clicked_name,startMouse.x,startMouse.y,startMouse.leftButton,startMouse.midButton,startMouse.rightButton,startMouse_2.x,startMouse_2.y,startMouse_2.leftButton,startMouse_2.midButton,startMouse_2.rightButton,start_distance,fixedOri,minimalDistance,maxOri,this_ori,accuracy,presented_accuracy,presented_this_ori,submitMouse.x,submitMouse.y,submitMouse.leftButton,submitMouse.midButton,submitMouse.rightButton,submitMouse.time,submitMouse.clicked_name,pauseMouse.x,pauseMouse.y,pauseMouse.leftButton,pauseMouse.midButton,pauseMouse.rightButton,trials.thisRepN,trials.thisTrialN,trials.thisN,trials.thisIndex,trials.ran,startOri,participant,condition,nTrials,date,expName,psychopyVersion,OS,frameRate,pauseMouse.clicked_name,EndButtonMouse.x,EndButtonMouse.y,EndButtonMouse.leftButton,EndButtonMouse.midButton,EndButtonMouse.rightButton,EndButtonMouse.clicked_name
0.382669271,-0.409435764,1,0,0,consent_button1,0.382669271,-0.408880208,1,0,0,consent_button,0.115082465,-0.270394965,1,0,0,0.125260417,-0.378029514,1,0,0,22.22222222,-20,20,75,-6.777777778,13.22222222,13.22222222,-96.77777778,0.214414063,-0.281892361,1,0,0,1.6649,submitButton,-0.174453125,-0.408563368,0,0,0,0,0,0,4,1,20,69199,1,180,2022-02-10_19h03.48.293,orientation adjustment 1,2021.2.3,MacIntel,60.0024001,,,,,,,
,,,,,,,,,,,,,,,,,,,,,,-66.11111111,39,20,75,37.88888889,1.111111111,1.111111111,-52.11111111,-0.305273438,-0.3959375,1,0,0,1.9161,submitButton,0.052330729,-0.330789931,0,0,0,0,1,1,23,1,39,69199,1,180,2022-02-10_19h03.48.293,orientation adjustment 1,2021.2.3,MacIntel,60.0024001,,,,,,,
,,,,,,,,,,,,,,,,,,,,,,64.44444444,-66,20,75,-46.55555556,19.44444444,19.44444444,-136.5555556,-0.269618056,-0.407782118,1,0,0,1.551,submitButton,0.084978299,-0.327239583,0,0,0,0,2,2,50,1,66,69199,1,180,2022-02-10_19h03.48.293,orientation adjustment 1,2021.2.3,MacIntel,60.0024001,,,,,,,
,,,,,,,,,,,,,,,,,,,,,,-74.44444444,62,20,75,36.55555556,25.44444444,25.44444444,-53.44444444,0.179735243,-0.307165799,1,0,0,0.7833,submitButton,0.244344618,-0.376180556,0,0,0,0,3,3,46,1,62,69199,1,180,2022-02-10_19h03.48.293,orientation adjustment 1,2021.2.3,MacIntel,60.0024001,,,,,,,
,,,,,,,,,,,,,,,,,,,,,,41.11111111,-18,20,75,-12.88888889,5.111111111,5.111111111,-102.8888889,-0.100703125,-0.400572917,1,0,0,0.7493,submitButton,0.078094618,-0.356362847,0,0,0,0,4,4,2,1,18,69199,1,180,2022-02-10_19h03.48.293,orientation adjustment 1,2021.2.3,MacIntel,60.0024001,,,,,,,
,,,,,,,,,,,,,,,,,,,,,,-52.77777778,-28,20,75,-37.77777778,9.777777778,9.777777778,-127.7777778,0.202951389,-0.295234375,1,0,0,0.1001,submitButton,0.051467014,-0.361966146,0,0,0,0,5,5,12,1,28,69199,1,180,2022-02-10_19h03.48.293,orientation adjustment 1,2021.2.3,MacIntel,60.0024001,,,,,,,
,,,,,,,,,,,,,,,,,,,,,,-28.33333333,47,20,75,38.66666667,8.333333333,8.333333333,-51.33333333,0.228038194,-0.298224826,1,0,0,0.1493,submitButton,0.194587674,-0.350633681,0,0,0,0,6,6,31,1,47,69199,1,180,2022-02-10_19h03.48.293,orientation adjustment 1,2021.2.3,MacIntel,60.0024001,,,,,,,
,,,,,,,,,,,,,,,,,,,,,,-30.55555556,54,20,75,52.44444444,1.555555556,1.555555556,-37.55555556,-0.158949653,-0.391657986,1,0,0,1.2669,submitButton,0.12516059,-0.334053819,0,0,0,0,7,7,38,1,54,69199,1,180,2022-02-10_19h03.48.293,orientation adjustment 1,2021.2.3,MacIntel,60.0024001,,,,,,,
,,,,,,,,,,,,,,,,,,,,,,-21.11111111,67,20,75,73.88888889,6.888888889,6.888888889,-16.11111111,0.173359375,-0.31984375,1,0,0,0.9996,submitButton,-0.146102431,-0.416367188,0,0,0,0,8,8,51,1,67,69199,1,180,2022-02-10_19h03.48.293,orientation adjustment 1,2021.2.3,MacIntel,60.0024001,,,,,,,
,,,,,,,,,,,,,,,,,,,,,,23.88888889,-35,20,75,-11.11111111,23.88888889,23.88888889,-101.1111111,-0.174479167,-0.457760417,1,0,0,0.8491,submitButton,0.048272569,-0.310638021,0,0,0,0,9,9,19,1,35,69199,1,180,2022-02-10_19h03.48.293,orientation adjustment 1,2021.2.3,MacIntel,60.0024001,,,,,,,
,,,,,,,,,,,,,,,,,,,,,,60.55555556,-42,20,75,-35.44444444,6.555555556,6.555555556,-125.4444444,0.386983507,-0.311119792,1,0,0,0.2994,submitButton,0.104813368,-0.315863715,0,0,0,0,10,10,26,1,42,69199,1,180,2022-02-10_19h03.48.293,orientation adjustment 1,2021.2.3,MacIntel,60.0024001,,,,,,,
,,,,,,,,,,,,,,,,,,,,,,-66.11111111,-74,20,75,-238.1111111,15.88888889,15.88888889,-328.1111111,0.390538194,-0.303715278,1,0,0,1.5335,submitButton,0.104756944,-0.305416667,0,0,0,0,11,11,58,1,74,69199,1,180,2022-02-10_19h03.48.293,orientation adjustment 1,2021.2.3,MacIntel,60.0024001,,,,,,,
,,,,,,,,,,,,,,,,,,,,,,73.33333333,53,20,75,228.3333333,4.666666667,4.666666667,138.3333333,0.202860243,-0.295251736,1,0,0,1.5326,submitButton,-0.166974826,-0.387721354,0,0,0,0,12,12,37,1,53,69199,1,180,2022-02-10_19h03.48.293,orientation adjustment 1,2021.2.3,MacIntel,60.0024001,,,,,,,
,,,,,,,,,,,,,,,,,,,,,,-23.88888889,-34,20,75,-47.88888889,13.88888889,13.88888889,-137.8888889,0.182669271,-0.301475694,1,0,0,0.1002,submitButton,-0.131319444,-0.398159722,0,0,0,0,13,13,18,1,34,69199,1,180,2022-02-10_19h03.48.293,orientation adjustment 1,2021.2.3,MacIntel,60.0024001,,,,,,,
,,,,,,,,,,,,,,,,,,,,,,-21.66666667,46,20,75,40.33333333,5.666666667,5.666666667,-49.66666667,0.219288194,-0.319978299,1,0,0,0.4668,submitButton,0.321671007,-0.421210937,1,0,0,0,14,14,30,1,46,69199,1,180,2022-02-10_19h03.48.293,orientation adjustment 1,2021.2.3,MacIntel,60.0024001,pause_continueButton,,,,,,
,,,,,,,,,,,,,,,,,,,,,,22.22222222,-41,20,75,-35.77777778,5.222222222,5.222222222,-125.7777778,0.406970486,-0.298211806,1,0,0,0.4506,submitButton,0.136436632,-0.333515625,0,0,0,0,15,15,25,1,41,69199,1,180,2022-02-10_19h03.48.293,orientation adjustment 1,2021.2.3,MacIntel,60.0024001,,,,,,,
,,,,,,,,,,,,,,,,,,,,,,-55.55555556,-26,20,75,-26.55555556,0.555555556,0.555555556,-116.5555556,0.220390625,-0.301779514,1,0,0,0.1336,submitButton,-0.139088542,-0.408042535,0,0,0,0,16,16,10,1,26,69199,1,180,2022-02-10_19h03.48.293,orientation adjustment 1,2021.2.3,MacIntel,60.0024001,,,,,,,
,,,,,,,,,,,,,,,,,,,,,,-50.55555556,25,20,75,24.44444444,0.555555556,0.555555556,-65.55555556,0.211610243,-0.314479167,1,0,0,0.5493,submitButton,0.191150174,-0.341184896,0,0,0,0,17,17,9,1,25,69199,1,180,2022-02-10_19h03.48.293,orientation adjustment 1,2021.2.3,MacIntel,60.0024001,,,,,,,
,,,,,,,,,,,,,,,,,,,,,,-21.11111111,-19,20,75,-19.11111111,0.111111111,0.111111111,-109.1111111,-0.157361111,-0.404561632,1,0,0,1.2513,submitButton,-0.157916667,-0.405117187,0,0,0,0,18,18,3,1,19,69199,1,180,2022-02-10_19h03.48.293,orientation adjustment 1,2021.2.3,MacIntel,60.0024001,,,,,,,
,,,,,,,,,,,,,,,,,,,,,,42.77777778,52,20,75,64.77777778,12.77777778,12.77777778,-25.22222222,0.404539931,-0.313980035,1,0,0,0.2658,submitButton,-0.181158854,-0.399157986,0,0,0,0,19,19,36,1,52,69199,1,180,2022-02-10_19h03.48.293,orientation adjustment 1,2021.2.3,MacIntel,60.0024001,,,,,,,
,,,,,,,,,,,,,,,,,,,,,,-38.33333333,-22,20,75,-21.33333333,0.666666667,0.666666667,-111.3333333,0.204934896,-0.304735243,1,0,0,0.6327,submitButton,-0.12968316,-0.38702691,0,0,0,0,20,20,6,1,22,69199,1,180,2022-02-10_19h03.48.293,orientation adjustment 1,2021.2.3,MacIntel,60.0024001,,,,,,,
,,,,,,,,,,,,,,,,,,,,,,-33.33333333,57,20,75,63.66666667,6.666666667,6.666666667,-26.33333333,0.183268229,-0.324127604,1,0,0,1.3829,submitButton,0.195065104,-0.31812934,0,0,0,0,21,21,41,1,57,69199,1,180,2022-02-10_19h03.48.293,orientation adjustment 1,2021.2.3,MacIntel,60.0024001,,,,,,,
,,,,,,,,,,,,,,,,,,,,,,23.88888889,-36,20,75,-23.11111111,12.88888889,12.88888889,-113.1111111,-0.128237847,-0.419500868,1,0,0,0.6667,submitButton,-0.128237847,-0.418394097,0,0,0,0,22,22,20,1,36,69199,1,180,2022-02-10_19h03.48.293,orientation adjustment 1,2021.2.3,MacIntel,60.0024001,,,,,,,
,,,,,,,,,,,,,,,,,,,,,,-65,32,20,75,33,1,1,-57,0.184752604,-0.334809028,1,0,0,0.7501,submitButton,-0.120976562,-0.40390625,0,0,0,0,23,23,16,1,32,69199,1,180,2022-02-10_19h03.48.293,orientation adjustment 1,2021.2.3,MacIntel,60.0024001,,,,,,,
,,,,,,,,,,,,,,,,,,,,,,-26.11111111,-43,20,75,-31.11111111,11.88888889,11.88888889,-121.1111111,0.229045139,-0.307604167,1,0,0,0.9322,submitButton,-0.13734809,-0.405026042,0,0,0,0,24,24,27,1,43,69199,1,180,2022-02-10_19h03.48.293,orientation adjustment 1,2021.2.3,MacIntel,60.0024001,,,,,,,
,,,,,,,,,,,,,,,,,,,,,,-23.88888889,-70,20,75,-252.8888889,2.888888889,2.888888889,-342.8888889,0.402296007,-0.298216146,1,0,0,0.0322,submitButton,-0.003415799,-0.373884549,0,0,0,0,25,25,54,1,70,69199,1,180,2022-02-10_19h03.48.293,orientation adjustment 1,2021.2.3,MacIntel,60.0024001,,,,,,,
,,,,,,,,,,,,,,,,,,,,,,-31.66666667,-69,20,75,-75.66666667,6.666666667,6.666666667,-165.6666667,0.205737847,-0.283142361,1,0,0,0.3504,submitButton,0.228550347,-0.347530382,0,0,0,0,26,26,53,1,69,69199,1,180,2022-02-10_19h03.48.293,orientation adjustment 1,2021.2.3,MacIntel,60.0024001,,,,,,,
,,,,,,,,,,,,,,,,,,,,,,65,63,20,75,231,12,12,141,-0.112894965,-0.398710937,1,0,0,2.633,submitButton,-0.113671875,-0.395872396,0,0,0,0,27,27,47,1,63,69199,1,180,2022-02-10_19h03.48.293,orientation adjustment 1,2021.2.3,MacIntel,60.0024001,,,,,,,
,,,,,,,,,,,,,,,,,,,,,,53.88888889,73,20,75,74.88888889,1.888888889,1.888888889,-15.11111111,0.423328993,-0.281549479,1,0,0,0.4666,submitButton,-0.144340278,-0.407256944,0,0,0,0,28,28,57,1,73,69199,1,180,2022-02-10_19h03.48.293,orientation adjustment 1,2021.2.3,MacIntel,60.0024001,,,,,,,
,,,,,,,,,,,,,,,,,,,,,,-63.33333333,-64,20,75,-235.3333333,8.666666667,8.666666667,-325.3333333,0.371393229,-0.283237847,1,0,0,2.1829,submitButton,0.414639757,-0.380021701,1,0,0,0,29,29,48,1,64,69199,1,180,2022-02-10_19h03.48.293,orientation adjustment 1,2021.2.3,MacIntel,60.0024001,pause_continueButton,,,,,,
,,,,,,,,,,,,,,,,,,,,,,47.77777778,33,20,75,49.77777778,16.77777778,16.77777778,-40.22222222,0.413932292,-0.32796875,1,0,0,0.3493,submitButton,-0.170642361,-0.408376736,0,0,0,0,30,30,17,1,33,69199,1,180,2022-02-10_19h03.48.293,orientation adjustment 1,2021.2.3,MacIntel,60.0024001,,,,,,,
,,,,,,,,,,,,,,,,,,,,,,-27.22222222,-51,20,75,-64.22222222,13.22222222,13.22222222,-154.2222222,0.233776042,-0.318893229,1,0,0,0.1825,submitButton,-0.13609809,-0.398168403,0,0,0,0,31,31,35,1,51,69199,1,180,2022-02-10_19h03.48.293,orientation adjustment 1,2021.2.3,MacIntel,60.0024001,,,,,,,
,,,,,,,,,,,,,,,,,,,,,,57.22222222,17,20,75,28.22222222,11.22222222,11.22222222,-61.77777778,0.423077257,-0.294544271,1,0,0,0.6659,submitButton,-0.105407986,-0.397612847,0,0,0,0,32,32,1,1,17,69199,1,180,2022-02-10_19h03.48.293,orientation adjustment 1,2021.2.3,MacIntel,60.0024001,,,,,,,
,,,,,,,,,,,,,,,,,,,,,,23.33333333,-65,20,75,-65.66666667,0.666666667,0.666666667,-155.6666667,0.372825521,-0.2996875,1,0,0,0.1671,submitButton,-0.157269965,-0.405203993,0,0,0,0,33,33,49,1,65,69199,1,180,2022-02-10_19h03.48.293,orientation adjustment 1,2021.2.3,MacIntel,60.0024001,,,,,,,
,,,,,,,,,,,,,,,,,,,,,,-42.22222222,45,20,75,31.77777778,13.22222222,13.22222222,-58.22222222,0.201258681,-0.314188368,1,0,0,0.2154,submitButton,-0.125512153,-0.397061632,0,0,0,0,34,34,29,1,45,69199,1,180,2022-02-10_19h03.48.293,orientation adjustment 1,2021.2.3,MacIntel,60.0024001,,,,,,,
,,,,,,,,,,,,,,,,,,,,,,61.66666667,16,20,75,19.66666667,3.666666667,3.666666667,-70.33333333,0.420611979,-0.284205729,1,0,0,1.1156,submitButton,-0.118220486,-0.400138889,0,0,0,0,35,35,0,1,16,69199,1,180,2022-02-10_19h03.48.293,orientation adjustment 1,2021.2.3,MacIntel,60.0024001,,,,,,,
,,,,,,,,,,,,,,,,,,,,,,-62.22222222,48,20,75,33.77777778,14.22222222,14.22222222,-56.22222222,0.208550347,-0.313541667,1,0,0,0.9841,submitButton,-0.1246875,-0.392139757,0,0,0,0,36,36,32,1,48,69199,1,180,2022-02-10_19h03.48.293,orientation adjustment 1,2021.2.3,MacIntel,60.0024001,,,,,,,
,,,,,,,,,,,,,,,,,,,,,,-35.55555556,-50,20,75,-63.55555556,13.55555556,13.55555556,-153.5555556,0.184006076,-0.309722222,1,0,0,0.2668,submitButton,-0.188884549,-0.381519097,0,0,0,0,37,37,34,1,50,69199,1,180,2022-02-10_19h03.48.293,orientation adjustment 1,2021.2.3,MacIntel,60.0024001,,,,,,,
,,,,,,,,,,,,,,,,,,,,,,-34.44444444,61,20,75,28.55555556,32.44444444,32.44444444,-61.44444444,0.228450521,-0.288098958,1,0,0,0.3832,submitButton,-0.142174479,-0.418142361,0,0,0,0,38,38,45,1,61,69199,1,180,2022-02-10_19h03.48.293,orientation adjustment 1,2021.2.3,MacIntel,60.0024001,,,,,,,
,,,,,,,,,,,,,,,,,,,,,,52.22222222,37,20,75,151.2222222,65.77777778,65.77777778,61.22222222,0.206158854,-0.285733507,1,0,0,0.1861,submitButton,-0.126688368,-0.406419271,0,0,0,0,39,39,21,1,37,69199,1,180,2022-02-10_19h03.48.293,orientation adjustment 1,2021.2.3,MacIntel,60.0024001,,,,,,,
,,,,,,,,,,,,,,,,,,,,,,36.11111111,38,20,75,41.11111111,3.111111111,3.111111111,-48.88888889,0.386914062,-0.319878472,1,0,0,0.5665,submitButton,-0.255373264,-0.409778646,0,0,0,0,40,40,22,1,38,69199,1,180,2022-02-10_19h03.48.293,orientation adjustment 1,2021.2.3,MacIntel,60.0024001,,,,,,,
,,,,,,,,,,,,,,,,,,,,,,-42.77777778,72,20,75,66.22222222,5.777777778,5.777777778,-23.77777778,0.218138021,-0.275555556,1,0,0,1.4495,submitButton,0.285512153,-0.253255208,0,0,0,0,41,41,56,1,72,69199,1,180,2022-02-10_19h03.48.293,orientation adjustment 1,2021.2.3,MacIntel,60.0024001,,,,,,,
,,,,,,,,,,,,,,,,,,,,,,50,71,20,75,240,11,11,150,0.229288194,-0.305807292,1,0,0,1.8841,submitButton,-0.158463542,-0.386805556,0,0,0,0,42,42,55,1,71,69199,1,180,2022-02-10_19h03.48.293,orientation adjustment 1,2021.2.3,MacIntel,60.0024001,,,,,,,
,,,,,,,,,,,,,,,,,,,,,,73.88888889,31,20,75,191.8888889,19.11111111,19.11111111,101.8888889,-0.205256076,-0.408563368,1,0,0,2.2826,submitButton,-0.204986979,-0.406471354,0,0,0,0,43,43,15,1,31,69199,1,180,2022-02-10_19h03.48.293,orientation adjustment 1,2021.2.3,MacIntel,60.0024001,,,,,,,
,,,,,,,,,,,,,,,,,,,,,,56.11111111,29,20,75,196.1111111,12.88888889,12.88888889,106.1111111,0.236631944,-0.292929687,1,0,0,1.6994,submitButton,0.375672743,-0.413658854,1,0,0,0,44,44,13,1,29,69199,1,180,2022-02-10_19h03.48.293,orientation adjustment 1,2021.2.3,MacIntel,60.0024001,pause_continueButton,,,,,,
,,,,,,,,,,,,,,,,,,,,,,-36.66666667,-68,20,75,-73.66666667,5.666666667,5.666666667,-163.6666667,0.1896875,-0.321618924,1,0,0,0.2833,submitButton,0.136814236,-0.360963542,0,0,0,0,45,45,52,1,68,69199,1,180,2022-02-10_19h03.48.293,orientation adjustment 1,2021.2.3,MacIntel,60.0024001,,,,,,,
,,,,,,,,,,,,,,,,,,,,,,52.22222222,55,20,75,53.22222222,1.777777778,1.777777778,-36.77777778,0.373936632,-0.304822049,1,0,0,0.5004,submitButton,-0.21733941,-0.423624132,0,0,0,0,46,46,39,1,55,69199,1,180,2022-02-10_19h03.48.293,orientation adjustment 1,2021.2.3,MacIntel,60.0024001,,,,,,,
,,,,,,,,,,,,,,,,,,,,,,-28.33333333,-56,20,75,-65.33333333,9.333333333,9.333333333,-155.3333333,0.206271701,-0.287022569,1,0,0,0.1837,submitButton,-0.268645833,-0.420108507,0,0,0,0,47,47,40,1,56,69199,1,180,2022-02-10_19h03.48.293,orientation adjustment 1,2021.2.3,MacIntel,60.0024001,,,,,,,
,,,,,,,,,,,,,,,,,,,,,,-49.44444444,21,20,75,15.55555556,5.444444444,5.444444444,-74.44444444,0.193567708,-0.295577257,1,0,0,0.7499,submitButton,-0.204197049,-0.426532118,0,0,0,0,48,48,5,1,21,69199,1,180,2022-02-10_19h03.48.293,orientation adjustment 1,2021.2.3,MacIntel,60.0024001,,,,,,,
,,,,,,,,,,,,,,,,,,,,,,-30.55555556,27,20,75,15.44444444,11.55555556,11.55555556,-74.55555556,0.374639757,-0.302517361,1,0,0,0.0328,submitButton,-0.277105035,-0.424800347,0,0,0,0,49,49,11,1,27,69199,1,180,2022-02-10_19h03.48.293,orientation adjustment 1,2021.2.3,MacIntel,60.0024001,,,,,,,
,,,,,,,,,,,,,,,,,,,,,,20,49,20,75,54,5,5,-36,0.364097222,-0.321019965,1,0,0,0.1329,submitButton,0.133763021,-0.344023437,0,0,0,0,50,50,33,1,49,69199,1,180,2022-02-10_19h03.48.293,orientation adjustment 1,2021.2.3,MacIntel,60.0024001,,,,,,,
,,,,,,,,,,,,,,,,,,,,,,21.11111111,-60,20,75,-43.88888889,16.11111111,16.11111111,-133.8888889,0.406918403,-0.295017361,1,0,0,0.0503,submitButton,-0.131697049,-0.391323785,0,0,0,0,51,51,44,1,60,69199,1,180,2022-02-10_19h03.48.293,orientation adjustment 1,2021.2.3,MacIntel,60.0024001,,,,,,,
,,,,,,,,,,,,,,,,,,,,,,74.44444444,-40,20,75,-23.55555556,16.44444444,16.44444444,-113.5555556,0.386553819,-0.307829861,1,0,0,1.1668,submitButton,-0.286367188,-0.396436632,0,0,0,0,52,52,24,1,40,69199,1,180,2022-02-10_19h03.48.293,orientation adjustment 1,2021.2.3,MacIntel,60.0024001,,,,,,,
,,,,,,,,,,,,,,,,,,,,,,-42.77777778,-75,20,75,-75.77777778,0.777777778,0.777777778,-165.7777778,0.227734375,-0.286801215,1,0,0,0.3502,submitButton,-0.144991319,-0.408172743,0,0,0,0,53,53,59,1,75,69199,1,180,2022-02-10_19h03.48.293,orientation adjustment 1,2021.2.3,MacIntel,60.0024001,,,,,,,
,,,,,,,,,,,,,,,,,,,,,,68.33333333,24,20,75,33.33333333,9.333333333,9.333333333,-56.66666667,0.387152778,-0.312847222,1,0,0,0.7178,submitButton,-0.345286458,-0.387717014,0,0,0,0,54,54,8,1,24,69199,1,180,2022-02-10_19h03.48.293,orientation adjustment 1,2021.2.3,MacIntel,60.0024001,,,,,,,
,,,,,,,,,,,,,,,,,,,,,,-56.66666667,30,20,75,20.33333333,9.666666667,9.666666667,-69.66666667,-0.140386285,-0.387374132,1,0,0,1.217,submitButton,-0.140386285,-0.387929688,0,0,0,0,55,55,14,1,30,69199,1,180,2022-02-10_19h03.48.293,orientation adjustment 1,2021.2.3,MacIntel,60.0024001,,,,,,,
,,,,,,,,,,,,,,,,,,,,,,22.77777778,23,20,75,38.77777778,15.77777778,15.77777778,-51.22222222,0.383836806,-0.295885417,1,0,0,0.2657,submitButton,-0.132209201,-0.405828993,0,0,0,0,56,56,7,1,23,69199,1,180,2022-02-10_19h03.48.293,orientation adjustment 1,2021.2.3,MacIntel,60.0024001,,,,,,,
,,,,,,,,,,,,,,,,,,,,,,-38.33333333,-58,20,75,-70.33333333,12.33333333,12.33333333,-160.3333333,-0.167161458,-0.404175347,1,0,0,1.9171,submitButton,-0.167161458,-0.405286458,0,0,0,0,57,57,42,1,58,69199,1,180,2022-02-10_19h03.48.293,orientation adjustment 1,2021.2.3,MacIntel,60.0024001,,,,,,,
,,,,,,,,,,,,,,,,,,,,,,43.88888889,-59,20,75,-29.11111111,29.88888889,29.88888889,-119.1111111,0.408298611,-0.289236111,1,0,0,1.1152,submitButton,-0.189140625,-0.424635417,0,0,0,0,58,58,43,1,59,69199,1,180,2022-02-10_19h03.48.293,orientation adjustment 1,2021.2.3,MacIntel,60.0024001,,,,,,,
,,,,,,,,,,,,,,,,,,,,,,53.88888889,44,20,75,125.8888889,81.88888889,81.88888889,35.88888889,0.216436632,-0.292773438,1,0,0,2.5172,submitButton,0.26858941,-0.389982639,1,0,0,0,59,59,28,1,44,69199,1,180,2022-02-10_19h03.48.293,orientation adjustment 1,2021.2.3,MacIntel,60.0024001,pause_continueButton,,,,,,
,,,,,,,,,,,,,,,,,,,,,,-59.44444444,70,20,75,59.55555556,10.44444444,10.44444444,-30.44444444,0.221258681,-0.285407986,1,0,0,0.083,submitButton,0.259205729,-0.237586806,0,0,0,1,0,60,54,1,70,69199,1,180,2022-02-10_19h03.48.293,orientation adjustment 1,2021.2.3,MacIntel,60.0024001,,,,,,,
,,,,,,,,,,,,,,,,,,,,,,57.77777778,22,20,75,14.77777778,7.222222222,7.222222222,-75.22222222,0.37983941,-0.292434896,1,0,0,0.7169,submitButton,-0.177144097,-0.418602431,0,0,0,1,1,61,6,1,22,69199,1,180,2022-02-10_19h03.48.293,orientation adjustment 1,2021.2.3,MacIntel,60.0024001,,,,,,,
,,,,,,,,,,,,,,,,,,,,,,-38.33333333,36,20,75,19.66666667,16.33333333,16.33333333,-70.33333333,0.42750434,-0.291961806,1,0,0,1.0838,submitButton,-0.210585937,-0.41266059,0,0,0,1,2,62,20,1,36,69199,1,180,2022-02-10_19h03.48.293,orientation adjustment 1,2021.2.3,MacIntel,60.0024001,,,,,,,
,,,,,,,,,,,,,,,,,,,,,,23.33333333,-42,20,75,-23.66666667,18.33333333,18.33333333,-113.6666667,0.396236979,-0.308532986,1,0,0,0.0159,submitButton,-0.191419271,-0.406727431,0,0,0,1,3,63,26,1,42,69199,1,180,2022-02-10_19h03.48.293,orientation adjustment 1,2021.2.3,MacIntel,60.0024001,,,,,,,
,,,,,,,,,,,,,,,,,,,,,,-71.11111111,-72,20,75,-235.1111111,16.88888889,16.88888889,-325.1111111,0.421263021,-0.305130208,1,0,0,1.9333,submitButton,-0.153207465,-0.41047309,0,0,0,1,4,64,56,1,72,69199,1,180,2022-02-10_19h03.48.293,orientation adjustment 1,2021.2.3,MacIntel,60.0024001,,,,,,,
,,,,,,,,,,,,,,,,,,,,,,-43.88888889,-47,20,75,-58.88888889,11.88888889,11.88888889,-148.8888889,-0.127534722,-0.410920139,1,0,0,1.0504,submitButton,-0.127534722,-0.410920139,0,0,0,1,5,65,31,1,47,69199,1,180,2022-02-10_19h03.48.293,orientation adjustment 1,2021.2.3,MacIntel,60.0024001,,,,,,,
,,,,,,,,,,,,,,,,,,,,,,-38.33333333,31,20,75,28.66666667,2.333333333,2.333333333,-61.33333333,0.183567708,-0.311475694,1,0,0,0.2165,submitButton,0.083038194,-0.315499132,0,0,0,1,6,66,15,1,31,69199,1,180,2022-02-10_19h03.48.293,orientation adjustment 1,2021.2.3,MacIntel,60.0024001,,,,,,,
,,,,,,,,,,,,,,,,,,,,,,-36.11111111,-16,20,75,-30.11111111,14.11111111,14.11111111,-120.1111111,-0.142335069,-0.405998264,1,0,0,0.7992,submitButton,-0.142335069,-0.405998264,0,0,0,1,7,67,0,1,16,69199,1,180,2022-02-10_19h03.48.293,orientation adjustment 1,2021.2.3,MacIntel,60.0024001,,,,,,,
,,,,,,,,,,,,,,,,,,,,,,-42.77777778,-58,20,75,-78.77777778,20.77777778,20.77777778,-168.7777778,-0.143784722,-0.418229167,1,0,0,1.1508,submitButton,-0.143784722,-0.417673611,0,0,0,1,8,68,42,1,58,69199,1,180,2022-02-10_19h03.48.293,orientation adjustment 1,2021.2.3,MacIntel,60.0024001,,,,,,,
,,,,,,,,,,,,,,,,,,,,,,-66.66666667,-73,20,75,-230.6666667,22.33333333,22.33333333,-320.6666667,0.369626736,-0.315503472,1,0,0,0.0843,submitButton,-0.234861111,-0.422122396,0,0,0,1,9,69,57,1,73,69199,1,180,2022-02-10_19h03.48.293,orientation adjustment 1,2021.2.3,MacIntel,60.0024001,,,,,,,
,,,,,,,,,,,,,,,,,,,,,,-63.33333333,27,20,75,17.66666667,9.333333333,9.333333333,-72.33333333,-0.165299479,-0.415907118,1,0,0,1.6012,submitButton,-0.165299479,-0.416462674,0,0,0,1,10,70,11,1,27,69199,1,180,2022-02-10_19h03.48.293,orientation adjustment 1,2021.2.3,MacIntel,60.0024001,,,,,,,
,,,,,,,,,,,,,,,,,,,,,,-66.11111111,57,20,75,57.88888889,0.888888889,0.888888889,-32.11111111,-0.196675347,-0.44766059,1,0,0,1.2162,submitButton,-0.196675347,-0.413971354,0,0,0,1,11,71,41,1,57,69199,1,180,2022-02-10_19h03.48.293,orientation adjustment 1,2021.2.3,MacIntel,60.0024001,,,,,,,
,,,,,,,,,,,,,,,,,,,,,,-43.33333333,-53,20,75,-70.33333333,17.33333333,17.33333333,-160.3333333,-0.199197049,-0.420768229,1,0,0,1.0831,submitButton,-0.199197049,-0.420212674,0,0,0,1,12,72,37,1,53,69199,1,180,2022-02-10_19h03.48.293,orientation adjustment 1,2021.2.3,MacIntel,60.0024001,,,,,,,
,,,,,,,,,,,,,,,,,,,,,,-66.11111111,-52,20,75,-229.1111111,2.888888889,2.888888889,-319.1111111,0.402834201,-0.303615451,1,0,0,0.5328,submitButton,-0.146041667,-0.399101563,0,0,0,1,13,73,36,1,52,69199,1,180,2022-02-10_19h03.48.293,orientation adjustment 1,2021.2.3,MacIntel,60.0024001,,,,,,,
,,,,,,,,,,,,,,,,,,,,,,28.88888889,61,20,75,69.88888889,8.888888889,8.888888889,-20.11111111,0.388311632,-0.301601562,1,0,0,0.1491,submitButton,0.25702691,-0.397009549,1,0,0,1,14,74,45,1,61,69199,1,180,2022-02-10_19h03.48.293,orientation adjustment 1,2021.2.3,MacIntel,60.0024001,pause_continueButton,,,,,,
,,,,,,,,,,,,,,,,,,,,,,-45,75,20,75,66,9,9,-24,0.201163194,-0.324431424,1,0,0,0.2662,submitButton,0.286914063,-0.176137153,0,0,0,1,15,75,59,1,75,69199,1,180,2022-02-10_19h03.48.293,orientation adjustment 1,2021.2.3,MacIntel,60.0024001,,,,,,,
,,,,,,,,,,,,,,,,,,,,,,-65.55555556,-62,20,75,-231.5555556,10.44444444,10.44444444,-321.5555556,0.383111979,-0.299570312,1,0,0,1.7005,submitButton,-0.168415799,-0.396592882,0,0,0,1,16,76,46,1,62,69199,1,180,2022-02-10_19h03.48.293,orientation adjustment 1,2021.2.3,MacIntel,60.0024001,,,,,,,
,,,,,,,,,,,,,,,,,,,,,,-64.44444444,51,20,75,48.55555556,2.444444444,2.444444444,-41.44444444,0.200564236,-0.314652778,1,0,0,0.6833,submitButton,-0.240863715,-0.396471354,0,0,0,1,17,77,35,1,51,69199,1,180,2022-02-10_19h03.48.293,orientation adjustment 1,2021.2.3,MacIntel,60.0024001,,,,,,,
,,,,,,,,,,,,,,,,,,,,,,28.88888889,-46,20,75,-28.11111111,17.88888889,17.88888889,-118.1111111,0.258107639,-0.29375434,1,0,0,0.9339,submitButton,-0.136888021,-0.413927951,0,0,0,1,18,78,30,1,46,69199,1,180,2022-02-10_19h03.48.293,orientation adjustment 1,2021.2.3,MacIntel,60.0024001,,,,,,,
,,,,,,,,,,,,,,,,,,,,,,-65,-33,20,75,-201,12,12,-291,-0.135828993,-0.385299479,1,0,0,2.2328,submitButton,-0.135828993,-0.385299479,0,0,0,1,19,79,17,1,33,69199,1,180,2022-02-10_19h03.48.293,orientation adjustment 1,2021.2.3,MacIntel,60.0024001,,,,,,,
,,,,,,,,,,,,,,,,,,,,,,-30,37,20,75,23,14,14,-67,-0.170646701,-0.401167535,1,0,0,0.4666,submitButton,-0.170646701,-0.40172309,0,0,0,1,20,80,21,1,37,69199,1,180,2022-02-10_19h03.48.293,orientation adjustment 1,2021.2.3,MacIntel,60.0024001,,,,,,,
,,,,,,,,,,,,,,,,,,,,,,-67.77777778,-67,20,75,-243.7777778,3.222222222,3.222222222,-333.7777778,0.421705729,-0.310807292,1,0,0,1.4831,submitButton,-0.157934028,-0.400564236,0,0,0,1,21,81,51,1,67,69199,1,180,2022-02-10_19h03.48.293,orientation adjustment 1,2021.2.3,MacIntel,60.0024001,,,,,,,
,,,,,,,,,,,,,,,,,,,,,,46.11111111,-17,20,75,-8.888888889,8.111111111,8.111111111,-98.88888889,-0.248602431,-0.429084201,1,0,0,1.3498,submitButton,-0.266219618,-0.39327691,0,0,0,1,22,82,1,1,17,69199,1,180,2022-02-10_19h03.48.293,orientation adjustment 1,2021.2.3,MacIntel,60.0024001,,,,,,,
,,,,,,,,,,,,,,,,,,,,,,-68.33333333,-38,20,75,-63.33333333,25.33333333,25.33333333,-153.3333333,0.220325521,-0.305855035,1,0,0,0.2838,submitButton,-0.214149306,-0.388645833,0,0,0,1,23,83,22,1,38,69199,1,180,2022-02-10_19h03.48.293,orientation adjustment 1,2021.2.3,MacIntel,60.0024001,,,,,,,
,,,,,,,,,,,,,,,,,,,,,,-47.22222222,28,20,75,19.77777778,8.222222222,8.222222222,-70.22222222,0.187647569,-0.321445313,1,0,0,0.3332,submitButton,-0.13077691,-0.405247396,0,0,0,1,24,84,12,1,28,69199,1,180,2022-02-10_19h03.48.293,orientation adjustment 1,2021.2.3,MacIntel,60.0024001,,,,,,,
,,,,,,,,,,,,,,,,,,,,,,21.66666667,-71,20,75,-71.33333333,0.333333333,0.333333333,-161.3333333,0.380529514,-0.295299479,1,0,0,0.4157,submitButton,-0.145642361,-0.407795139,0,0,0,1,25,85,55,1,71,69199,1,180,2022-02-10_19h03.48.293,orientation adjustment 1,2021.2.3,MacIntel,60.0024001,,,,,,,
,,,,,,,,,,,,,,,,,,,,,,-60,49,20,75,30,19,19,-60,-0.149288194,-0.392582465,1,0,0,1.0336,submitButton,-0.149288194,-0.393138021,0,0,0,1,26,86,33,1,49,69199,1,180,2022-02-10_19h03.48.293,orientation adjustment 1,2021.2.3,MacIntel,60.0024001,,,,,,,
,,,,,,,,,,,,,,,,,,,,,,-37.77777778,41,20,75,21.22222222,19.77777778,19.77777778,-68.77777778,-0.148172743,-0.411137153,1,0,0,0.7498,submitButton,-0.148172743,-0.411137153,0,0,0,1,27,87,25,1,41,69199,1,180,2022-02-10_19h03.48.293,orientation adjustment 1,2021.2.3,MacIntel,60.0024001,,,,,,,
,,,,,,,,,,,,,,,,,,,,,,67.77777778,34,20,75,235.7777778,21.77777778,21.77777778,145.7777778,0.155646701,-0.34828559,1,0,0,16.2836,submitButton,-0.206119792,-0.408420139,0,0,0,1,28,88,18,1,34,69199,1,180,2022-02-10_19h03.48.293,orientation adjustment 1,2021.2.3,MacIntel,60.0024001,,,,,,,
,,,,,,,,,,,,,,,,,,,,,,-69.44444444,29,20,75,15.55555556,13.44444444,13.44444444,-74.44444444,-0.188324653,-0.399822049,1,0,0,1.6003,submitButton,0.285915799,-0.384539931,1,0,0,1,29,89,13,1,29,69199,1,180,2022-02-10_19h03.48.293,orientation adjustment 1,2021.2.3,MacIntel,60.0024001,pause_continueButton,,,,,,
,,,,,,,,,,,,,,,,,,,,,,70.55555556,-54,20,75,-46.44444444,7.555555556,7.555555556,-136.4444444,-0.183411458,-0.373693576,1,0,0,1.3833,submitButton,-0.183411458,-0.375086806,0,0,0,1,30,90,38,1,54,69199,1,180,2022-02-10_19h03.48.293,orientation adjustment 1,2021.2.3,MacIntel,60.0024001,,,,,,,
,,,,,,,,,,,,,,,,,,,,,,58.88888889,-35,20,75,-31.11111111,3.888888889,3.888888889,-121.1111111,-0.136323785,-0.414670139,1,0,0,1.3827,submitButton,0.298307292,-0.316345486,0,0,0,1,31,91,19,1,35,69199,1,180,2022-02-10_19h03.48.293,orientation adjustment 1,2021.2.3,MacIntel,60.0024001,,,,,,,
,,,,,,,,,,,,,,,,,,,,,,72.22222222,43,20,75,221.2222222,1.777777778,1.777777778,131.2222222,-0.12265191,-0.399565972,1,0,0,1.9501,submitButton,0.213211806,-0.308368056,0,0,0,1,32,92,27,1,43,69199,1,180,2022-02-10_19h03.48.293,orientation adjustment 1,2021.2.3,MacIntel,60.0024001,,,,,,,
,,,,,,,,,,,,,,,,,,,,,,-63.33333333,-19,20,75,-29.33333333,10.33333333,10.33333333,-119.3333333,0.230199653,-0.309023437,1,0,0,0.0338,submitButton,-0.165603299,-0.396775174,0,0,0,1,33,93,3,1,19,69199,1,180,2022-02-10_19h03.48.293,orientation adjustment 1,2021.2.3,MacIntel,60.0024001,,,,,,,
,,,,,,,,,,,,,,,,,,,,,,42.22222222,30,20,75,44.22222222,14.22222222,14.22222222,-45.77777778,0.402083333,-0.316653646,1,0,0,0.6669,submitButton,-0.253246528,-0.411605903,0,0,0,1,34,94,14,1,30,69199,1,180,2022-02-10_19h03.48.293,orientation adjustment 1,2021.2.3,MacIntel,60.0024001,,,,,,,
,,,,,,,,,,,,,,,,,,,,,,53.88888889,24,20,75,24.88888889,0.888888889,0.888888889,-65.11111111,0.406028646,-0.28953125,1,0,0,0.6827,submitButton,-0.13202691,-0.394184028,0,0,0,1,35,95,8,1,24,69199,1,180,2022-02-10_19h03.48.293,orientation adjustment 1,2021.2.3,MacIntel,60.0024001,,,,,,,
,,,,,,,,,,,,,,,,,,,,,,75,23,20,75,201,2,2,111,-0.132795139,-0.392730035,1,0,0,2.417,submitButton,-0.134461806,-0.392730035,0,0,0,1,36,96,7,1,23,69199,1,180,2022-02-10_19h03.48.293,orientation adjustment 1,2021.2.3,MacIntel,60.0024001,,,,,,,
,,,,,,,,,,,,,,,,,,,,,,-52.22222222,-56,20,75,-67.22222222,11.22222222,11.22222222,-157.2222222,0.178450521,-0.296671007,1,0,0,0.0495,submitButton,-0.2265625,-0.405082465,0,0,0,1,37,97,40,1,56,69199,1,180,2022-02-10_19h03.48.293,orientation adjustment 1,2021.2.3,MacIntel,60.0024001,,,,,,,
,,,,,,,,,,,,,,,,,,,,,,44.44444444,74,20,75,245.4444444,8.555555556,8.555555556,155.4444444,-0.184453125,-0.424006076,1,0,0,2.4838,submitButton,-0.184453125,-0.424561632,0,0,0,1,38,98,58,1,74,69199,1,180,2022-02-10_19h03.48.293,orientation adjustment 1,2021.2.3,MacIntel,60.0024001,,,,,,,
,,,,,,,,,,,,,,,,,,,,,,-44.44444444,-20,20,75,-6.444444444,13.55555556,13.55555556,-96.44444444,0.188706597,-0.331276042,1,0,0,0.7505,submitButton,-0.221080729,-0.391076389,0,0,0,1,39,99,4,1,20,69199,1,180,2022-02-10_19h03.48.293,orientation adjustment 1,2021.2.3,MacIntel,60.0024001,,,,,,,
,,,,,,,,,,,,,,,,,,,,,,-56.66666667,64,20,75,70.33333333,6.333333333,6.333333333,-19.66666667,-0.179036458,-0.424301215,1,0,0,1.4845,submitButton,-0.177369792,-0.424301215,0,0,0,1,40,100,48,1,64,69199,1,180,2022-02-10_19h03.48.293,orientation adjustment 1,2021.2.3,MacIntel,60.0024001,,,,,,,
,,,,,,,,,,,,,,,,,,,,,,-35.55555556,59,20,75,63.44444444,4.444444444,4.444444444,-26.55555556,-0.177860243,-0.413389757,1,0,0,1.1009,submitButton,-0.177860243,-0.413389757,0,0,0,1,41,101,43,1,59,69199,1,180,2022-02-10_19h03.48.293,orientation adjustment 1,2021.2.3,MacIntel,60.0024001,,,,,,,
,,,,,,,,,,,,,,,,,,,,,,50.55555556,50,20,75,257.5555556,27.55555556,27.55555556,167.5555556,0.200494792,-0.288572049,1,0,0,2.2659,submitButton,-0.19297309,-0.404895833,0,0,0,1,42,102,34,1,50,69199,1,180,2022-02-10_19h03.48.293,orientation adjustment 1,2021.2.3,MacIntel,60.0024001,,,,,,,
,,,,,,,,,,,,,,,,,,,,,,-59.44444444,-63,20,75,-54.44444444,8.555555556,8.555555556,-144.4444444,0.224657118,-0.333463542,1,0,0,0.1163,submitButton,-0.123498264,-0.407078993,0,0,0,1,43,103,47,1,63,69199,1,180,2022-02-10_19h03.48.293,orientation adjustment 1,2021.2.3,MacIntel,60.0024001,,,,,,,
,,,,,,,,,,,,,,,,,,,,,,-62.77777778,66,20,75,-126.7777778,12.77777778,12.77777778,-216.7777778,0.407734375,-0.302690972,1,0,0,2.1992,submitButton,0.232695313,-0.419275174,1,0,0,1,44,104,50,1,66,69199,1,180,2022-02-10_19h03.48.293,orientation adjustment 1,2021.2.3,MacIntel,60.0024001,pause_continueButton,,,,,,
,,,,,,,,,,,,,,,,,,,,,,-66.66666667,-39,20,75,-29.66666667,9.333333333,9.333333333,-119.6666667,0.212365451,-0.329201389,1,0,0,1.4332,submitButton,0.127122396,-0.340247396,0,0,0,1,45,105,23,1,39,69199,1,180,2022-02-10_19h03.48.293,orientation adjustment 1,2021.2.3,MacIntel,60.0024001,,,,,,,
,,,,,,,,,,,,,,,,,,,,,,-31.66666667,32,20,75,22.33333333,9.666666667,9.666666667,-67.66666667,-0.140273437,-0.407738715,1,0,0,0.6329,submitButton,-0.140273437,-0.407738715,0,0,0,1,46,106,16,1,32,69199,1,180,2022-02-10_19h03.48.293,orientation adjustment 1,2021.2.3,MacIntel,60.0024001,,,,,,,
,,,,,,,,,,,,,,,,,,,,,,-52.77777778,-65,20,75,-62.77777778,2.222222222,2.222222222,-152.7777778,0.198537326,-0.322617188,1,0,0,0.2336,submitButton,-0.204175347,-0.418315972,0,0,0,1,47,107,49,1,65,69199,1,180,2022-02-10_19h03.48.293,orientation adjustment 1,2021.2.3,MacIntel,60.0024001,,,,,,,
,,,,,,,,,,,,,,,,,,,,,,32.77777778,60,20,75,50.77777778,9.222222222,9.222222222,-39.22222222,0.381484375,-0.307769097,1,0,0,0.5495,submitButton,-0.206627604,-0.34906684,0,0,0,1,48,108,44,1,60,69199,1,180,2022-02-10_19h03.48.293,orientation adjustment 1,2021.2.3,MacIntel,60.0024001,,,,,,,
,,,,,,,,,,,,,,,,,,,,,,-35.55555556,-44,20,75,-60.55555556,16.55555556,16.55555556,-150.5555556,-0.114635417,-0.389084201,1,0,0,0.6996,submitButton,-0.114635417,-0.389639757,0,0,0,1,49,109,28,1,44,69199,1,180,2022-02-10_19h03.48.293,orientation adjustment 1,2021.2.3,MacIntel,60.0024001,,,,,,,
,,,,,,,,,,,,,,,,,,,,,,-38.33333333,40,20,75,36.66666667,3.333333333,3.333333333,-53.33333333,0.161571181,-0.31468316,1,0,0,0.0332,submitButton,-0.200247396,-0.415711806,0,0,0,1,50,110,24,1,40,69199,1,180,2022-02-10_19h03.48.293,orientation adjustment 1,2021.2.3,MacIntel,60.0024001,,,,,,,
,,,,,,,,,,,,,,,,,,,,,,-55,48,20,75,32,16,16,-58,-0.130238715,-0.377717014,1,0,0,0.9007,submitButton,0.189049479,-0.303368056,0,0,0,1,51,111,32,1,48,69199,1,180,2022-02-10_19h03.48.293,orientation adjustment 1,2021.2.3,MacIntel,60.0024001,,,,,,,
,,,,,,,,,,,,,,,,,,,,,,52.77777778,-26,20,75,-3.222222222,22.77777778,22.77777778,-93.22222222,0.403880208,-0.315985243,1,0,0,0.9002,submitButton,-0.270095486,-0.411375868,0,0,0,1,52,112,10,1,26,69199,1,180,2022-02-10_19h03.48.293,orientation adjustment 1,2021.2.3,MacIntel,60.0024001,,,,,,,
,,,,,,,,,,,,,,,,,,,,,,-71.11111111,-68,20,75,-218.1111111,29.88888889,29.88888889,-308.1111111,0.359388021,-0.290403646,1,0,0,0.7161,submitButton,0.294678819,-0.274205729,0,0,0,1,53,113,52,1,68,69199,1,180,2022-02-10_19h03.48.293,orientation adjustment 1,2021.2.3,MacIntel,60.0024001,,,,,,,
,,,,,,,,,,,,,,,,,,,,,,38.88888889,-69,20,75,-61.11111111,7.888888889,7.888888889,-151.1111111,-0.135277778,-0.412738715,1,0,0,0.8188,submitButton,0.142643229,-0.264557292,0,0,0,1,54,114,53,1,69,69199,1,180,2022-02-10_19h03.48.293,orientation adjustment 1,2021.2.3,MacIntel,60.0024001,,,,,,,
,,,,,,,,,,,,,,,,,,,,,,75,-45,20,75,-32,13,13,-122,-0.177443576,-0.410603299,1,0,0,1.0009,submitButton,0.257243924,-0.346280382,0,0,0,1,55,115,29,1,45,69199,1,180,2022-02-10_19h03.48.293,orientation adjustment 1,2021.2.3,MacIntel,60.0024001,,,,,,,
,,,,,,,,,,,,,,,,,,,,,,33.88888889,-55,20,75,-51.11111111,3.888888889,3.888888889,-141.1111111,-0.157278646,-0.430811632,1,0,0,0.6338,submitButton,0.416705729,-0.259618056,0,0,0,1,56,116,39,1,55,69199,1,180,2022-02-10_19h03.48.293,orientation adjustment 1,2021.2.3,MacIntel,60.0024001,,,,,,,
,,,,,,,,,,,,,,,,,,,,,,-64.44444444,-18,20,75,-5.444444444,12.55555556,12.55555556,-95.44444444,0.176666667,-0.294926215,1,0,0,1.1168,submitButton,0.205364583,-0.270633681,0,0,0,1,57,117,2,1,18,69199,1,180,2022-02-10_19h03.48.293,orientation adjustment 1,2021.2.3,MacIntel,60.0024001,,,,,,,
,,,,,,,,,,,,,,,,,,,,,,-61.66666667,21,20,75,25.33333333,4.333333333,4.333333333,-64.66666667,-0.179027778,-0.415742188,1,0,0,1.183,submitButton,0.154014757,-0.321614583,0,0,0,1,58,118,5,1,21,69199,1,180,2022-02-10_19h03.48.293,orientation adjustment 1,2021.2.3,MacIntel,60.0024001,,,,,,,
,,,,,,,,,,,,,,,,,,,,,,-57.77777778,25,20,75,31.22222222,6.222222222,6.222222222,-58.77777778,-0.180798611,-0.404253472,1,0,0,1.1836,submitButton,0.323576389,-0.406618924,1,0,0,1,59,119,9,1,25,69199,1,180,2022-02-10_19h03.48.293,orientation adjustment 1,2021.2.3,MacIntel,60.0024001,pause_continueButton,,,,,,
,,,,,,,,,,,,,,,,,,,,,,30,65,20,75,75,10,10,-15,0.346974826,-0.291796875,1,0,0,0.1661,submitButton,0.117404514,-0.333342014,0,0,0,2,0,120,49,1,65,69199,1,180,2022-02-10_19h03.48.293,orientation adjustment 1,2021.2.3,MacIntel,60.0024001,,,,,,,
,,,,,,,,,,,,,,,,,,,,,,-43.88888889,-33,20,75,-35.88888889,2.888888889,2.888888889,-125.8888889,-0.193103299,-0.393007812,1,0,0,0.9496,submitButton,0.298311632,-0.17483941,0,0,0,2,1,121,17,1,33,69199,1,180,2022-02-10_19h03.48.293,orientation adjustment 1,2021.2.3,MacIntel,60.0024001,,,,,,,
,,,,,,,,,,,,,,,,,,,,,,52.77777778,-58,20,75,-51.22222222,6.777777778,6.777777778,-141.2222222,0.406315104,-0.296115451,1,0,0,0.8662,submitButton,-0.127617188,-0.398767361,0,0,0,2,2,122,42,1,58,69199,1,180,2022-02-10_19h03.48.293,orientation adjustment 1,2021.2.3,MacIntel,60.0024001,,,,,,,
,,,,,,,,,,,,,,,,,,,,,,-30,48,20,75,43,5,5,-47,-0.111822917,-0.37391059,1,0,0,0.6659,submitButton,0.213033854,-0.332296007,0,0,0,2,3,123,32,1,48,69199,1,180,2022-02-10_19h03.48.293,orientation adjustment 1,2021.2.3,MacIntel,60.0024001,,,,,,,
,,,,,,,,,,,,,,,,,,,,,,-45,36,20,75,25,11,11,-65,-0.139366319,-0.398945312,1,0,0,1.116,submitButton,-0.139366319,-0.399500868,0,0,0,2,4,124,20,1,36,69199,1,180,2022-02-10_19h03.48.293,orientation adjustment 1,2021.2.3,MacIntel,60.0024001,,,,,,,
,,,,,,,,,,,,,,,,,,,,,,-38.88888889,-56,20,75,-67.88888889,11.88888889,11.88888889,-157.8888889,0.221158854,-0.299878472,1,0,0,0.0998,submitButton,-0.136085069,-0.377135417,0,0,0,2,5,125,40,1,56,69199,1,180,2022-02-10_19h03.48.293,orientation adjustment 1,2021.2.3,MacIntel,60.0024001,,,,,,,
,,,,,,,,,,,,,,,,,,,,,,-71.11111111,-26,20,75,-33.11111111,7.111111111,7.111111111,-123.1111111,0.202825521,-0.315655382,1,0,0,0.9998,submitButton,0.35891059,-0.307855903,0,0,0,2,6,126,10,1,26,69199,1,180,2022-02-10_19h03.48.293,orientation adjustment 1,2021.2.3,MacIntel,60.0024001,,,,,,,
,,,,,,,,,,,,,,,,,,,,,,59.44444444,-46,20,75,-41.55555556,4.444444444,4.444444444,-131.5555556,-0.17719184,-0.430368924,1,0,0,1.2164,submitButton,-0.187925347,-0.397803819,0,0,0,2,7,127,30,1,46,69199,1,180,2022-02-10_19h03.48.293,orientation adjustment 1,2021.2.3,MacIntel,60.0024001,,,,,,,
,,,,,,,,,,,,,,,,,,,,,,-62.22222222,-57,20,75,-63.22222222,6.222222222,6.222222222,-153.2222222,0.221757813,-0.31359809,1,0,0,0.1166,submitButton,0.177374132,-0.279322917,0,0,0,2,8,128,41,1,57,69199,1,180,2022-02-10_19h03.48.293,orientation adjustment 1,2021.2.3,MacIntel,60.0024001,,,,,,,
,,,,,,,,,,,,,,,,,,,,,,-23.88888889,-22,20,75,-16.88888889,5.111111111,5.111111111,-106.8888889,-0.133085938,-0.434396701,1,0,0,0.7163,submitButton,0.189518229,-0.261280382,0,0,0,2,9,129,6,1,22,69199,1,180,2022-02-10_19h03.48.293,orientation adjustment 1,2021.2.3,MacIntel,60.0024001,,,,,,,
,,,,,,,,,,,,,,,,,,,,,,-57.22222222,-25,20,75,1.777777778,26.77777778,26.77777778,-88.22222222,0.226488715,-0.307417535,1,0,0,1.0161,submitButton,0.280073785,-0.297296007,0,0,0,2,10,130,9,1,25,69199,1,180,2022-02-10_19h03.48.293,orientation adjustment 1,2021.2.3,MacIntel,60.0024001,,,,,,,
,,,,,,,,,,,,,,,,,,,,,,-41.11111111,55,20,75,60.88888889,5.888888889,5.888888889,-29.11111111,-0.145815972,-0.392881944,1,0,0,0.949,submitButton,0.260625,-0.291831597,0,0,0,2,11,131,39,1,55,69199,1,180,2022-02-10_19h03.48.293,orientation adjustment 1,2021.2.3,MacIntel,60.0024001,,,,,,,
,,,,,,,,,,,,,,,,,,,,,,25,-44,20,75,-52,8,8,-142,-0.159761285,-0.434427083,1,0,0,0.5511,submitButton,-0.036085069,-0.341480035,0,0,0,2,12,132,28,1,44,69199,1,180,2022-02-10_19h03.48.293,orientation adjustment 1,2021.2.3,MacIntel,60.0024001,,,,,,,
,,,,,,,,,,,,,,,,,,,,,,-63.88888889,-17,20,75,-18.88888889,1.888888889,1.888888889,-108.8888889,-0.161831597,-0.400690104,1,0,0,1.2836,submitButton,0.052356771,-0.315525174,0,0,0,2,13,133,1,1,17,69199,1,180,2022-02-10_19h03.48.293,orientation adjustment 1,2021.2.3,MacIntel,60.0024001,,,,,,,
,,,,,,,,,,,,,,,,,,,,,,64.44444444,62,20,75,243.4444444,1.444444444,1.444444444,153.4444444,-0.193111979,-0.388337674,1,0,0,2.0336,submitButton,0.369513889,-0.3946875,1,0,0,2,14,134,46,1,62,69199,1,180,2022-02-10_19h03.48.293,orientation adjustment 1,2021.2.3,MacIntel,60.0024001,pause_continueButton,,,,,,
,,,,,,,,,,,,,,,,,,,,,,37.22222222,-67,20,75,-77.77777778,10.77777778,10.77777778,-167.7777778,-0.077265625,-0.397230903,1,0,0,0.9501,submitButton,0.243715278,-0.227256944,0,0,0,2,15,135,51,1,67,69199,1,180,2022-02-10_19h03.48.293,orientation adjustment 1,2021.2.3,MacIntel,60.0024001,,,,,,,
,,,,,,,,,,,,,,,,,,,,,,51.66666667,27,20,75,34.66666667,7.666666667,7.666666667,-55.33333333,0.407000868,-0.307065972,1,0,0,0.1511,submitButton,0.202352431,-0.254661458,0,0,0,2,16,136,11,1,27,69199,1,180,2022-02-10_19h03.48.293,orientation adjustment 1,2021.2.3,MacIntel,60.0024001,,,,,,,
,,,,,,,,,,,,,,,,,,,,,,38.88888889,-50,20,75,-50.11111111,0.111111111,0.111111111,-140.1111111,-0.14640625,-0.397048611,1,0,0,0.7842,submitButton,0.234149306,-0.370755208,0,0,0,2,17,137,34,1,50,69199,1,180,2022-02-10_19h03.48.293,orientation adjustment 1,2021.2.3,MacIntel,60.0024001,,,,,,,
,,,,,,,,,,,,,,,,,,,,,,-43.88888889,38,20,75,40.11111111,2.111111111,2.111111111,-49.88888889,-0.113836806,-0.398394097,1,0,0,0.683,submitButton,0.204127604,-0.343546007,0,0,0,2,18,138,22,1,38,69199,1,180,2022-02-10_19h03.48.293,orientation adjustment 1,2021.2.3,MacIntel,60.0024001,,,,,,,
,,,,,,,,,,,,,,,,,,,,,,61.11111111,-71,20,75,-68.88888889,2.111111111,2.111111111,-158.8888889,-0.122144097,-0.398897569,1,0,0,0.9667,submitButton,0.386284722,-0.266892361,0,0,0,2,19,139,55,1,71,69199,1,180,2022-02-10_19h03.48.293,orientation adjustment 1,2021.2.3,MacIntel,60.0024001,,,,,,,
,,,,,,,,,,,,,,,,,,,,,,-58.88888889,66,20,75,72.11111111,6.111111111,6.111111111,-17.88888889,-0.145203993,-0.406210937,1,0,0,1.0823,submitButton,0.25547309,-0.316692708,0,0,0,2,20,140,50,1,66,69199,1,180,2022-02-10_19h03.48.293,orientation adjustment 1,2021.2.3,MacIntel,60.0024001,,,,,,,
,,,,,,,,,,,,,,,,,,,,,,28.33333333,75,20,75,76.33333333,1.333333333,1.333333333,-13.66666667,0.405824653,-0.300711806,1,0,0,0.1169,submitButton,0.224544271,-0.292248264,0,0,0,2,21,141,59,1,75,69199,1,180,2022-02-10_19h03.48.293,orientation adjustment 1,2021.2.3,MacIntel,60.0024001,,,,,,,
,,,,,,,,,,,,,,,,,,,,,,27.77777778,60,20,75,59.77777778,0.222222222,0.222222222,-30.22222222,-0.166046007,-0.380212674,1,0,0,0.7499,submitButton,0.339075521,-0.282061632,0,0,0,2,22,142,44,1,60,69199,1,180,2022-02-10_19h03.48.293,orientation adjustment 1,2021.2.3,MacIntel,60.0024001,,,,,,,
,,,,,,,,,,,,,,,,,,,,,,57.22222222,52,20,75,39.22222222,12.77777778,12.77777778,-50.77777778,-0.280047743,-0.407174479,1,0,0,1.6493,submitButton,0.38515191,-0.303550347,0,0,0,2,23,143,36,1,52,69199,1,180,2022-02-10_19h03.48.293,orientation adjustment 1,2021.2.3,MacIntel,60.0024001,,,,,,,
,,,,,,,,,,,,,,,,,,,,,,72.77777778,32,20,75,198.7777778,13.22222222,13.22222222,108.7777778,0.200394965,-0.304522569,1,0,0,0.2681,submitButton,0.29766059,-0.316067708,0,0,0,2,24,144,16,1,32,69199,1,180,2022-02-10_19h03.48.293,orientation adjustment 1,2021.2.3,MacIntel,60.0024001,,,,,,,
,,,,,,,,,,,,,,,,,,,,,,-58.33333333,29,20,75,13.66666667,15.33333333,15.33333333,-76.33333333,-0.168793403,-0.410386285,1,0,0,1.2004,submitButton,0.341775174,-0.354722222,0,0,0,2,25,145,13,1,29,69199,1,180,2022-02-10_19h03.48.293,orientation adjustment 1,2021.2.3,MacIntel,60.0024001,,,,,,,
,,,,,,,,,,,,,,,,,,,,,,-40.55555556,-24,20,75,-14.55555556,9.444444444,9.444444444,-104.5555556,-0.153081597,-0.409388021,1,0,0,1.2664,submitButton,0.20280816,-0.35655816,0,0,0,2,26,146,8,1,24,69199,1,180,2022-02-10_19h03.48.293,orientation adjustment 1,2021.2.3,MacIntel,60.0024001,,,,,,,
,,,,,,,,,,,,,,,,,,,,,,-62.22222222,40,20,75,35.77777778,4.222222222,4.222222222,-54.22222222,0.414162326,-0.289131944,1,0,0,1.3166,submitButton,0.281358507,-0.271345486,0,0,0,2,27,147,24,1,40,69199,1,180,2022-02-10_19h03.48.293,orientation adjustment 1,2021.2.3,MacIntel,60.0024001,,,,,,,
,,,,,,,,,,,,,,,,,,,,,,73.88888889,16,20,75,186.8888889,9.111111111,9.111111111,96.88888889,0.221232639,-0.290494792,1,0,0,0.0168,submitButton,0.275499132,-0.350286458,0,0,0,2,28,148,0,1,16,69199,1,180,2022-02-10_19h03.48.293,orientation adjustment 1,2021.2.3,MacIntel,60.0024001,,,,,,,
,,,,,,,,,,,,,,,,,,,,,,46.11111111,74,20,75,87.11111111,13.11111111,13.11111111,-2.888888889,0.34797309,-0.280017361,1,0,0,0.0668,submitButton,0.311493056,-0.400555556,1,0,0,2,29,149,58,1,74,69199,1,180,2022-02-10_19h03.48.293,orientation adjustment 1,2021.2.3,MacIntel,60.0024001,pause_continueButton,,,,,,
,,,,,,,,,,,,,,,,,,,,,,66.66666667,19,20,75,13.66666667,5.333333333,5.333333333,-76.33333333,0.429144965,-0.28624566,1,0,0,0.0173,submitButton,0.398420139,-0.274075521,0,0,0,2,30,150,3,1,19,69199,1,180,2022-02-10_19h03.48.293,orientation adjustment 1,2021.2.3,MacIntel,60.0024001,,,,,,,
,,,,,,,,,,,,,,,,,,,,,,73.88888889,53,20,75,228.8888889,4.111111111,4.111111111,138.8888889,0.226796875,-0.300364583,1,0,0,1.8497,submitButton,-0.16828125,-0.410902778,0,0,0,2,31,151,37,1,53,69199,1,180,2022-02-10_19h03.48.293,orientation adjustment 1,2021.2.3,MacIntel,60.0024001,,,,,,,
,,,,,,,,,,,,,,,,,,,,,,-70,-73,20,75,-253,0,0,-343,0.428923611,-0.310672743,1,0,0,1.3151,submitButton,-0.190486111,-0.416054688,0,0,0,2,32,152,57,1,73,69199,1,180,2022-02-10_19h03.48.293,orientation adjustment 1,2021.2.3,MacIntel,60.0024001,,,,,,,
,,,,,,,,,,,,,,,,,,,,,,-70,61,20,75,78,17,17,-12,0.195190972,-0.303541667,1,0,0,0.5831,submitButton,-0.220729167,-0.408155382,0,0,0,2,33,153,45,1,61,69199,1,180,2022-02-10_19h03.48.293,orientation adjustment 1,2021.2.3,MacIntel,60.0024001,,,,,,,
,,,,,,,,,,,,,,,,,,,,,,-39.44444444,-35,20,75,-38.44444444,3.444444444,3.444444444,-128.4444444,0.163411458,-0.2959375,1,0,0,0.417,submitButton,-0.149791667,-0.424348958,0,0,0,2,34,154,19,1,35,69199,1,180,2022-02-10_19h03.48.293,orientation adjustment 1,2021.2.3,MacIntel,60.0024001,,,,,,,
,,,,,,,,,,,,,,,,,,,,,,-68.33333333,69,20,75,72.66666667,3.666666667,3.666666667,-17.33333333,-0.130815972,-0.378094618,1,0,0,1.1839,submitButton,0.153016493,-0.295399306,0,0,0,2,35,155,53,1,69,69199,1,180,2022-02-10_19h03.48.293,orientation adjustment 1,2021.2.3,MacIntel,60.0024001,,,,,,,
,,,,,,,,,,,,,,,,,,,,,,73.33333333,-59,20,75,-45.66666667,13.33333333,13.33333333,-135.6666667,-0.295360243,-0.387491319,1,0,0,1.2834,submitButton,0.320529514,-0.26781684,0,0,0,2,36,156,43,1,59,69199,1,180,2022-02-10_19h03.48.293,orientation adjustment 1,2021.2.3,MacIntel,60.0024001,,,,,,,
,,,,,,,,,,,,,,,,,,,,,,74.44444444,-63,20,75,-60.55555556,2.444444444,2.444444444,-150.5555556,-0.130208333,-0.392356771,1,0,0,1.4836,submitButton,-0.130763889,-0.392912326,0,0,0,2,37,157,47,1,63,69199,1,180,2022-02-10_19h03.48.293,orientation adjustment 1,2021.2.3,MacIntel,60.0024001,,,,,,,
,,,,,,,,,,,,,,,,,,,,,,24.44444444,-37,20,75,-23.55555556,13.44444444,13.44444444,-113.5555556,-0.175824653,-0.419791667,1,0,0,0.8656,submitButton,0.336362847,-0.377382812,0,0,0,2,38,158,21,1,37,69199,1,180,2022-02-10_19h03.48.293,orientation adjustment 1,2021.2.3,MacIntel,60.0024001,,,,,,,
,,,,,,,,,,,,,,,,,,,,,,-51.66666667,68,20,75,71.33333333,3.333333333,3.333333333,-18.66666667,0.185290799,-0.290013021,1,0,0,0.4167,submitButton,0.19312934,-0.323467882,0,0,0,2,39,159,52,1,68,69199,1,180,2022-02-10_19h03.48.293,orientation adjustment 1,2021.2.3,MacIntel,60.0024001,,,,,,,
,,,,,,,,,,,,,,,,,,,,,,-61.66666667,-51,20,75,-56.66666667,5.666666667,5.666666667,-146.6666667,0.245477431,-0.305494792,1,0,0,0.1497,submitButton,-0.091549479,-0.412934028,0,0,0,2,40,160,35,1,51,69199,1,180,2022-02-10_19h03.48.293,orientation adjustment 1,2021.2.3,MacIntel,60.0024001,,,,,,,
,,,,,,,,,,,,,,,,,,,,,,32.77777778,-30,20,75,-23.22222222,6.777777778,6.777777778,-113.2222222,-0.159861111,-0.389227431,1,0,0,0.7502,submitButton,0.253962674,-0.260572917,0,0,0,2,41,161,14,1,30,69199,1,180,2022-02-10_19h03.48.293,orientation adjustment 1,2021.2.3,MacIntel,60.0024001,,,,,,,
,,,,,,,,,,,,,,,,,,,,,,-66.11111111,-43,20,75,-66.11111111,23.11111111,23.11111111,-156.1111111,-0.136488715,-0.413476562,1,0,0,1.2168,submitButton,0.196770833,-0.254908854,0,0,0,2,42,162,27,1,43,69199,1,180,2022-02-10_19h03.48.293,orientation adjustment 1,2021.2.3,MacIntel,60.0024001,,,,,,,
,,,,,,,,,,,,,,,,,,,,,,28.88888889,49,20,75,46.88888889,2.111111111,2.111111111,-43.11111111,0.430950521,-0.310073785,1,0,0,0.5669,submitButton,0.387135417,-0.288146701,0,0,0,2,43,163,33,1,49,69199,1,180,2022-02-10_19h03.48.293,orientation adjustment 1,2021.2.3,MacIntel,60.0024001,,,,,,,
,,,,,,,,,,,,,,,,,,,,,,32.77777778,-21,20,75,-11.22222222,9.777777778,9.777777778,-101.2222222,0.201072049,-0.321588542,1,0,0,0.9,submitButton,0.271067708,-0.422486979,1,0,0,2,44,164,5,1,21,69199,1,180,2022-02-10_19h03.48.293,orientation adjustment 1,2021.2.3,MacIntel,60.0024001,pause_continueButton,,,,,,
,,,,,,,,,,,,,,,,,,,,,,-29.44444444,-54,20,75,-63.44444444,9.444444444,9.444444444,-153.4444444,0.203142361,-0.297994792,1,0,0,0.0321,submitButton,0.366154514,-0.299934896,0,0,0,2,45,165,38,1,54,69199,1,180,2022-02-10_19h03.48.293,orientation adjustment 1,2021.2.3,MacIntel,60.0024001,,,,,,,
,,,,,,,,,,,,,,,,,,,,,,69.44444444,-72,20,75,-80.55555556,8.555555556,8.555555556,-170.5555556,0.40719184,-0.287938368,1,0,0,0.7996,submitButton,0.285264757,-0.294335937,0,0,0,2,46,166,56,1,72,69199,1,180,2022-02-10_19h03.48.293,orientation adjustment 1,2021.2.3,MacIntel,60.0024001,,,,,,,
,,,,,,,,,,,,,,,,,,,,,,-56.11111111,42,20,75,30.88888889,11.11111111,11.11111111,-59.11111111,-0.126974826,-0.407391493,1,0,0,0.766,submitButton,0.31437066,-0.323216146,0,0,0,2,47,167,26,1,42,69199,1,180,2022-02-10_19h03.48.293,orientation adjustment 1,2021.2.3,MacIntel,60.0024001,,,,,,,
,,,,,,,,,,,,,,,,,,,,,,33.33333333,-70,20,75,-68.66666667,1.333333333,1.333333333,-158.6666667,-0.205,-0.425421007,1,0,0,0.9829,submitButton,0.230889757,-0.318068576,0,0,0,2,48,168,54,1,70,69199,1,180,2022-02-10_19h03.48.293,orientation adjustment 1,2021.2.3,MacIntel,60.0024001,,,,,,,
,,,,,,,,,,,,,,,,,,,,,,-52.22222222,39,20,75,24.77777778,14.22222222,14.22222222,-65.22222222,-0.185030382,-0.375164931,1,0,0,0.7,submitButton,0.240690104,-0.36125434,0,0,0,2,49,169,23,1,39,69199,1,180,2022-02-10_19h03.48.293,orientation adjustment 1,2021.2.3,MacIntel,60.0024001,,,,,,,
,,,,,,,,,,,,,,,,,,,,,,-36.11111111,-20,20,75,-19.11111111,0.888888889,0.888888889,-109.1111111,-0.099743924,-0.400251736,1,0,0,0.9998,submitButton,0.235425347,-0.252786458,0,0,0,2,50,170,4,1,20,69199,1,180,2022-02-10_19h03.48.293,orientation adjustment 1,2021.2.3,MacIntel,60.0024001,,,,,,,
,,,,,,,,,,,,,,,,,,,,,,43.33333333,-47,20,75,-34.66666667,12.33333333,12.33333333,-124.6666667,-0.169470486,-0.425277778,1,0,0,0.5828,submitButton,0.375993924,-0.22796875,0,0,0,2,51,171,31,1,47,69199,1,180,2022-02-10_19h03.48.293,orientation adjustment 1,2021.2.3,MacIntel,60.0024001,,,,,,,
,,,,,,,,,,,,,,,,,,,,,,71.11111111,45,20,75,230.1111111,5.111111111,5.111111111,140.1111111,-0.067565104,-0.402847222,1,0,0,1.9157,submitButton,0.352951389,-0.316801215,0,0,0,2,52,172,29,1,45,69199,1,180,2022-02-10_19h03.48.293,orientation adjustment 1,2021.2.3,MacIntel,60.0024001,,,,,,,
,,,,,,,,,,,,,,,,,,,,,,-66.66666667,18,20,75,10.33333333,7.666666667,7.666666667,-79.66666667,-0.126601562,-0.40468316,1,0,0,1.6163,submitButton,0.321883681,-0.312361111,0,0,0,2,53,173,2,1,18,69199,1,180,2022-02-10_19h03.48.293,orientation adjustment 1,2021.2.3,MacIntel,60.0024001,,,,,,,
,,,,,,,,,,,,,,,,,,,,,,20,34,20,75,36,2,2,-54,0.376336806,-0.322790799,1,0,0,0.1163,submitButton,0.220881076,-0.333389757,0,0,0,2,54,174,18,1,34,69199,1,180,2022-02-10_19h03.48.293,orientation adjustment 1,2021.2.3,MacIntel,60.0024001,,,,,,,
,,,,,,,,,,,,,,,,,,,,,,-57.22222222,28,20,75,18.77777778,9.222222222,9.222222222,-71.22222222,-0.162851562,-0.407395833,1,0,0,1.133,submitButton,-0.162851562,-0.407951389,0,0,0,2,55,175,12,1,28,69199,1,180,2022-02-10_19h03.48.293,orientation adjustment 1,2021.2.3,MacIntel,60.0024001,,,,,,,
,,,,,,,,,,,,,,,,,,,,,,55.55555556,-41,20,75,-34.44444444,6.555555556,6.555555556,-124.4444444,-0.197200521,-0.40656684,1,0,0,1.0172,submitButton,-0.195533854,-0.407677951,0,0,0,2,56,176,25,1,41,69199,1,180,2022-02-10_19h03.48.293,orientation adjustment 1,2021.2.3,MacIntel,60.0024001,,,,,,,
,,,,,,,,,,,,,,,,,,,,,,-57.22222222,-23,20,75,-26.22222222,3.222222222,3.222222222,-116.2222222,0.195959201,-0.305664063,1,0,0,0.3334,submitButton,-0.196770833,-0.403645833,0,0,0,2,57,177,7,1,23,69199,1,180,2022-02-10_19h03.48.293,orientation adjustment 1,2021.2.3,MacIntel,60.0024001,,,,,,,
,,,,,,,,,,,,,,,,,,,,,,-38.88888889,-31,20,75,-27.88888889,3.111111111,3.111111111,-117.8888889,-0.093389757,-0.389756944,1,0,0,0.8663,submitButton,-0.129817708,-0.392630208,0,0,0,2,58,178,15,1,31,69199,1,180,2022-02-10_19h03.48.293,orientation adjustment 1,2021.2.3,MacIntel,60.0024001,,,,,,,
,,,,,,,,,,,,,,,,,,,,,,-56.11111111,-64,20,75,-71.11111111,7.111111111,7.111111111,-161.1111111,-0.144704861,-0.427821181,1,0,0,1.6157,submitButton,0.199830729,-0.357200521,0,0,0,2,59,179,48,1,64,69199,1,180,2022-02-10_19h03.48.293,orientation adjustment 1,2021.2.3,MacIntel,60.0024001,,,,,,,
,,,,,,,,,,,,,,,,,,,,,,,,,,,,,,,,,,,,,,,,,,,,,,,,69199,1,180,2022-02-10_19h03.48.293,orientation adjustment 1,2021.2.3,MacIntel,60.0024001,,0.256814236,-0.417408854,1,0,0,EndButtonTxt
