consentMouse1.x,consentMouse1.y,consentMouse1.leftButton,consentMouse1.midButton,consentMouse1.rightButton,consentMouse1.clicked_name,consent_Mouse.x,consent_Mouse.y,consent_Mouse.leftButton,consent_Mouse.midButton,consent_Mouse.rightButton,consent_Mouse.clicked_name,startMouse.x,startMouse.y,startMouse.leftButton,startMouse.midButton,startMouse.rightButton,startMouse_2.x,startMouse_2.y,startMouse_2.leftButton,startMouse_2.midButton,startMouse_2.rightButton,start_distance,fixedOri,minimalDistance,maxOri,this_ori,accuracy,presented_accuracy,presented_this_ori,submitMouse.x,submitMouse.y,submitMouse.leftButton,submitMouse.midButton,submitMouse.rightButton,submitMouse.time,submitMouse.clicked_name,pauseMouse.x,pauseMouse.y,pauseMouse.leftButton,pauseMouse.midButton,pauseMouse.rightButton,trials.thisRepN,trials.thisTrialN,trials.thisN,trials.thisIndex,trials.ran,startOri,participant,condition,nTrials,date,expName,psychopyVersion,OS,frameRate,pauseMouse.clicked_name,EndButtonMouse.x,EndButtonMouse.y,EndButtonMouse.leftButton,EndButtonMouse.midButton,EndButtonMouse.rightButton,EndButtonMouse.clicked_name
0.446328125,-0.398988715,1,0,0,consent_button1,0.396458333,-0.401497396,1,0,0,consent_button,0.173350694,-0.269570313,1,0,0,0.164036458,-0.361827257,1,0,0,-50.55555556,37,20,75,-13.55555556,50.55555556,50.55555556,-103.5555556,-0.458038194,-0.419631076,1,0,0,3.5474,submitButton,-0.458038194,-0.419631076,0,0,0,0,0,0,21,1,37,69220,1,180,2022-02-10_16h52.07.610,orientation adjustment 1,2021.2.3,MacIntel,60.0024001,,,,,,,
,,,,,,,,,,,,,,,,,,,,,,-60.55555556,27,20,75,34.44444444,7.444444444,7.444444444,-55.55555556,0.20296441,-0.297387153,1,0,0,3.9662,submitButton,0.0703125,0.025716146,0,0,0,0,1,1,11,1,27,69220,1,180,2022-02-10_16h52.07.610,orientation adjustment 1,2021.2.3,MacIntel,60.0024001,,,,,,,
,,,,,,,,,,,,,,,,,,,,,,-73.88888889,72,20,75,75.11111111,3.111111111,3.111111111,-14.88888889,0.216488715,-0.302951389,1,0,0,1.0001,submitButton,0.190672743,-0.281740451,0,0,0,0,2,2,56,1,72,69220,1,180,2022-02-10_16h52.07.610,orientation adjustment 1,2021.2.3,MacIntel,60.0024001,,,,,,,
,,,,,,,,,,,,,,,,,,,,,,-40,45,20,75,26,19,19,-64,-0.232955729,-0.421067708,1,0,0,1.0664,submitButton,0.165386285,-0.234366319,0,0,0,0,3,3,29,1,45,69220,1,180,2022-02-10_16h52.07.610,orientation adjustment 1,2021.2.3,MacIntel,60.0024001,,,,,,,
,,,,,,,,,,,,,,,,,,,,,,58.88888889,-64,20,75,-69.11111111,5.111111111,5.111111111,-159.1111111,0.367912326,-0.318611111,1,0,0,1.2337,submitButton,0.172065972,-0.209952257,0,0,0,0,4,4,48,1,64,69220,1,180,2022-02-10_16h52.07.610,orientation adjustment 1,2021.2.3,MacIntel,60.0024001,,,,,,,
,,,,,,,,,,,,,,,,,,,,,,71.66666667,62,20,75,85.66666667,23.66666667,23.66666667,-4.333333333,0.362013889,-0.303763021,1,0,0,0.067,submitButton,0.519548611,-0.044053819,0,0,0,0,5,5,46,1,62,69220,1,180,2022-02-10_16h52.07.610,orientation adjustment 1,2021.2.3,MacIntel,60.0024001,,,,,,,
,,,,,,,,,,,,,,,,,,,,,,-62.77777778,-65,20,75,-61.77777778,3.222222222,3.222222222,-151.7777778,0.213424479,-0.300481771,1,0,0,1.0334,submitButton,0.23531684,-0.146966146,0,0,0,0,6,6,49,1,65,69220,1,180,2022-02-10_16h52.07.610,orientation adjustment 1,2021.2.3,MacIntel,60.0024001,,,,,,,
,,,,,,,,,,,,,,,,,,,,,,-39.44444444,-39,20,75,-29.44444444,9.555555556,9.555555556,-119.4444444,0.185664063,-0.29233941,1,0,0,0.7323,submitButton,-0.043372396,-0.263012153,0,0,0,0,7,7,23,1,39,69220,1,180,2022-02-10_16h52.07.610,orientation adjustment 1,2021.2.3,MacIntel,60.0024001,,,,,,,
,,,,,,,,,,,,,,,,,,,,,,-63.33333333,17,20,75,25.66666667,8.666666667,8.666666667,-64.33333333,0.202452257,-0.315928819,1,0,0,0.9512,submitButton,0.218020833,-0.253389757,0,0,0,0,8,8,1,1,17,69220,1,180,2022-02-10_16h52.07.610,orientation adjustment 1,2021.2.3,MacIntel,60.0024001,,,,,,,
,,,,,,,,,,,,,,,,,,,,,,28.33333333,-16,20,75,-18.66666667,2.666666667,2.666666667,-108.6666667,-0.183697917,-0.404084201,1,0,0,1.0326,submitButton,0.071176215,-0.277673611,0,0,0,0,9,9,0,1,16,69220,1,180,2022-02-10_16h52.07.610,orientation adjustment 1,2021.2.3,MacIntel,60.0024001,,,,,,,
,,,,,,,,,,,,,,,,,,,,,,-39.44444444,20,20,75,22.55555556,2.555555556,2.555555556,-67.44444444,-0.177456597,-0.408572049,1,0,0,1.0167,submitButton,-0.003398437,-0.33969184,0,0,0,0,10,10,4,1,20,69220,1,180,2022-02-10_16h52.07.610,orientation adjustment 1,2021.2.3,MacIntel,60.0024001,,,,,,,
,,,,,,,,,,,,,,,,,,,,,,-67.22222222,49,20,75,52.77777778,3.777777778,3.777777778,-37.22222222,-0.175950521,-0.402118056,1,0,0,1.5832,submitButton,0.142443576,-0.219279514,0,0,0,0,11,11,33,1,49,69220,1,180,2022-02-10_16h52.07.610,orientation adjustment 1,2021.2.3,MacIntel,60.0024001,,,,,,,
,,,,,,,,,,,,,,,,,,,,,,-54.44444444,-75,20,75,-83.44444444,8.444444444,8.444444444,-173.4444444,-0.19203125,-0.407786458,1,0,0,1.0662,submitButton,0.067747396,-0.245386285,0,0,0,0,12,12,59,1,75,69220,1,180,2022-02-10_16h52.07.610,orientation adjustment 1,2021.2.3,MacIntel,60.0024001,,,,,,,
,,,,,,,,,,,,,,,,,,,,,,61.66666667,73,20,75,280.6666667,27.66666667,27.66666667,190.6666667,0.201289063,-0.302677951,1,0,0,2.0826,submitButton,0.135039063,-0.302148437,0,0,0,0,13,13,57,1,73,69220,1,180,2022-02-10_16h52.07.610,orientation adjustment 1,2021.2.3,MacIntel,60.0024001,,,,,,,
,,,,,,,,,,,,,,,,,,,,,,-40.55555556,61,20,75,62.44444444,1.444444444,1.444444444,-27.55555556,-0.290581597,-0.421115451,1,0,0,1.0833,submitButton,0.486822917,-0.393693576,1,0,0,0,14,14,45,1,61,69220,1,180,2022-02-10_16h52.07.610,orientation adjustment 1,2021.2.3,MacIntel,60.0024001,pause_continueButton,,,,,,
,,,,,,,,,,,,,,,,,,,,,,47.22222222,41,20,75,36.22222222,4.777777778,4.777777778,-53.77777778,0.356901042,-0.301540799,1,0,0,0.7005,submitButton,0.291953125,-0.247890625,0,0,0,0,15,15,25,1,41,69220,1,180,2022-02-10_16h52.07.610,orientation adjustment 1,2021.2.3,MacIntel,60.0024001,,,,,,,
,,,,,,,,,,,,,,,,,,,,,,-58.88888889,74,20,75,71.11111111,2.888888889,2.888888889,-18.88888889,-0.193802083,-0.413164062,1,0,0,1.5493,submitButton,0.124913194,-0.266666667,0,0,0,0,16,16,58,1,74,69220,1,180,2022-02-10_16h52.07.610,orientation adjustment 1,2021.2.3,MacIntel,60.0024001,,,,,,,
,,,,,,,,,,,,,,,,,,,,,,-40,71,20,75,52,19,19,-38,-0.348949653,-0.404236111,1,0,0,0.3157,submitButton,0.260130208,-0.18391059,0,0,0,0,17,17,55,1,71,69220,1,180,2022-02-10_16h52.07.610,orientation adjustment 1,2021.2.3,MacIntel,60.0024001,,,,,,,
,,,,,,,,,,,,,,,,,,,,,,61.11111111,22,20,75,74.11111111,52.11111111,52.11111111,-15.88888889,0.19968316,-0.281124132,1,0,0,2.8665,submitButton,-0.144084201,-0.355737847,0,0,0,0,18,18,6,1,22,69220,1,180,2022-02-10_16h52.07.610,orientation adjustment 1,2021.2.3,MacIntel,60.0024001,,,,,,,
,,,,,,,,,,,,,,,,,,,,,,-55,-43,20,75,-211,12,12,-301,0.417803819,-0.278094618,1,0,0,0.5166,submitButton,0.110555556,-0.196063368,0,0,0,0,19,19,27,1,43,69220,1,180,2022-02-10_16h52.07.610,orientation adjustment 1,2021.2.3,MacIntel,60.0024001,,,,,,,
,,,,,,,,,,,,,,,,,,,,,,25.55555556,-29,20,75,-21.44444444,7.555555556,7.555555556,-111.4444444,0.39625434,-0.311901042,1,0,0,0.0992,submitButton,0.09608941,-0.266184896,0,0,0,0,20,20,13,1,29,69220,1,180,2022-02-10_16h52.07.610,orientation adjustment 1,2021.2.3,MacIntel,60.0024001,,,,,,,
,,,,,,,,,,,,,,,,,,,,,,-23.88888889,58,20,75,61.11111111,3.111111111,3.111111111,-28.88888889,-0.225169271,-0.408680556,1,0,0,1.5831,submitButton,0.203168403,-0.179717882,0,0,0,0,21,21,42,1,58,69220,1,180,2022-02-10_16h52.07.610,orientation adjustment 1,2021.2.3,MacIntel,60.0024001,,,,,,,
,,,,,,,,,,,,,,,,,,,,,,68.33333333,24,20,75,42.33333333,18.33333333,18.33333333,-47.66666667,-0.258394097,-0.398893229,1,0,0,1.467,submitButton,0.159188368,-0.265260417,0,0,0,0,22,22,8,1,24,69220,1,180,2022-02-10_16h52.07.610,orientation adjustment 1,2021.2.3,MacIntel,60.0024001,,,,,,,
,,,,,,,,,,,,,,,,,,,,,,66.66666667,30,20,75,213.6666667,3.666666667,3.666666667,123.6666667,-0.21109809,-0.391909722,1,0,0,2.7834,submitButton,0.139153646,-0.195998264,0,0,0,0,23,23,14,1,30,69220,1,180,2022-02-10_16h52.07.610,orientation adjustment 1,2021.2.3,MacIntel,60.0024001,,,,,,,
,,,,,,,,,,,,,,,,,,,,,,-60,-35,20,75,-222,7,7,-312,0.364592014,-0.294700521,1,0,0,2.1997,submitButton,0.164236111,-0.181063368,0,0,0,0,24,24,19,1,35,69220,1,180,2022-02-10_16h52.07.610,orientation adjustment 1,2021.2.3,MacIntel,60.0024001,,,,,,,
,,,,,,,,,,,,,,,,,,,,,,-69.44444444,36,20,75,40.55555556,4.555555556,4.555555556,-49.44444444,-0.204175347,-0.396783854,1,0,0,1.766,submitButton,0.18046875,-0.167543403,0,0,0,0,25,25,20,1,36,69220,1,180,2022-02-10_16h52.07.610,orientation adjustment 1,2021.2.3,MacIntel,60.0024001,,,,,,,
,,,,,,,,,,,,,,,,,,,,,,30,48,20,75,53,5,5,-37,0.418472222,-0.312100694,1,0,0,0.0827,submitButton,0.033337674,-0.253376736,0,0,0,0,26,26,32,1,48,69220,1,180,2022-02-10_16h52.07.610,orientation adjustment 1,2021.2.3,MacIntel,60.0024001,,,,,,,
,,,,,,,,,,,,,,,,,,,,,,48.88888889,67,20,75,73.88888889,6.888888889,6.888888889,-16.11111111,0.391076389,-0.316592882,1,0,0,0.6995,submitButton,0.076076389,-0.190520833,0,0,0,0,27,27,51,1,67,69220,1,180,2022-02-10_16h52.07.610,orientation adjustment 1,2021.2.3,MacIntel,60.0024001,,,,,,,
,,,,,,,,,,,,,,,,,,,,,,40.55555556,42,20,75,37.55555556,4.444444444,4.444444444,-52.44444444,0.414032118,-0.295603299,1,0,0,1.0166,submitButton,0.070303819,-0.213502604,0,0,0,0,28,28,26,1,42,69220,1,180,2022-02-10_16h52.07.610,orientation adjustment 1,2021.2.3,MacIntel,60.0024001,,,,,,,
,,,,,,,,,,,,,,,,,,,,,,-59.44444444,26,20,75,23.55555556,2.444444444,2.444444444,-66.44444444,-0.231940104,-0.401909722,1,0,0,1.5171,submitButton,0.317352431,-0.39749566,1,0,0,0,29,29,10,1,26,69220,1,180,2022-02-10_16h52.07.610,orientation adjustment 1,2021.2.3,MacIntel,60.0024001,pause_continueButton,,,,,,
,,,,,,,,,,,,,,,,,,,,,,38.33333333,-19,20,75,-19.66666667,0.666666667,0.666666667,-109.6666667,-0.202400174,-0.387873264,1,0,0,1.3831,submitButton,0.018246528,-0.278454861,0,0,0,0,30,30,3,1,19,69220,1,180,2022-02-10_16h52.07.610,orientation adjustment 1,2021.2.3,MacIntel,60.0024001,,,,,,,
,,,,,,,,,,,,,,,,,,,,,,-71.66666667,34,20,75,45.33333333,11.33333333,11.33333333,-44.66666667,-0.24078559,-0.398151042,1,0,0,2.0671,submitButton,0.087894965,-0.187990451,0,0,0,0,31,31,18,1,34,69220,1,180,2022-02-10_16h52.07.610,orientation adjustment 1,2021.2.3,MacIntel,60.0024001,,,,,,,
,,,,,,,,,,,,,,,,,,,,,,-66.11111111,32,20,75,26.88888889,5.111111111,5.111111111,-63.11111111,-0.252261285,-0.413563368,1,0,0,1.7342,submitButton,0.022834201,-0.242721354,0,0,0,0,32,32,16,1,32,69220,1,180,2022-02-10_16h52.07.610,orientation adjustment 1,2021.2.3,MacIntel,60.0024001,,,,,,,
,,,,,,,,,,,,,,,,,,,,,,54.44444444,31,20,75,36.44444444,5.444444444,5.444444444,-53.55555556,0.369401042,-0.296805556,1,0,0,0.0665,submitButton,0.001901042,-0.248042535,0,0,0,0,33,33,15,1,31,69220,1,180,2022-02-10_16h52.07.610,orientation adjustment 1,2021.2.3,MacIntel,60.0024001,,,,,,,
,,,,,,,,,,,,,,,,,,,,,,47.77777778,-70,20,75,-67.22222222,2.777777778,2.777777778,-157.2222222,0.372486979,-0.307439236,1,0,0,0.5499,submitButton,0.080677083,-0.279657118,0,0,0,0,34,34,54,1,70,69220,1,180,2022-02-10_16h52.07.610,orientation adjustment 1,2021.2.3,MacIntel,60.0024001,,,,,,,
,,,,,,,,,,,,,,,,,,,,,,-23.88888889,57,20,75,59.11111111,2.111111111,2.111111111,-30.88888889,-0.190659722,-0.392834201,1,0,0,1.3832,submitButton,0.057417535,-0.258485243,0,0,0,0,35,35,41,1,57,69220,1,180,2022-02-10_16h52.07.610,orientation adjustment 1,2021.2.3,MacIntel,60.0024001,,,,,,,
,,,,,,,,,,,,,,,,,,,,,,-38.88888889,23,20,75,29.11111111,6.111111111,6.111111111,-60.88888889,-0.225499132,-0.384657118,1,0,0,1.5504,submitButton,-0.001050347,-0.275724826,0,0,0,0,36,36,7,1,23,69220,1,180,2022-02-10_16h52.07.610,orientation adjustment 1,2021.2.3,MacIntel,60.0024001,,,,,,,
,,,,,,,,,,,,,,,,,,,,,,43.88888889,-54,20,75,-55.11111111,1.111111111,1.111111111,-145.1111111,-0.236310764,-0.387695313,1,0,0,1.733,submitButton,0.082300347,-0.177573785,0,0,0,0,37,37,38,1,54,69220,1,180,2022-02-10_16h52.07.610,orientation adjustment 1,2021.2.3,MacIntel,60.0024001,,,,,,,
,,,,,,,,,,,,,,,,,,,,,,45,52,20,75,59,7,7,-31,0.377230903,-0.302391493,1,0,0,0.2665,submitButton,-0.127721354,-0.346054688,0,0,0,0,38,38,36,1,52,69220,1,180,2022-02-10_16h52.07.610,orientation adjustment 1,2021.2.3,MacIntel,60.0024001,,,,,,,
,,,,,,,,,,,,,,,,,,,,,,31.11111111,-40,20,75,-43.88888889,3.888888889,3.888888889,-133.8888889,0.36952691,-0.306974826,1,0,0,0.0992,submitButton,-0.258650174,-0.405264757,0,0,0,0,39,39,24,1,40,69220,1,180,2022-02-10_16h52.07.610,orientation adjustment 1,2021.2.3,MacIntel,60.0024001,,,,,,,
,,,,,,,,,,,,,,,,,,,,,,-40,-33,20,75,-38,5,5,-128,-0.223346354,-0.391966146,1,0,0,1.5001,submitButton,0.051141493,-0.246137153,0,0,0,0,40,40,17,1,33,69220,1,180,2022-02-10_16h52.07.610,orientation adjustment 1,2021.2.3,MacIntel,60.0024001,,,,,,,
,,,,,,,,,,,,,,,,,,,,,,-33.88888889,-69,20,75,-64.88888889,4.111111111,4.111111111,-154.8888889,-0.210286458,-0.413402778,1,0,0,1.1165,submitButton,-0.210286458,-0.413402778,0,0,0,0,41,41,53,1,69,69220,1,180,2022-02-10_16h52.07.610,orientation adjustment 1,2021.2.3,MacIntel,60.0024001,,,,,,,
,,,,,,,,,,,,,,,,,,,,,,48.33333333,25,20,75,20.33333333,4.666666667,4.666666667,-69.66666667,0.404036458,-0.324648437,1,0,0,0.1675,submitButton,-0.077196181,-0.356206597,0,0,0,0,42,42,9,1,25,69220,1,180,2022-02-10_16h52.07.610,orientation adjustment 1,2021.2.3,MacIntel,60.0024001,,,,,,,
,,,,,,,,,,,,,,,,,,,,,,-49.44444444,21,20,75,23.55555556,2.555555556,2.555555556,-66.44444444,0.216636285,-0.318541667,1,0,0,1.067,submitButton,0.161861979,-0.180698785,0,0,0,0,43,43,5,1,21,69220,1,180,2022-02-10_16h52.07.610,orientation adjustment 1,2021.2.3,MacIntel,60.0024001,,,,,,,
,,,,,,,,,,,,,,,,,,,,,,68.33333333,63,20,75,72.33333333,9.333333333,9.333333333,-17.66666667,-0.22249566,-0.392322049,1,0,0,1.9342,submitButton,0.412000868,-0.38578125,1,0,0,0,44,44,47,1,63,69220,1,180,2022-02-10_16h52.07.610,orientation adjustment 1,2021.2.3,MacIntel,60.0024001,pause_continueButton,,,,,,
,,,,,,,,,,,,,,,,,,,,,,30.55555556,44,20,75,99.55555556,55.55555556,55.55555556,9.555555556,-0.306210938,-0.369722222,1,0,0,0.3165,submitButton,0.207057292,-0.230625,0,0,0,0,45,45,28,1,44,69220,1,180,2022-02-10_16h52.07.610,orientation adjustment 1,2021.2.3,MacIntel,60.0024001,,,,,,,
,,,,,,,,,,,,,,,,,,,,,,-30.55555556,-18,20,75,-38.55555556,20.55555556,20.55555556,-128.5555556,-0.339982639,-0.37812934,1,0,0,0.1487,submitButton,0.034296875,-0.355750868,0,0,0,0,46,46,2,1,18,69220,1,180,2022-02-10_16h52.07.610,orientation adjustment 1,2021.2.3,MacIntel,60.0024001,,,,,,,
,,,,,,,,,,,,,,,,,,,,,,45,-50,20,75,10,60,60,-80,-0.334635417,-0.394557292,1,0,0,0.2493,submitButton,0.178940972,-0.279791667,0,0,0,0,47,47,34,1,50,69220,1,180,2022-02-10_16h52.07.610,orientation adjustment 1,2021.2.3,MacIntel,60.0024001,,,,,,,
,,,,,,,,,,,,,,,,,,,,,,30,-68,20,75,-60,8,8,-150,-0.450894097,-0.457595486,1,0,0,0.3672,submitButton,0.152165799,-0.230868056,0,0,0,0,48,48,52,1,68,69220,1,180,2022-02-10_16h52.07.610,orientation adjustment 1,2021.2.3,MacIntel,60.0024001,,,,,,,
,,,,,,,,,,,,,,,,,,,,,,-48.33333333,-55,20,75,-215.3333333,19.66666667,19.66666667,-305.3333333,0.430381944,-0.312087674,1,0,0,0.6317,submitButton,-0.189583333,-0.391519097,0,0,0,0,49,49,39,1,55,69220,1,180,2022-02-10_16h52.07.610,orientation adjustment 1,2021.2.3,MacIntel,60.0024001,,,,,,,
,,,,,,,,,,,,,,,,,,,,,,-28.33333333,-60,20,75,-71.33333333,11.33333333,11.33333333,-161.3333333,0.418454861,-0.28234809,1,0,0,0.1668,submitButton,-0.344344618,-0.398945312,0,0,0,0,50,50,44,1,60,69220,1,180,2022-02-10_16h52.07.610,orientation adjustment 1,2021.2.3,MacIntel,60.0024001,,,,,,,
,,,,,,,,,,,,,,,,,,,,,,72.22222222,-47,20,75,-17.77777778,29.22222222,29.22222222,-107.7777778,0.431948785,-0.300017361,1,0,0,0.3496,submitButton,-0.25046441,-0.389791667,0,0,0,0,51,51,31,1,47,69220,1,180,2022-02-10_16h52.07.610,orientation adjustment 1,2021.2.3,MacIntel,60.0024001,,,,,,,
,,,,,,,,,,,,,,,,,,,,,,-25.55555556,-28,20,75,-37.55555556,9.555555556,9.555555556,-127.5555556,0.395177951,-0.291019965,1,0,0,0.9168,submitButton,-0.155898437,-0.41749566,0,0,0,0,52,52,12,1,28,69220,1,180,2022-02-10_16h52.07.610,orientation adjustment 1,2021.2.3,MacIntel,60.0024001,,,,,,,
,,,,,,,,,,,,,,,,,,,,,,-40.55555556,56,20,75,50.44444444,5.555555556,5.555555556,-39.55555556,-0.160217014,-0.405881076,1,0,0,0.5828,submitButton,0.220199653,-0.280559896,0,0,0,0,53,53,40,1,56,69220,1,180,2022-02-10_16h52.07.610,orientation adjustment 1,2021.2.3,MacIntel,60.0024001,,,,,,,
,,,,,,,,,,,,,,,,,,,,,,72.77777778,-51,20,75,-39.22222222,11.77777778,11.77777778,-129.2222222,-0.217513021,-0.437282986,1,0,0,0.6837,submitButton,-0.21406684,-0.425264757,0,0,0,0,54,54,35,1,51,69220,1,180,2022-02-10_16h52.07.610,orientation adjustment 1,2021.2.3,MacIntel,60.0024001,,,,,,,
,,,,,,,,,,,,,,,,,,,,,,-50.55555556,53,20,75,30.44444444,22.55555556,22.55555556,-59.55555556,-0.156063368,-0.400121528,1,0,0,0.4497,submitButton,-0.156345486,-0.400121528,0,0,0,0,55,55,37,1,53,69220,1,180,2022-02-10_16h52.07.610,orientation adjustment 1,2021.2.3,MacIntel,60.0024001,,,,,,,
,,,,,,,,,,,,,,,,,,,,,,-67.22222222,-66,20,75,-241.2222222,4.777777778,4.777777778,-331.2222222,0.415273438,-0.298537326,1,0,0,1.2169,submitButton,-0.121944444,-0.395173611,0,0,0,0,56,56,50,1,66,69220,1,180,2022-02-10_16h52.07.610,orientation adjustment 1,2021.2.3,MacIntel,60.0024001,,,,,,,
,,,,,,,,,,,,,,,,,,,,,,68.88888889,-38,20,75,-33.11111111,4.888888889,4.888888889,-123.1111111,-0.126896701,-0.430034722,1,0,0,0.9164,submitButton,-0.229231771,-0.408450521,0,0,0,0,57,57,22,1,38,69220,1,180,2022-02-10_16h52.07.610,orientation adjustment 1,2021.2.3,MacIntel,60.0024001,,,,,,,
,,,,,,,,,,,,,,,,,,,,,,27.22222222,46,20,75,231.2222222,5.222222222,5.222222222,141.2222222,-0.19578559,-0.394674479,1,0,0,3.0654,submitButton,-0.19578559,-0.394674479,0,0,0,0,58,58,30,1,46,69220,1,180,2022-02-10_16h52.07.610,orientation adjustment 1,2021.2.3,MacIntel,60.0024001,,,,,,,
,,,,,,,,,,,,,,,,,,,,,,-55.55555556,59,20,75,54.44444444,4.555555556,4.555555556,-35.55555556,-0.161905382,-0.421210937,1,0,0,0.917,submitButton,0.332174479,-0.387838542,1,0,0,0,59,59,43,1,59,69220,1,180,2022-02-10_16h52.07.610,orientation adjustment 1,2021.2.3,MacIntel,60.0024001,pause_continueButton,,,,,,
,,,,,,,,,,,,,,,,,,,,,,32.77777778,-25,20,75,-21.22222222,3.777777778,3.777777778,-111.2222222,-0.101779514,-0.359835069,1,0,0,0.9003,submitButton,0.217200521,-0.380481771,0,0,0,1,0,60,9,1,25,69220,1,180,2022-02-10_16h52.07.610,orientation adjustment 1,2021.2.3,MacIntel,60.0024001,,,,,,,
,,,,,,,,,,,,,,,,,,,,,,-37.22222222,-65,20,75,-264.2222222,19.22222222,19.22222222,-354.2222222,0.423068576,-0.285989583,1,0,0,1.85,submitButton,-0.200998264,-0.414292535,0,0,0,1,1,61,49,1,65,69220,1,180,2022-02-10_16h52.07.610,orientation adjustment 1,2021.2.3,MacIntel,60.0024001,,,,,,,
,,,,,,,,,,,,,,,,,,,,,,-50,-63,20,75,-68,5,5,-158,0.213832465,-0.30437066,1,0,0,0.0345,submitButton,-0.230863715,-0.406354167,0,0,0,1,2,62,47,1,63,69220,1,180,2022-02-10_16h52.07.610,orientation adjustment 1,2021.2.3,MacIntel,60.0024001,,,,,,,
,,,,,,,,,,,,,,,,,,,,,,-68.88888889,26,20,75,22.11111111,3.888888889,3.888888889,-67.88888889,-0.160095486,-0.416145833,1,0,0,1.567,submitButton,0.016592882,-0.257109375,0,0,0,1,3,63,10,1,26,69220,1,180,2022-02-10_16h52.07.610,orientation adjustment 1,2021.2.3,MacIntel,60.0024001,,,,,,,
,,,,,,,,,,,,,,,,,,,,,,-21.66666667,40,20,75,28.33333333,11.66666667,11.66666667,-61.66666667,-0.291488715,-0.39625,1,0,0,1.0662,submitButton,-0.067721354,-0.315690104,0,0,0,1,4,64,24,1,40,69220,1,180,2022-02-10_16h52.07.610,orientation adjustment 1,2021.2.3,MacIntel,60.0024001,,,,,,,
,,,,,,,,,,,,,,,,,,,,,,-69.44444444,34,20,75,32.55555556,1.444444444,1.444444444,-57.44444444,-0.142699653,-0.382486979,1,0,0,1.4498,submitButton,-0.142699653,-0.382486979,0,0,0,1,5,65,18,1,34,69220,1,180,2022-02-10_16h52.07.610,orientation adjustment 1,2021.2.3,MacIntel,60.0024001,,,,,,,
,,,,,,,,,,,,,,,,,,,,,,41.11111111,-41,20,75,-46.88888889,5.888888889,5.888888889,-136.8888889,0.417682292,-0.319418403,1,0,0,0.5673,submitButton,0.041840278,-0.243710938,0,0,0,1,6,66,25,1,41,69220,1,180,2022-02-10_16h52.07.610,orientation adjustment 1,2021.2.3,MacIntel,60.0024001,,,,,,,
,,,,,,,,,,,,,,,,,,,,,,-51.66666667,54,20,75,43.33333333,10.66666667,10.66666667,-46.66666667,0.213012153,-0.277751736,1,0,0,0.6511,submitButton,-0.125355903,-0.401540799,0,0,0,1,7,67,38,1,54,69220,1,180,2022-02-10_16h52.07.610,orientation adjustment 1,2021.2.3,MacIntel,60.0024001,,,,,,,
,,,,,,,,,,,,,,,,,,,,,,-36.11111111,-42,20,75,-61.11111111,19.11111111,19.11111111,-151.1111111,0.216141493,-0.305690104,1,0,0,0.0334,submitButton,-0.171527778,-0.393133681,0,0,0,1,8,68,26,1,42,69220,1,180,2022-02-10_16h52.07.610,orientation adjustment 1,2021.2.3,MacIntel,60.0024001,,,,,,,
,,,,,,,,,,,,,,,,,,,,,,28.33333333,-29,20,75,-15.66666667,13.33333333,13.33333333,-105.6666667,0.409079861,-0.282100694,1,0,0,0.1515,submitButton,-0.08703125,-0.370247396,0,0,0,1,9,69,13,1,29,69220,1,180,2022-02-10_16h52.07.610,orientation adjustment 1,2021.2.3,MacIntel,60.0024001,,,,,,,
,,,,,,,,,,,,,,,,,,,,,,-39.44444444,-47,20,75,-77.44444444,30.44444444,30.44444444,-167.4444444,0.168723958,-0.321328125,1,0,0,0.1824,submitButton,0.089774306,-0.329778646,0,0,0,1,10,70,31,1,47,69220,1,180,2022-02-10_16h52.07.610,orientation adjustment 1,2021.2.3,MacIntel,60.0024001,,,,,,,
,,,,,,,,,,,,,,,,,,,,,,69.44444444,-21,20,75,-0.555555556,20.44444444,20.44444444,-90.55555556,0.364184028,-0.257951389,1,0,0,0.2332,submitButton,0.210533854,-0.327174479,0,0,0,1,11,71,5,1,21,69220,1,180,2022-02-10_16h52.07.610,orientation adjustment 1,2021.2.3,MacIntel,60.0024001,,,,,,,
,,,,,,,,,,,,,,,,,,,,,,-63.33333333,49,20,75,66.66666667,17.66666667,17.66666667,-23.33333333,0.208763021,-0.304960937,1,0,0,1.0668,submitButton,-0.196827257,-0.378211806,0,0,0,1,12,72,33,1,49,69220,1,180,2022-02-10_16h52.07.610,orientation adjustment 1,2021.2.3,MacIntel,60.0024001,,,,,,,
,,,,,,,,,,,,,,,,,,,,,,-58.33333333,-37,20,75,-208.3333333,8.666666667,8.666666667,-298.3333333,0.40969184,-0.298216146,1,0,0,0.1496,submitButton,0.067326389,-0.211462674,0,0,0,1,13,73,21,1,37,69220,1,180,2022-02-10_16h52.07.610,orientation adjustment 1,2021.2.3,MacIntel,60.0024001,,,,,,,
,,,,,,,,,,,,,,,,,,,,,,-60.55555556,-72,20,75,-132.5555556,60.55555556,60.55555556,-222.5555556,-0.22265191,-0.424626736,1,0,0,2.8998,submitButton,0.293064236,-0.389006076,1,0,0,1,14,74,56,1,72,69220,1,180,2022-02-10_16h52.07.610,orientation adjustment 1,2021.2.3,MacIntel,60.0024001,pause_continueButton,,,,,,
,,,,,,,,,,,,,,,,,,,,,,-33.88888889,61,20,75,72.11111111,11.11111111,11.11111111,-17.88888889,0.181072049,-0.296510417,1,0,0,2.5998,submitButton,-0.009492188,-0.253029514,0,0,0,1,15,75,45,1,61,69220,1,180,2022-02-10_16h52.07.610,orientation adjustment 1,2021.2.3,MacIntel,60.0024001,,,,,,,
,,,,,,,,,,,,,,,,,,,,,,34.44444444,-56,20,75,-38.55555556,17.44444444,17.44444444,-128.5555556,-0.211072049,-0.398676215,1,0,0,0.2998,submitButton,0.152144097,-0.425368924,0,0,0,1,16,76,40,1,56,69220,1,180,2022-02-10_16h52.07.610,orientation adjustment 1,2021.2.3,MacIntel,60.0024001,,,,,,,
,,,,,,,,,,,,,,,,,,,,,,43.33333333,-64,20,75,-40.66666667,23.33333333,23.33333333,-130.6666667,-0.161024306,-0.383927951,1,0,0,0.2814,submitButton,-0.161024306,-0.383927951,0,0,0,1,17,77,48,1,64,69220,1,180,2022-02-10_16h52.07.610,orientation adjustment 1,2021.2.3,MacIntel,60.0024001,,,,,,,
,,,,,,,,,,,,,,,,,,,,,,26.66666667,35,20,75,44.66666667,9.666666667,9.666666667,-45.33333333,0.371028646,-0.299796007,1,0,0,0.0491,submitButton,-0.153823785,-0.399392361,0,0,0,1,18,78,19,1,35,69220,1,180,2022-02-10_16h52.07.610,orientation adjustment 1,2021.2.3,MacIntel,60.0024001,,,,,,,
,,,,,,,,,,,,,,,,,,,,,,42.22222222,18,20,75,30.22222222,12.22222222,12.22222222,-59.77777778,0.384960937,-0.272413194,1,0,0,0.1837,submitButton,0.254635417,-0.327044271,0,0,0,1,19,79,2,1,18,69220,1,180,2022-02-10_16h52.07.610,orientation adjustment 1,2021.2.3,MacIntel,60.0024001,,,,,,,
,,,,,,,,,,,,,,,,,,,,,,52.77777778,20,20,75,40.77777778,20.77777778,20.77777778,-49.22222222,0.378103299,-0.295186632,1,0,0,0.2661,submitButton,-0.183007813,-0.40141059,0,0,0,1,20,80,4,1,20,69220,1,180,2022-02-10_16h52.07.610,orientation adjustment 1,2021.2.3,MacIntel,60.0024001,,,,,,,
,,,,,,,,,,,,,,,,,,,,,,-72.77777778,74,20,75,75.22222222,1.222222222,1.222222222,-14.77777778,0.173585069,-0.318450521,1,0,0,0.1322,submitButton,-0.218493924,-0.40984375,0,0,0,1,21,81,58,1,74,69220,1,180,2022-02-10_16h52.07.610,orientation adjustment 1,2021.2.3,MacIntel,60.0024001,,,,,,,
,,,,,,,,,,,,,,,,,,,,,,-25.55555556,-22,20,75,-32.55555556,10.55555556,10.55555556,-122.5555556,0.219114583,-0.292829861,1,0,0,0.083,submitButton,0.187361111,-0.269561632,0,0,0,1,22,82,6,1,22,69220,1,180,2022-02-10_16h52.07.610,orientation adjustment 1,2021.2.3,MacIntel,60.0024001,,,,,,,
,,,,,,,,,,,,,,,,,,,,,,-23.88888889,51,20,75,37.11111111,13.88888889,13.88888889,-52.88888889,-0.140347222,-0.379466146,1,0,0,0.518,submitButton,0.198203125,-0.277131076,0,0,0,1,23,83,35,1,51,69220,1,180,2022-02-10_16h52.07.610,orientation adjustment 1,2021.2.3,MacIntel,60.0024001,,,,,,,
,,,,,,,,,,,,,,,,,,,,,,-54.44444444,-27,20,75,-54.44444444,27.44444444,27.44444444,-144.4444444,0.213841146,-0.325963542,1,0,0,0.0831,submitButton,-0.11483941,-0.412222222,0,0,0,1,24,84,11,1,27,69220,1,180,2022-02-10_16h52.07.610,orientation adjustment 1,2021.2.3,MacIntel,60.0024001,,,,,,,
,,,,,,,,,,,,,,,,,,,,,,-33.33333333,46,20,75,39.66666667,6.333333333,6.333333333,-50.33333333,0.154800347,-0.3115625,1,0,0,0.9499,submitButton,0.322083333,-0.287534722,0,0,0,1,25,85,30,1,46,69220,1,180,2022-02-10_16h52.07.610,orientation adjustment 1,2021.2.3,MacIntel,60.0024001,,,,,,,
,,,,,,,,,,,,,,,,,,,,,,-73.33333333,45,20,75,53.66666667,8.666666667,8.666666667,-36.33333333,0.200807292,-0.297382812,1,0,0,1.3493,submitButton,-0.219270833,-0.425412326,0,0,0,1,26,86,29,1,45,69220,1,180,2022-02-10_16h52.07.610,orientation adjustment 1,2021.2.3,MacIntel,60.0024001,,,,,,,
,,,,,,,,,,,,,,,,,,,,,,60,57,20,75,230,7,7,140,-0.192048611,-0.39546441,1,0,0,3.0165,submitButton,-0.192048611,-0.39546441,0,0,0,1,27,87,41,1,57,69220,1,180,2022-02-10_16h52.07.610,orientation adjustment 1,2021.2.3,MacIntel,60.0024001,,,,,,,
,,,,,,,,,,,,,,,,,,,,,,-61.11111111,-31,20,75,-204.1111111,6.888888889,6.888888889,-294.1111111,0.38609375,-0.278967014,1,0,0,0.2166,submitButton,-0.249114583,-0.415117187,0,0,0,1,28,88,15,1,31,69220,1,180,2022-02-10_16h52.07.610,orientation adjustment 1,2021.2.3,MacIntel,60.0024001,,,,,,,
,,,,,,,,,,,,,,,,,,,,,,-74.44444444,70,20,75,67.55555556,2.444444444,2.444444444,-22.44444444,0.20624566,-0.276922743,1,0,0,1.2323,submitButton,0.3703125,-0.406519097,1,0,0,1,29,89,54,1,70,69220,1,180,2022-02-10_16h52.07.610,orientation adjustment 1,2021.2.3,MacIntel,60.0024001,pause_continueButton,,,,,,
,,,,,,,,,,,,,,,,,,,,,,-44.44444444,33,20,75,22.55555556,10.44444444,10.44444444,-67.44444444,0.334149306,-0.307148437,1,0,0,0.8674,submitButton,-0.059639757,-0.402907986,0,0,0,1,30,90,17,1,33,69220,1,180,2022-02-10_16h52.07.610,orientation adjustment 1,2021.2.3,MacIntel,60.0024001,,,,,,,
,,,,,,,,,,,,,,,,,,,,,,28.33333333,-30,20,75,13.33333333,43.33333333,43.33333333,-76.66666667,-0.274418403,-0.354865451,1,0,0,0.4499,submitButton,-0.193302951,-0.360321181,0,0,0,1,31,91,14,1,30,69220,1,180,2022-02-10_16h52.07.610,orientation adjustment 1,2021.2.3,MacIntel,60.0024001,,,,,,,
,,,,,,,,,,,,,,,,,,,,,,-32.22222222,-53,20,75,-228.2222222,4.777777778,4.777777778,-318.2222222,-0.183224826,-0.393185764,1,0,0,3.0834,submitButton,-0.183224826,-0.393185764,0,0,0,1,32,92,37,1,53,69220,1,180,2022-02-10_16h52.07.610,orientation adjustment 1,2021.2.3,MacIntel,60.0024001,,,,,,,
,,,,,,,,,,,,,,,,,,,,,,43.33333333,-50,20,75,-43.66666667,6.333333333,6.333333333,-133.6666667,0.428541667,-0.28218316,1,0,0,0.0164,submitButton,-0.196059028,-0.396883681,0,0,0,1,33,93,34,1,50,69220,1,180,2022-02-10_16h52.07.610,orientation adjustment 1,2021.2.3,MacIntel,60.0024001,,,,,,,
,,,,,,,,,,,,,,,,,,,,,,-41.66666667,67,20,75,63.33333333,3.666666667,3.666666667,-26.66666667,0.237734375,-0.31499566,1,0,0,1.7499,submitButton,-0.220538194,-0.385659722,0,0,0,1,34,94,51,1,67,69220,1,180,2022-02-10_16h52.07.610,orientation adjustment 1,2021.2.3,MacIntel,60.0024001,,,,,,,
,,,,,,,,,,,,,,,,,,,,,,-60,59,20,75,55,4,4,-35,0.066258681,-0.349383681,1,0,0,0.3171,submitButton,-0.187083333,-0.381579861,0,0,0,1,35,95,43,1,59,69220,1,180,2022-02-10_16h52.07.610,orientation adjustment 1,2021.2.3,MacIntel,60.0024001,,,,,,,
,,,,,,,,,,,,,,,,,,,,,,25,-71,20,75,-60,11,11,-150,0.412126736,-0.287894965,1,0,0,0.0656,submitButton,-0.144123264,-0.406792535,0,0,0,1,36,96,55,1,71,69220,1,180,2022-02-10_16h52.07.610,orientation adjustment 1,2021.2.3,MacIntel,60.0024001,,,,,,,
,,,,,,,,,,,,,,,,,,,,,,-51.11111111,36,20,75,24.88888889,11.11111111,11.11111111,-65.11111111,0.209388021,-0.28219184,1,0,0,0.0166,submitButton,0.261788194,-0.319956597,0,0,0,1,37,97,20,1,36,69220,1,180,2022-02-10_16h52.07.610,orientation adjustment 1,2021.2.3,MacIntel,60.0024001,,,,,,,
,,,,,,,,,,,,,,,,,,,,,,57.77777778,-69,20,75,-57.22222222,11.77777778,11.77777778,-147.2222222,0.396184896,-0.306545139,1,0,0,0.5507,submitButton,0.002738715,-0.344288194,0,0,0,1,38,98,53,1,69,69220,1,180,2022-02-10_16h52.07.610,orientation adjustment 1,2021.2.3,MacIntel,60.0024001,,,,,,,
,,,,,,,,,,,,,,,,,,,,,,-56.66666667,55,20,75,33.33333333,21.66666667,21.66666667,-56.66666667,0.219661458,-0.279657118,1,0,0,0.1837,submitButton,0.211115451,-0.298216146,0,0,0,1,39,99,39,1,55,69220,1,180,2022-02-10_16h52.07.610,orientation adjustment 1,2021.2.3,MacIntel,60.0024001,,,,,,,
,,,,,,,,,,,,,,,,,,,,,,-29.44444444,-38,20,75,-40.44444444,2.444444444,2.444444444,-130.4444444,0.250342882,-0.314266493,1,0,0,0.5827,submitButton,-0.160130208,-0.374118924,0,0,0,1,40,100,22,1,38,69220,1,180,2022-02-10_16h52.07.610,orientation adjustment 1,2021.2.3,MacIntel,60.0024001,,,,,,,
,,,,,,,,,,,,,,,,,,,,,,68.33333333,73,20,75,245.3333333,7.666666667,7.666666667,155.3333333,0.22656684,-0.3221875,1,0,0,1.0339,submitButton,-0.121684028,-0.416888021,0,0,0,1,41,101,57,1,73,69220,1,180,2022-02-10_16h52.07.610,orientation adjustment 1,2021.2.3,MacIntel,60.0024001,,,,,,,
,,,,,,,,,,,,,,,,,,,,,,30,48,20,75,62,14,14,-28,-0.216905382,-0.38172309,1,0,0,2.2153,submitButton,0.263185764,-0.217886285,0,0,0,1,42,102,32,1,48,69220,1,180,2022-02-10_16h52.07.610,orientation adjustment 1,2021.2.3,MacIntel,60.0024001,,,,,,,
,,,,,,,,,,,,,,,,,,,,,,35,-68,20,75,-54,14,14,-144,-0.152434896,-0.386796875,1,0,0,0.4339,submitButton,0.401236979,-0.299344618,0,0,0,1,43,103,52,1,68,69220,1,180,2022-02-10_16h52.07.610,orientation adjustment 1,2021.2.3,MacIntel,60.0024001,,,,,,,
,,,,,,,,,,,,,,,,,,,,,,32.22222222,62,20,75,66.22222222,4.222222222,4.222222222,-23.77777778,0.443190104,-0.277209201,1,0,0,0.0663,submitButton,0.406749132,-0.38265191,1,0,0,1,44,104,46,1,62,69220,1,180,2022-02-10_16h52.07.610,orientation adjustment 1,2021.2.3,MacIntel,60.0024001,pause_continueButton,,,,,,
,,,,,,,,,,,,,,,,,,,,,,71.11111111,-44,20,75,-18.88888889,25.11111111,25.11111111,-108.8888889,-0.170434028,-0.428919271,1,0,0,1.0503,submitButton,0.281705729,-0.284492187,0,0,0,1,45,105,28,1,44,69220,1,180,2022-02-10_16h52.07.610,orientation adjustment 1,2021.2.3,MacIntel,60.0024001,,,,,,,
,,,,,,,,,,,,,,,,,,,,,,-45,-23,20,75,-21,2,2,-111,0.218198785,-0.293242187,1,0,0,0.0175,submitButton,-0.192760417,-0.401727431,0,0,0,1,46,106,7,1,23,69220,1,180,2022-02-10_16h52.07.610,orientation adjustment 1,2021.2.3,MacIntel,60.0024001,,,,,,,
,,,,,,,,,,,,,,,,,,,,,,73.88888889,52,20,75,74.88888889,22.88888889,22.88888889,-15.11111111,0.367582465,-0.290815972,1,0,0,0.1011,submitButton,0.305954861,-0.286150174,0,0,0,1,47,107,36,1,52,69220,1,180,2022-02-10_16h52.07.610,orientation adjustment 1,2021.2.3,MacIntel,60.0024001,,,,,,,
,,,,,,,,,,,,,,,,,,,,,,51.66666667,75,20,75,235.6666667,19.33333333,19.33333333,145.6666667,0.225008681,-0.282152778,1,0,0,1.8335,submitButton,0.178728299,-0.297877604,0,0,0,1,48,108,59,1,75,69220,1,180,2022-02-10_16h52.07.610,orientation adjustment 1,2021.2.3,MacIntel,60.0024001,,,,,,,
,,,,,,,,,,,,,,,,,,,,,,-32.77777778,19,20,75,14.22222222,4.777777778,4.777777778,-75.77777778,0.19406684,-0.285681424,1,0,0,0.0174,submitButton,0.330347222,-0.318797743,0,0,0,1,49,109,3,1,19,69220,1,180,2022-02-10_16h52.07.610,orientation adjustment 1,2021.2.3,MacIntel,60.0024001,,,,,,,
,,,,,,,,,,,,,,,,,,,,,,37.22222222,43,20,75,59.22222222,16.22222222,16.22222222,-30.77777778,0.350746528,-0.312300347,1,0,0,0.2005,submitButton,0.294019097,-0.297230903,0,0,0,1,50,110,27,1,43,69220,1,180,2022-02-10_16h52.07.610,orientation adjustment 1,2021.2.3,MacIntel,60.0024001,,,,,,,
,,,,,,,,,,,,,,,,,,,,,,-30,-17,20,75,-29,12,12,-119,0.226697049,-0.301861979,1,0,0,0.0171,submitButton,-0.147256944,-0.388611111,0,0,0,1,51,111,1,1,17,69220,1,180,2022-02-10_16h52.07.610,orientation adjustment 1,2021.2.3,MacIntel,60.0024001,,,,,,,
,,,,,,,,,,,,,,,,,,,,,,-63.33333333,-16,20,75,-24.33333333,8.333333333,8.333333333,-114.3333333,0.220685764,-0.300377604,1,0,0,0.5663,submitButton,-0.055008681,-0.338059896,0,0,0,1,52,112,0,1,16,69220,1,180,2022-02-10_16h52.07.610,orientation adjustment 1,2021.2.3,MacIntel,60.0024001,,,,,,,
,,,,,,,,,,,,,,,,,,,,,,55.55555556,-58,20,75,-44.44444444,13.55555556,13.55555556,-134.4444444,0.188363715,-0.312482639,1,0,0,0.6832,submitButton,0.241927083,-0.229422743,0,0,0,1,53,113,42,1,58,69220,1,180,2022-02-10_16h52.07.610,orientation adjustment 1,2021.2.3,MacIntel,60.0024001,,,,,,,
,,,,,,,,,,,,,,,,,,,,,,-66.11111111,-24,20,75,-26.11111111,2.111111111,2.111111111,-116.1111111,0.244348958,-0.287669271,1,0,0,0.584,submitButton,-0.09984375,-0.402139757,0,0,0,1,54,114,8,1,24,69220,1,180,2022-02-10_16h52.07.610,orientation adjustment 1,2021.2.3,MacIntel,60.0024001,,,,,,,
,,,,,,,,,,,,,,,,,,,,,,-60.55555556,66,20,75,24.44444444,41.55555556,41.55555556,-65.55555556,0.234427083,-0.298728299,1,0,0,1.3166,submitButton,-0.244040799,-0.415681424,0,0,0,1,55,115,50,1,66,69220,1,180,2022-02-10_16h52.07.610,orientation adjustment 1,2021.2.3,MacIntel,60.0024001,,,,,,,
,,,,,,,,,,,,,,,,,,,,,,26.11111111,32,20,75,32.11111111,0.111111111,0.111111111,-57.88888889,0.377717014,-0.301931424,1,0,0,7.7497,submitButton,-0.276901042,-0.382725694,0,0,0,1,56,116,16,1,32,69220,1,180,2022-02-10_16h52.07.610,orientation adjustment 1,2021.2.3,MacIntel,60.0024001,,,,,,,
,,,,,,,,,,,,,,,,,,,,,,-58.33333333,60,20,75,13.66666667,46.33333333,46.33333333,-76.33333333,0.200694444,-0.303797743,1,0,0,4.1665,submitButton,-0.196831597,-0.390815972,0,0,0,1,57,117,44,1,60,69220,1,180,2022-02-10_16h52.07.610,orientation adjustment 1,2021.2.3,MacIntel,60.0024001,,,,,,,
,,,,,,,,,,,,,,,,,,,,,,-35.55555556,39,20,75,35.44444444,3.555555556,3.555555556,-54.55555556,0.206223958,-0.28827691,1,0,0,12.3329,submitButton,-0.159618056,-0.398263889,0,0,0,1,58,118,23,1,39,69220,1,180,2022-02-10_16h52.07.610,orientation adjustment 1,2021.2.3,MacIntel,60.0024001,,,,,,,
,,,,,,,,,,,,,,,,,,,,,,40,28,20,75,68,40,40,-22,-0.557938368,-0.420008681,1,0,0,7.8492,submitButton,0.343459201,-0.386783854,1,0,0,1,59,119,12,1,28,69220,1,180,2022-02-10_16h52.07.610,orientation adjustment 1,2021.2.3,MacIntel,60.0024001,pause_continueButton,,,,,,
,,,,,,,,,,,,,,,,,,,,,,31.11111111,70,20,75,76.11111111,6.111111111,6.111111111,-13.88888889,0.394513889,-0.262269965,1,0,0,0.3324,submitButton,0.027400174,-0.266310764,0,0,0,2,0,120,54,1,70,69220,1,180,2022-02-10_16h52.07.610,orientation adjustment 1,2021.2.3,MacIntel,60.0024001,,,,,,,
,,,,,,,,,,,,,,,,,,,,,,62.77777778,47,20,75,47.77777778,0.777777778,0.777777778,-42.22222222,0.397565104,-0.292643229,1,0,0,0.9166,submitButton,-0.27266059,-0.417647569,0,0,0,2,1,121,31,1,47,69220,1,180,2022-02-10_16h52.07.610,orientation adjustment 1,2021.2.3,MacIntel,60.0024001,,,,,,,
,,,,,,,,,,,,,,,,,,,,,,-45,-75,20,75,-65,10,10,-155,0.181440972,-0.292287326,1,0,0,0.7339,submitButton,-0.286384549,-0.406328125,0,0,0,2,2,122,59,1,75,69220,1,180,2022-02-10_16h52.07.610,orientation adjustment 1,2021.2.3,MacIntel,60.0024001,,,,,,,
,,,,,,,,,,,,,,,,,,,,,,73.88888889,41,20,75,204.8888889,16.11111111,16.11111111,114.8888889,-0.393962674,-0.37812934,1,0,0,2.0333,submitButton,-0.129175347,-0.326801215,0,0,0,2,3,123,25,1,41,69220,1,180,2022-02-10_16h52.07.610,orientation adjustment 1,2021.2.3,MacIntel,60.0024001,,,,,,,
,,,,,,,,,,,,,,,,,,,,,,-35,-71,20,75,-106,35,35,-196,-0.202078993,-0.399197049,1,0,0,3.1834,submitButton,-0.202078993,-0.399197049,0,0,0,2,4,124,55,1,71,69220,1,180,2022-02-10_16h52.07.610,orientation adjustment 1,2021.2.3,MacIntel,60.0024001,,,,,,,
,,,,,,,,,,,,,,,,,,,,,,-51.66666667,26,20,75,17.33333333,8.666666667,8.666666667,-72.66666667,-0.190820313,-0.409105903,1,0,0,1.2839,submitButton,0.024487847,-0.296210937,0,0,0,2,5,125,10,1,26,69220,1,180,2022-02-10_16h52.07.610,orientation adjustment 1,2021.2.3,MacIntel,60.0024001,,,,,,,
,,,,,,,,,,,,,,,,,,,,,,48.88888889,-20,20,75,-18.11111111,1.888888889,1.888888889,-108.1111111,-0.264513889,-0.412482639,1,0,0,1.116,submitButton,-0.155177951,-0.289678819,0,0,0,2,6,126,4,1,20,69220,1,180,2022-02-10_16h52.07.610,orientation adjustment 1,2021.2.3,MacIntel,60.0024001,,,,,,,
,,,,,,,,,,,,,,,,,,,,,,-36.66666667,-51,20,75,-54.66666667,3.666666667,3.666666667,-144.6666667,-0.170828993,-0.411857639,1,0,0,0.732,submitButton,0.2296875,-0.152252604,0,0,0,2,7,127,35,1,51,69220,1,180,2022-02-10_16h52.07.610,orientation adjustment 1,2021.2.3,MacIntel,60.0024001,,,,,,,
,,,,,,,,,,,,,,,,,,,,,,-49.44444444,68,20,75,48.55555556,19.44444444,19.44444444,-41.44444444,-0.198289931,-0.443854167,1,0,0,0.7831,submitButton,-0.008511285,-0.280421007,0,0,0,2,8,128,52,1,68,69220,1,180,2022-02-10_16h52.07.610,orientation adjustment 1,2021.2.3,MacIntel,60.0024001,,,,,,,
,,,,,,,,,,,,,,,,,,,,,,-55.55555556,17,20,75,-38.55555556,55.55555556,55.55555556,-128.5555556,-0.228845486,-0.40499566,1,0,0,18.3487,submitButton,-0.228845486,-0.40499566,0,0,0,2,9,129,1,1,17,69220,1,180,2022-02-10_16h52.07.610,orientation adjustment 1,2021.2.3,MacIntel,60.0024001,,,,,,,
,,,,,,,,,,,,,,,,,,,,,,-48.33333333,59,20,75,10.66666667,48.33333333,48.33333333,-79.33333333,-0.396015625,-0.423029514,1,0,0,2.583,submitButton,-0.006263021,-0.279804687,0,0,0,2,10,130,43,1,59,69220,1,180,2022-02-10_16h52.07.610,orientation adjustment 1,2021.2.3,MacIntel,60.0024001,,,,,,,
,,,,,,,,,,,,,,,,,,,,,,-52.77777778,-46,20,75,-52.77777778,6.777777778,6.777777778,-142.7777778,-0.184435764,-0.407278646,1,0,0,0.9335,submitButton,-0.184435764,-0.407278646,0,0,0,2,11,131,30,1,46,69220,1,180,2022-02-10_16h52.07.610,orientation adjustment 1,2021.2.3,MacIntel,60.0024001,,,,,,,
,,,,,,,,,,,,,,,,,,,,,,-56.11111111,69,20,75,62.88888889,6.111111111,6.111111111,-27.11111111,-0.196467014,-0.406111111,1,0,0,1.134,submitButton,-0.196467014,-0.406111111,0,0,0,2,12,132,53,1,69,69220,1,180,2022-02-10_16h52.07.610,orientation adjustment 1,2021.2.3,MacIntel,60.0024001,,,,,,,
,,,,,,,,,,,,,,,,,,,,,,65.55555556,63,20,75,67.55555556,4.555555556,4.555555556,-22.44444444,0.348376736,-0.323307292,1,0,0,0.0322,submitButton,-0.210668403,-0.411032986,0,0,0,2,13,133,47,1,63,69220,1,180,2022-02-10_16h52.07.610,orientation adjustment 1,2021.2.3,MacIntel,60.0024001,,,,,,,
,,,,,,,,,,,,,,,,,,,,,,-21.66666667,54,20,75,37.33333333,16.66666667,16.66666667,-52.66666667,0.225837674,-0.315946181,1,0,0,0.1002,submitButton,0.370707465,-0.387890625,1,0,0,2,14,134,38,1,54,69220,1,180,2022-02-10_16h52.07.610,orientation adjustment 1,2021.2.3,MacIntel,60.0024001,pause_continueButton,,,,,,
,,,,,,,,,,,,,,,,,,,,,,61.11111111,64,20,75,69.11111111,5.111111111,5.111111111,-20.88888889,-0.208480903,-0.404570312,1,0,0,1.3826,submitButton,-0.208480903,-0.404570312,0,0,0,2,15,135,48,1,64,69220,1,180,2022-02-10_16h52.07.610,orientation adjustment 1,2021.2.3,MacIntel,60.0024001,,,,,,,
,,,,,,,,,,,,,,,,,,,,,,-50.55555556,-43,20,75,-42.55555556,0.444444444,0.444444444,-132.5555556,-0.191996528,-0.416236979,1,0,0,1.7831,submitButton,-0.191996528,-0.416236979,0,0,0,2,16,136,27,1,43,69220,1,180,2022-02-10_16h52.07.610,orientation adjustment 1,2021.2.3,MacIntel,60.0024001,,,,,,,
,,,,,,,,,,,,,,,,,,,,,,73.88888889,53,20,75,212.8888889,20.11111111,20.11111111,122.8888889,-0.288815104,-0.396158854,1,0,0,2.3336,submitButton,0.024175347,-0.30702691,0,0,0,2,17,137,37,1,53,69220,1,180,2022-02-10_16h52.07.610,orientation adjustment 1,2021.2.3,MacIntel,60.0024001,,,,,,,
,,,,,,,,,,,,,,,,,,,,,,-25.55555556,45,20,75,42.44444444,2.555555556,2.555555556,-47.55555556,-0.171631944,-0.406063368,1,0,0,0.7335,submitButton,-0.016662326,-0.306158854,0,0,0,2,18,138,29,1,45,69220,1,180,2022-02-10_16h52.07.610,orientation adjustment 1,2021.2.3,MacIntel,60.0024001,,,,,,,
,,,,,,,,,,,,,,,,,,,,,,67.77777778,42,20,75,210.7777778,11.22222222,11.22222222,120.7777778,-0.199518229,-0.362022569,1,0,0,3.2329,submitButton,0.074431424,-0.325889757,0,0,0,2,19,139,26,1,42,69220,1,180,2022-02-10_16h52.07.610,orientation adjustment 1,2021.2.3,MacIntel,60.0024001,,,,,,,
,,,,,,,,,,,,,,,,,,,,,,-66.66666667,-29,20,75,-197.6666667,11.33333333,11.33333333,-287.6666667,-0.246679687,-0.398949653,1,0,0,2.3659,submitButton,-0.23922309,-0.398650174,0,0,0,2,20,140,13,1,29,69220,1,180,2022-02-10_16h52.07.610,orientation adjustment 1,2021.2.3,MacIntel,60.0024001,,,,,,,
,,,,,,,,,,,,,,,,,,,,,,46.66666667,-48,20,75,-45.33333333,2.666666667,2.666666667,-135.3333333,0.394561632,-0.304366319,1,0,0,0.3503,submitButton,0.072378472,-0.297265625,0,0,0,2,21,141,32,1,48,69220,1,180,2022-02-10_16h52.07.610,orientation adjustment 1,2021.2.3,MacIntel,60.0024001,,,,,,,
,,,,,,,,,,,,,,,,,,,,,,34.44444444,-19,20,75,-27.55555556,8.555555556,8.555555556,-117.5555556,-0.132382813,-0.398220486,1,0,0,0.9335,submitButton,0.162486979,-0.263194444,0,0,0,2,22,142,3,1,19,69220,1,180,2022-02-10_16h52.07.610,orientation adjustment 1,2021.2.3,MacIntel,60.0024001,,,,,,,
,,,,,,,,,,,,,,,,,,,,,,21.11111111,-16,20,75,-25.88888889,9.888888889,9.888888889,-115.8888889,-0.217534722,-0.415863715,1,0,0,1.0674,submitButton,-0.017673611,-0.337934028,0,0,0,2,23,143,0,1,16,69220,1,180,2022-02-10_16h52.07.610,orientation adjustment 1,2021.2.3,MacIntel,60.0024001,,,,,,,
,,,,,,,,,,,,,,,,,,,,,,41.11111111,73,20,75,68.11111111,4.888888889,4.888888889,-21.88888889,-0.266184896,-0.383776042,1,0,0,1.6004,submitButton,-0.16109375,-0.33344184,0,0,0,2,24,144,57,1,73,69220,1,180,2022-02-10_16h52.07.610,orientation adjustment 1,2021.2.3,MacIntel,60.0024001,,,,,,,
,,,,,,,,,,,,,,,,,,,,,,-42.77777778,33,20,75,29.22222222,3.777777778,3.777777778,-60.77777778,-0.196757812,-0.399822049,1,0,0,1.1491,submitButton,-0.196757812,-0.399822049,0,0,0,2,25,145,17,1,33,69220,1,180,2022-02-10_16h52.07.610,orientation adjustment 1,2021.2.3,MacIntel,60.0024001,,,,,,,
,,,,,,,,,,,,,,,,,,,,,,-63.33333333,57,20,75,2.666666667,54.33333333,54.33333333,-87.33333333,-0.183242187,-0.394019097,1,0,0,0.5,submitButton,0.008550347,-0.270842014,0,0,0,2,26,146,41,1,57,69220,1,180,2022-02-10_16h52.07.610,orientation adjustment 1,2021.2.3,MacIntel,60.0024001,,,,,,,
,,,,,,,,,,,,,,,,,,,,,,-35,-66,20,75,-71,5,5,-161,-0.279605035,-0.415121528,1,0,0,1.3662,submitButton,0.216901042,-0.266605903,0,0,0,2,27,147,50,1,66,69220,1,180,2022-02-10_16h52.07.610,orientation adjustment 1,2021.2.3,MacIntel,60.0024001,,,,,,,
,,,,,,,,,,,,,,,,,,,,,,22.77777778,-65,20,75,-42.22222222,22.77777778,22.77777778,-132.2222222,-0.256640625,-0.393315972,1,0,0,0.4826,submitButton,-0.011167535,-0.26624566,0,0,0,2,28,148,49,1,65,69220,1,180,2022-02-10_16h52.07.610,orientation adjustment 1,2021.2.3,MacIntel,60.0024001,,,,,,,
,,,,,,,,,,,,,,,,,,,,,,-67.22222222,-32,20,75,-31.22222222,0.777777778,0.777777778,-121.2222222,0.221028646,-0.307534722,1,0,0,0.9991,submitButton,0.271202257,-0.401814236,1,0,0,2,29,149,16,1,32,69220,1,180,2022-02-10_16h52.07.610,orientation adjustment 1,2021.2.3,MacIntel,60.0024001,pause_continueButton,,,,,,
,,,,,,,,,,,,,,,,,,,,,,40,-38,20,75,-38,0,0,-128,0.404800347,-0.291453993,1,0,0,0.4005,submitButton,-0.232699653,-0.407083333,0,0,0,2,30,150,22,1,38,69220,1,180,2022-02-10_16h52.07.610,orientation adjustment 1,2021.2.3,MacIntel,60.0024001,,,,,,,
,,,,,,,,,,,,,,,,,,,,,,-53.88888889,-35,20,75,-88.88888889,53.88888889,53.88888889,-178.8888889,-0.124973958,-0.390989583,1,0,0,3.1161,submitButton,-0.022313368,-0.17797309,0,0,0,2,31,151,19,1,35,69220,1,180,2022-02-10_16h52.07.610,orientation adjustment 1,2021.2.3,MacIntel,60.0024001,,,,,,,
,,,,,,,,,,,,,,,,,,,,,,68.88888889,37,20,75,44.88888889,7.888888889,7.888888889,-45.11111111,0.367078993,-0.29468316,1,0,0,0.0334,submitButton,0.19,-0.247400174,0,0,0,2,32,152,21,1,37,69220,1,180,2022-02-10_16h52.07.610,orientation adjustment 1,2021.2.3,MacIntel,60.0024001,,,,,,,
,,,,,,,,,,,,,,,,,,,,,,-39.44444444,-18,20,75,-24.44444444,6.444444444,6.444444444,-114.4444444,0.222322049,-0.299652778,1,0,0,0.2667,submitButton,-0.182782118,-0.391132812,0,0,0,2,33,153,2,1,18,69220,1,180,2022-02-10_16h52.07.610,orientation adjustment 1,2021.2.3,MacIntel,60.0024001,,,,,,,
,,,,,,,,,,,,,,,,,,,,,,-27.22222222,62,20,75,58.77777778,3.222222222,3.222222222,-31.22222222,-0.197296007,-0.401822917,1,0,0,0.9328,submitButton,-0.197296007,-0.401822917,0,0,0,2,34,154,46,1,62,69220,1,180,2022-02-10_16h52.07.610,orientation adjustment 1,2021.2.3,MacIntel,60.0024001,,,,,,,
,,,,,,,,,,,,,,,,,,,,,,-58.33333333,-36,20,75,-40.33333333,4.333333333,4.333333333,-130.3333333,0.219470486,-0.29577691,1,0,0,0.6497,submitButton,-0.167795139,-0.380195312,0,0,0,2,35,155,20,1,36,69220,1,180,2022-02-10_16h52.07.610,orientation adjustment 1,2021.2.3,MacIntel,60.0024001,,,,,,,
,,,,,,,,,,,,,,,,,,,,,,45.55555556,49,20,75,129.5555556,80.55555556,80.55555556,39.55555556,0.170998264,-0.301844618,1,0,0,0.2329,submitButton,0.145403646,-0.284657118,0,0,0,2,36,156,33,1,49,69220,1,180,2022-02-10_16h52.07.610,orientation adjustment 1,2021.2.3,MacIntel,60.0024001,,,,,,,
,,,,,,,,,,,,,,,,,,,,,,49.44444444,-61,20,75,-49.55555556,11.44444444,11.44444444,-139.5555556,-0.198007812,-0.403927951,1,0,0,1.2991,submitButton,-0.198007812,-0.403927951,0,0,0,2,37,157,45,1,61,69220,1,180,2022-02-10_16h52.07.610,orientation adjustment 1,2021.2.3,MacIntel,60.0024001,,,,,,,
,,,,,,,,,,,,,,,,,,,,,,60.55555556,-56,20,75,-52.44444444,3.555555556,3.555555556,-142.4444444,0.341375868,-0.299175347,1,0,0,0.9003,submitButton,0.228007812,-0.200616319,0,0,0,2,38,158,40,1,56,69220,1,180,2022-02-10_16h52.07.610,orientation adjustment 1,2021.2.3,MacIntel,60.0024001,,,,,,,
,,,,,,,,,,,,,,,,,,,,,,37.22222222,-34,20,75,-43.77777778,9.777777778,9.777777778,-133.7777778,-0.218771701,-0.409197049,1,0,0,1.4173,submitButton,-0.218771701,-0.409197049,0,0,0,2,39,159,18,1,34,69220,1,180,2022-02-10_16h52.07.610,orientation adjustment 1,2021.2.3,MacIntel,60.0024001,,,,,,,
,,,,,,,,,,,,,,,,,,,,,,70.55555556,52,20,75,58.55555556,6.555555556,6.555555556,-31.44444444,0.396467014,-0.281523437,1,0,0,1.2334,submitButton,0.099131944,-0.190885417,0,0,0,2,40,160,36,1,52,69220,1,180,2022-02-10_16h52.07.610,orientation adjustment 1,2021.2.3,MacIntel,60.0024001,,,,,,,
,,,,,,,,,,,,,,,,,,,,,,43.33333333,23,20,75,29.33333333,6.333333333,6.333333333,-60.66666667,0.380967882,-0.29655816,1,0,0,0.834,submitButton,0.200842014,-0.2046875,0,0,0,2,41,161,7,1,23,69220,1,180,2022-02-10_16h52.07.610,orientation adjustment 1,2021.2.3,MacIntel,60.0024001,,,,,,,
,,,,,,,,,,,,,,,,,,,,,,-65.55555556,-58,20,75,-50.55555556,7.444444444,7.444444444,-140.5555556,-0.232282986,-0.395681424,1,0,0,1.7497,submitButton,-0.03015191,-0.229874132,0,0,0,2,42,162,42,1,58,69220,1,180,2022-02-10_16h52.07.610,orientation adjustment 1,2021.2.3,MacIntel,60.0024001,,,,,,,
,,,,,,,,,,,,,,,,,,,,,,56.11111111,-22,20,75,-28.88888889,6.888888889,6.888888889,-118.8888889,-0.249396701,-0.414804687,1,0,0,2.2329,submitButton,-0.025251736,-0.191601562,0,0,0,2,43,163,6,1,22,69220,1,180,2022-02-10_16h52.07.610,orientation adjustment 1,2021.2.3,MacIntel,60.0024001,,,,,,,
,,,,,,,,,,,,,,,,,,,,,,-65.55555556,21,20,75,35.44444444,14.44444444,14.44444444,-54.55555556,0.196861979,-0.292083333,1,0,0,1.0164,submitButton,0.464518229,-0.389930556,1,0,0,2,44,164,5,1,21,69220,1,180,2022-02-10_16h52.07.610,orientation adjustment 1,2021.2.3,MacIntel,60.0024001,pause_continueButton,,,,,,
,,,,,,,,,,,,,,,,,,,,,,68.88888889,-31,20,75,-33.11111111,2.111111111,2.111111111,-123.1111111,-0.208164062,-0.389926215,1,0,0,2.6498,submitButton,0.056002604,-0.237625868,0,0,0,2,45,165,15,1,31,69220,1,180,2022-02-10_16h52.07.610,orientation adjustment 1,2021.2.3,MacIntel,60.0024001,,,,,,,
,,,,,,,,,,,,,,,,,,,,,,27.77777778,27,20,75,26.77777778,0.222222222,0.222222222,-63.22222222,0.371636285,-0.289539931,1,0,0,0.0496,submitButton,-0.234678819,-0.372821181,0,0,0,2,46,166,11,1,27,69220,1,180,2022-02-10_16h52.07.610,orientation adjustment 1,2021.2.3,MacIntel,60.0024001,,,,,,,
,,,,,,,,,,,,,,,,,,,,,,-52.22222222,-60,20,75,-52.22222222,7.777777778,7.777777778,-142.2222222,-0.242638889,-0.394709201,1,0,0,2.0158,submitButton,0.109605035,-0.212899306,0,0,0,2,47,167,44,1,60,69220,1,180,2022-02-10_16h52.07.610,orientation adjustment 1,2021.2.3,MacIntel,60.0024001,,,,,,,
,,,,,,,,,,,,,,,,,,,,,,41.66666667,-74,20,75,-68.33333333,5.666666667,5.666666667,-158.3333333,-0.22953125,-0.398841146,1,0,0,1.1662,submitButton,-0.139001736,-0.317760417,0,0,0,2,48,168,58,1,74,69220,1,180,2022-02-10_16h52.07.610,orientation adjustment 1,2021.2.3,MacIntel,60.0024001,,,,,,,
,,,,,,,,,,,,,,,,,,,,,,75,40,20,75,35,5,5,-55,0.392860243,-0.314257813,1,0,0,1.5001,submitButton,0.307400174,0.052521701,0,0,0,2,49,169,24,1,40,69220,1,180,2022-02-10_16h52.07.610,orientation adjustment 1,2021.2.3,MacIntel,60.0024001,,,,,,,
,,,,,,,,,,,,,,,,,,,,,,-22.22222222,24,20,75,33.77777778,9.777777778,9.777777778,-56.22222222,-0.222738715,-0.399071181,1,0,0,1.3504,submitButton,-0.11608941,-0.293554688,0,0,0,2,50,170,8,1,24,69220,1,180,2022-02-10_16h52.07.610,orientation adjustment 1,2021.2.3,MacIntel,60.0024001,,,,,,,
,,,,,,,,,,,,,,,,,,,,,,-52.22222222,67,20,75,56.77777778,10.22222222,10.22222222,-33.22222222,-0.228333333,-0.392829861,1,0,0,1.4328,submitButton,0.010329861,-0.156232639,0,0,0,2,51,171,51,1,67,69220,1,180,2022-02-10_16h52.07.610,orientation adjustment 1,2021.2.3,MacIntel,60.0024001,,,,,,,
,,,,,,,,,,,,,,,,,,,,,,68.88888889,30,20,75,37.88888889,7.888888889,7.888888889,-52.11111111,0.378871528,-0.297261285,1,0,0,0.9164,submitButton,-0.017534722,-0.247508681,0,0,0,2,52,172,14,1,30,69220,1,180,2022-02-10_16h52.07.610,orientation adjustment 1,2021.2.3,MacIntel,60.0024001,,,,,,,
,,,,,,,,,,,,,,,,,,,,,,-71.11111111,28,20,75,36.88888889,8.888888889,8.888888889,-53.11111111,-0.232248264,-0.391215278,1,0,0,1.982,submitButton,0.033971354,-0.233945313,0,0,0,2,53,173,12,1,28,69220,1,180,2022-02-10_16h52.07.610,orientation adjustment 1,2021.2.3,MacIntel,60.0024001,,,,,,,
,,,,,,,,,,,,,,,,,,,,,,-35.55555556,72,20,75,78.44444444,6.444444444,6.444444444,-11.55555556,-0.207352431,-0.40078559,1,0,0,1.0331,submitButton,-0.059001736,-0.278758681,0,0,0,2,54,174,56,1,72,69220,1,180,2022-02-10_16h52.07.610,orientation adjustment 1,2021.2.3,MacIntel,60.0024001,,,,,,,
,,,,,,,,,,,,,,,,,,,,,,-43.33333333,-55,20,75,-48.33333333,6.666666667,6.666666667,-138.3333333,-0.242330729,-0.38796441,1,0,0,2.433,submitButton,-0.242330729,-0.38796441,0,0,0,2,55,175,39,1,55,69220,1,180,2022-02-10_16h52.07.610,orientation adjustment 1,2021.2.3,MacIntel,60.0024001,,,,,,,
,,,,,,,,,,,,,,,,,,,,,,28.88888889,-44,20,75,-15.11111111,28.88888889,28.88888889,-105.1111111,-0.479891493,-0.391462674,1,0,0,24.6158,submitButton,-0.479891493,-0.391462674,0,0,0,2,56,176,28,1,44,69220,1,180,2022-02-10_16h52.07.610,orientation adjustment 1,2021.2.3,MacIntel,60.0024001,,,,,,,
,,,,,,,,,,,,,,,,,,,,,,68.33333333,39,20,75,66.33333333,27.33333333,27.33333333,-23.66666667,0.391957465,-0.287482639,1,0,0,0.4158,submitButton,-0.235394965,-0.369053819,0,0,0,2,57,177,23,1,39,69220,1,180,2022-02-10_16h52.07.610,orientation adjustment 1,2021.2.3,MacIntel,60.0024001,,,,,,,
,,,,,,,,,,,,,,,,,,,,,,57.77777778,50,20,75,107.7777778,57.77777778,57.77777778,17.77777778,-0.184657118,-0.406844618,1,0,0,1.3664,submitButton,-0.184657118,-0.406844618,0,0,0,2,58,178,34,1,50,69220,1,180,2022-02-10_16h52.07.610,orientation adjustment 1,2021.2.3,MacIntel,60.0024001,,,,,,,
,,,,,,,,,,,,,,,,,,,,,,-61.66666667,25,20,75,-36.66666667,61.66666667,61.66666667,-126.6666667,-0.268971354,-0.389665799,1,0,0,24.2148,submitButton,0.229123264,-0.161597222,0,0,0,2,59,179,9,1,25,69220,1,180,2022-02-10_16h52.07.610,orientation adjustment 1,2021.2.3,MacIntel,60.0024001,,,,,,,
,,,,,,,,,,,,,,,,,,,,,,,,,,,,,,,,,,,,,,,,,,,,,,,,69220,1,180,2022-02-10_16h52.07.610,orientation adjustment 1,2021.2.3,MacIntel,60.0024001,,0.342886285,-0.403242188,1,0,0,EndButtonTxt
