consentMouse1.x,consentMouse1.y,consentMouse1.leftButton,consentMouse1.midButton,consentMouse1.rightButton,consentMouse1.clicked_name,consent_Mouse.x,consent_Mouse.y,consent_Mouse.leftButton,consent_Mouse.midButton,consent_Mouse.rightButton,consent_Mouse.clicked_name,startMouse.x,startMouse.y,startMouse.leftButton,startMouse.midButton,startMouse.rightButton,startMouse_2.x,startMouse_2.y,startMouse_2.leftButton,startMouse_2.midButton,startMouse_2.rightButton,start_distance,fixedOri,minimalDistance,maxOri,this_ori,accuracy,presented_accuracy,presented_this_ori,submitMouse.x,submitMouse.y,submitMouse.leftButton,submitMouse.midButton,submitMouse.rightButton,submitMouse.time,submitMouse.clicked_name,pauseMouse.x,pauseMouse.y,pauseMouse.leftButton,pauseMouse.midButton,pauseMouse.rightButton,trials.thisRepN,trials.thisTrialN,trials.thisN,trials.thisIndex,trials.ran,startOri,participant,condition,nTrials,date,expName,psychopyVersion,OS,frameRate,pauseMouse.clicked_name,EndButtonMouse.x,EndButtonMouse.y,EndButtonMouse.leftButton,EndButtonMouse.midButton,EndButtonMouse.rightButton,EndButtonMouse.clicked_name
0.280147569,-0.392842882,1,0,0,consent_button1,0.372044271,-0.397947049,1,0,0,consent_button,-0.162005208,-0.21780816,1,0,0,-0.090672743,-0.373038194,1,0,0,30.55555556,-40,20,75,-23.44444444,16.55555556,16.55555556,-113.4444444,0.374596354,-0.309921875,1,0,0,0.315,submitButton,-0.061145833,-0.263007812,0,0,0,0,0,0,24,1,40,69358,1,180,2022-02-10_21h32.28.936,orientation adjustment 1,2021.2.3,MacIntel,59.99880002,,,,,,,
,,,,,,,,,,,,,,,,,,,,,,-61.11111111,-20,20,75,-185.1111111,14.88888889,14.88888889,-275.1111111,0.372912326,-0.280217014,1,0,0,0.7665,submitButton,0.106241319,-0.341888021,0,0,0,0,1,1,4,1,20,69358,1,180,2022-02-10_21h32.28.936,orientation adjustment 1,2021.2.3,MacIntel,59.99880002,,,,,,,
,,,,,,,,,,,,,,,,,,,,,,-43.88888889,-61,20,75,-262.8888889,21.88888889,21.88888889,-352.8888889,0.39296875,-0.284982639,1,0,0,0.7844,submitButton,0.038190104,-0.263172743,0,0,0,0,2,2,45,1,61,69358,1,180,2022-02-10_21h32.28.936,orientation adjustment 1,2021.2.3,MacIntel,59.99880002,,,,,,,
,,,,,,,,,,,,,,,,,,,,,,41.66666667,58,20,75,221.6666667,16.33333333,16.33333333,131.6666667,-0.19875434,-0.408780382,1,0,0,2.6499,submitButton,-0.108033854,-0.368467882,0,0,0,0,3,3,42,1,58,69358,1,180,2022-02-10_21h32.28.936,orientation adjustment 1,2021.2.3,MacIntel,59.99880002,,,,,,,
,,,,,,,,,,,,,,,,,,,,,,38.88888889,72,20,75,208.8888889,43.11111111,43.11111111,118.8888889,-0.227243924,-0.436671007,1,0,0,2.35,submitButton,-0.051193576,-0.349045139,0,0,0,0,4,4,56,1,72,69358,1,180,2022-02-10_21h32.28.936,orientation adjustment 1,2021.2.3,MacIntel,59.99880002,,,,,,,
,,,,,,,,,,,,,,,,,,,,,,42.77777778,50,20,75,222.7777778,7.222222222,7.222222222,132.7777778,0.20625434,-0.300516493,1,0,0,2.2998,submitButton,-0.206605903,-0.334965278,0,0,0,0,5,5,34,1,50,69358,1,180,2022-02-10_21h32.28.936,orientation adjustment 1,2021.2.3,MacIntel,59.99880002,,,,,,,
,,,,,,,,,,,,,,,,,,,,,,52.22222222,25,20,75,200.2222222,4.777777778,4.777777778,110.2222222,-0.340963542,-0.429301215,1,0,0,2.3,submitButton,-0.044401042,-0.268710938,0,0,0,0,6,6,9,1,25,69358,1,180,2022-02-10_21h32.28.936,orientation adjustment 1,2021.2.3,MacIntel,59.99880002,,,,,,,
,,,,,,,,,,,,,,,,,,,,,,-40.55555556,-54,20,75,-220.5555556,13.44444444,13.44444444,-310.5555556,0.415190972,-0.288780382,1,0,0,3.866,submitButton,-0.108016493,-0.40109809,0,0,0,0,7,7,38,1,54,69358,1,180,2022-02-10_21h32.28.936,orientation adjustment 1,2021.2.3,MacIntel,59.99880002,,,,,,,
,,,,,,,,,,,,,,,,,,,,,,31.66666667,-59,20,75,-45.33333333,13.66666667,13.66666667,-135.3333333,0.376775174,-0.293524306,1,0,0,25.8844,submitButton,0.136957465,-0.327539062,0,0,0,0,8,8,43,1,59,69358,1,180,2022-02-10_21h32.28.936,orientation adjustment 1,2021.2.3,MacIntel,59.99880002,,,,,,,
,,,,,,,,,,,,,,,,,,,,,,-58.88888889,-60,20,75,-232.8888889,7.111111111,7.111111111,-322.8888889,-0.258250868,-0.396853299,1,0,0,2.3166,submitButton,0.120972222,-0.329947917,0,0,0,0,9,9,44,1,60,69358,1,180,2022-02-10_21h32.28.936,orientation adjustment 1,2021.2.3,MacIntel,59.99880002,,,,,,,
,,,,,,,,,,,,,,,,,,,,,,-71.66666667,63,20,75,44.33333333,18.66666667,18.66666667,-45.66666667,0.392044271,-0.30874566,1,0,0,1.6665,submitButton,-0.271332465,-0.384800347,0,0,0,0,10,10,47,1,63,69358,1,180,2022-02-10_21h32.28.936,orientation adjustment 1,2021.2.3,MacIntel,59.99880002,,,,,,,
,,,,,,,,,,,,,,,,,,,,,,-67.77777778,68,20,75,60.22222222,7.777777778,7.777777778,-29.77777778,0.173142361,-0.316384549,1,0,0,0.1502,submitButton,-0.210720486,-0.336914063,0,0,0,0,11,11,52,1,68,69358,1,180,2022-02-10_21h32.28.936,orientation adjustment 1,2021.2.3,MacIntel,59.99880002,,,,,,,
,,,,,,,,,,,,,,,,,,,,,,-72.77777778,-36,20,75,-207.7777778,8.222222222,8.222222222,-297.7777778,-0.232999132,-0.414322917,1,0,0,2.1164,submitButton,-0.232999132,-0.414322917,0,0,0,0,12,12,20,1,36,69358,1,180,2022-02-10_21h32.28.936,orientation adjustment 1,2021.2.3,MacIntel,59.99880002,,,,,,,
,,,,,,,,,,,,,,,,,,,,,,60,-41,20,75,-34,7,7,-124,-0.162747396,-0.405681424,1,0,0,1.1494,submitButton,-0.162747396,-0.405681424,0,0,0,0,13,13,25,1,41,69358,1,180,2022-02-10_21h32.28.936,orientation adjustment 1,2021.2.3,MacIntel,59.99880002,,,,,,,
,,,,,,,,,,,,,,,,,,,,,,-21.66666667,24,20,75,17.33333333,6.666666667,6.666666667,-72.66666667,0.373033854,-0.293372396,1,0,0,0.583,submitButton,0.294314236,-0.383671875,1,0,0,0,14,14,8,1,24,69358,1,180,2022-02-10_21h32.28.936,orientation adjustment 1,2021.2.3,MacIntel,59.99880002,pause_continueButton,,,,,,
,,,,,,,,,,,,,,,,,,,,,,-32.77777778,-26,20,75,-13.77777778,12.22222222,12.22222222,-103.7777778,0.212430556,-0.306744792,1,0,0,0.6678,submitButton,0.190351562,-0.275998264,0,0,0,0,15,15,10,1,26,69358,1,180,2022-02-10_21h32.28.936,orientation adjustment 1,2021.2.3,MacIntel,59.99880002,,,,,,,
,,,,,,,,,,,,,,,,,,,,,,72.77777778,51,20,75,217.7777778,13.22222222,13.22222222,127.7777778,-0.151519097,-0.440664063,1,0,0,1.4342,submitButton,-0.065347222,-0.361297743,0,0,0,0,16,16,35,1,51,69358,1,180,2022-02-10_21h32.28.936,orientation adjustment 1,2021.2.3,MacIntel,59.99880002,,,,,,,
,,,,,,,,,,,,,,,,,,,,,,40.55555556,-42,20,75,-35.44444444,6.555555556,6.555555556,-125.4444444,0.232395833,-0.310021701,1,0,0,0.7501,submitButton,0.023884549,-0.3434375,0,0,0,0,17,17,26,1,42,69358,1,180,2022-02-10_21h32.28.936,orientation adjustment 1,2021.2.3,MacIntel,59.99880002,,,,,,,
,,,,,,,,,,,,,,,,,,,,,,-33.33333333,62,20,75,46.66666667,15.33333333,15.33333333,-43.33333333,0.406488715,-0.310707465,1,0,0,0.4996,submitButton,-0.006940104,-0.374513889,0,0,0,0,18,18,46,1,62,69358,1,180,2022-02-10_21h32.28.936,orientation adjustment 1,2021.2.3,MacIntel,59.99880002,,,,,,,
,,,,,,,,,,,,,,,,,,,,,,-38.33333333,-45,20,75,-55.33333333,10.33333333,10.33333333,-145.3333333,0.171467014,-0.277734375,1,0,0,0.5167,submitButton,-0.174674479,-0.418615451,0,0,0,0,19,19,29,1,45,69358,1,180,2022-02-10_21h32.28.936,orientation adjustment 1,2021.2.3,MacIntel,59.99880002,,,,,,,
,,,,,,,,,,,,,,,,,,,,,,-23.33333333,-56,20,75,-41.33333333,14.66666667,14.66666667,-131.3333333,0.385360243,-0.283342014,1,0,0,0.1328,submitButton,0.226857639,-0.381032986,0,0,0,0,20,20,40,1,56,69358,1,180,2022-02-10_21h32.28.936,orientation adjustment 1,2021.2.3,MacIntel,59.99880002,,,,,,,
,,,,,,,,,,,,,,,,,,,,,,22.22222222,-19,20,75,-7.777777778,11.22222222,11.22222222,-97.77777778,0.469774306,-0.28108941,1,0,0,0.7331,submitButton,-0.046618924,-0.370147569,0,0,0,0,21,21,3,1,19,69358,1,180,2022-02-10_21h32.28.936,orientation adjustment 1,2021.2.3,MacIntel,59.99880002,,,,,,,
,,,,,,,,,,,,,,,,,,,,,,28.88888889,23,20,75,35.88888889,12.88888889,12.88888889,-54.11111111,0.40172309,-0.290894097,1,0,0,1.5496,submitButton,-0.148819444,-0.421163194,0,0,0,0,22,22,7,1,23,69358,1,180,2022-02-10_21h32.28.936,orientation adjustment 1,2021.2.3,MacIntel,59.99880002,,,,,,,
,,,,,,,,,,,,,,,,,,,,,,-50.55555556,-27,20,75,-30.55555556,3.555555556,3.555555556,-120.5555556,0.202925347,-0.30593316,1,0,0,7.4326,submitButton,-0.212921007,-0.407352431,0,0,0,0,23,23,11,1,27,69358,1,180,2022-02-10_21h32.28.936,orientation adjustment 1,2021.2.3,MacIntel,59.99880002,,,,,,,
,,,,,,,,,,,,,,,,,,,,,,-27.22222222,-44,20,75,-36.22222222,7.777777778,7.777777778,-126.2222222,0.210212674,-0.286102431,1,0,0,0.0995,submitButton,-0.157443576,-0.394635417,0,0,0,0,24,24,28,1,44,69358,1,180,2022-02-10_21h32.28.936,orientation adjustment 1,2021.2.3,MacIntel,59.99880002,,,,,,,
,,,,,,,,,,,,,,,,,,,,,,-65,-48,20,75,-49,1,1,-139,0.190186632,-0.312057292,1,0,0,0.1167,submitButton,-0.189405382,-0.404670139,0,0,0,0,25,25,32,1,48,69358,1,180,2022-02-10_21h32.28.936,orientation adjustment 1,2021.2.3,MacIntel,59.99880002,,,,,,,
,,,,,,,,,,,,,,,,,,,,,,70,74,20,75,241,13,13,151,-0.206471354,-0.413927951,1,0,0,2.3167,submitButton,-0.206471354,-0.413927951,0,0,0,0,26,26,58,1,74,69358,1,180,2022-02-10_21h32.28.936,orientation adjustment 1,2021.2.3,MacIntel,59.99880002,,,,,,,
,,,,,,,,,,,,,,,,,,,,,,-62.22222222,-35,20,75,-29.22222222,5.777777778,5.777777778,-119.2222222,0.211471354,-0.296041667,1,0,0,0.633,submitButton,-0.056927083,-0.327756076,0,0,0,0,27,27,19,1,35,69358,1,180,2022-02-10_21h32.28.936,orientation adjustment 1,2021.2.3,MacIntel,59.99880002,,,,,,,
,,,,,,,,,,,,,,,,,,,,,,43.88888889,33,20,75,205.8888889,7.111111111,7.111111111,115.8888889,0.200069444,-0.287118056,1,0,0,1.8004,submitButton,0.027013889,-0.299071181,0,0,0,0,28,28,17,1,33,69358,1,180,2022-02-10_21h32.28.936,orientation adjustment 1,2021.2.3,MacIntel,59.99880002,,,,,,,
,,,,,,,,,,,,,,,,,,,,,,61.66666667,-47,20,75,132.6666667,0.333333333,0.333333333,42.66666667,0.17859809,-0.306584201,1,0,0,2.1489,submitButton,0.264270833,-0.395546875,1,0,0,0,29,29,31,1,47,69358,1,180,2022-02-10_21h32.28.936,orientation adjustment 1,2021.2.3,MacIntel,59.99880002,pause_continueButton,,,,,,
,,,,,,,,,,,,,,,,,,,,,,39.44444444,70,20,75,230.4444444,19.55555556,19.55555556,140.4444444,0.193919271,-0.276545139,1,0,0,0.0161,submitButton,0.132508681,-0.280585937,0,0,0,0,30,30,54,1,70,69358,1,180,2022-02-10_21h32.28.936,orientation adjustment 1,2021.2.3,MacIntel,59.99880002,,,,,,,
,,,,,,,,,,,,,,,,,,,,,,-31.11111111,-52,20,75,-47.11111111,4.888888889,4.888888889,-137.1111111,0.224587674,-0.288884549,1,0,0,0.1829,submitButton,0.018320313,-0.34547309,0,0,0,0,31,31,36,1,52,69358,1,180,2022-02-10_21h32.28.936,orientation adjustment 1,2021.2.3,MacIntel,59.99880002,,,,,,,
,,,,,,,,,,,,,,,,,,,,,,40.55555556,53,20,75,229.5555556,3.444444444,3.444444444,139.5555556,0.180763889,-0.308081597,1,0,0,2.1496,submitButton,0.185269097,-0.168919271,0,0,0,0,32,32,37,1,53,69358,1,180,2022-02-10_21h32.28.936,orientation adjustment 1,2021.2.3,MacIntel,59.99880002,,,,,,,
,,,,,,,,,,,,,,,,,,,,,,-46.11111111,57,20,75,48.88888889,8.111111111,8.111111111,-41.11111111,0.377634549,-0.299982639,1,0,0,0.9352,submitButton,-0.063619792,-0.371840278,0,0,0,0,33,33,41,1,57,69358,1,180,2022-02-10_21h32.28.936,orientation adjustment 1,2021.2.3,MacIntel,59.99880002,,,,,,,
,,,,,,,,,,,,,,,,,,,,,,31.66666667,-43,20,75,-28.33333333,14.66666667,14.66666667,-118.3333333,0.371184896,-0.297421875,1,0,0,0.2172,submitButton,0.104262153,-0.377934028,0,0,0,0,34,34,27,1,43,69358,1,180,2022-02-10_21h32.28.936,orientation adjustment 1,2021.2.3,MacIntel,59.99880002,,,,,,,
,,,,,,,,,,,,,,,,,,,,,,-25.55555556,17,20,75,12.44444444,4.555555556,4.555555556,-77.55555556,-0.240651042,-0.429305556,1,0,0,0.5501,submitButton,-0.146857639,-0.377261285,0,0,0,0,35,35,1,1,17,69358,1,180,2022-02-10_21h32.28.936,orientation adjustment 1,2021.2.3,MacIntel,59.99880002,,,,,,,
,,,,,,,,,,,,,,,,,,,,,,-75,-18,20,75,-201,3,3,-291,0.344982639,-0.276866319,1,0,0,0.0344,submitButton,-0.144878472,-0.323936632,0,0,0,0,36,36,2,1,18,69358,1,180,2022-02-10_21h32.28.936,orientation adjustment 1,2021.2.3,MacIntel,59.99880002,,,,,,,
,,,,,,,,,,,,,,,,,,,,,,48.88888889,-49,20,75,-55.11111111,6.111111111,6.111111111,-145.1111111,0.372200521,-0.318880208,1,0,0,0.3834,submitButton,0.125347222,-0.192269965,0,0,0,0,37,37,33,1,49,69358,1,180,2022-02-10_21h32.28.936,orientation adjustment 1,2021.2.3,MacIntel,59.99880002,,,,,,,
,,,,,,,,,,,,,,,,,,,,,,31.11111111,66,20,75,243.1111111,2.888888889,2.888888889,153.1111111,0.215368924,-0.315190972,1,0,0,1.683,submitButton,0.162881944,-0.306657986,0,0,0,0,38,38,50,1,66,69358,1,180,2022-02-10_21h32.28.936,orientation adjustment 1,2021.2.3,MacIntel,59.99880002,,,,,,,
,,,,,,,,,,,,,,,,,,,,,,-48.33333333,37,20,75,21.66666667,15.33333333,15.33333333,-68.33333333,-0.202743056,-0.409639757,1,0,0,0.7331,submitButton,0.127864583,-0.312547743,0,0,0,0,39,39,21,1,37,69358,1,180,2022-02-10_21h32.28.936,orientation adjustment 1,2021.2.3,MacIntel,59.99880002,,,,,,,
,,,,,,,,,,,,,,,,,,,,,,-20,30,20,75,33,3,3,-57,-0.155638021,-0.395716146,1,0,0,0.5664,submitButton,0.100659722,-0.407135417,0,0,0,0,40,40,14,1,30,69358,1,180,2022-02-10_21h32.28.936,orientation adjustment 1,2021.2.3,MacIntel,59.99880002,,,,,,,
,,,,,,,,,,,,,,,,,,,,,,26.66666667,28,20,75,27.66666667,0.333333333,0.333333333,-62.33333333,0.470490451,-0.324522569,1,0,0,0.0834,submitButton,-0.168424479,-0.39531684,0,0,0,0,41,41,12,1,28,69358,1,180,2022-02-10_21h32.28.936,orientation adjustment 1,2021.2.3,MacIntel,59.99880002,,,,,,,
,,,,,,,,,,,,,,,,,,,,,,-56.66666667,-73,20,75,-63.66666667,9.333333333,9.333333333,-153.6666667,-0.254570313,-0.444813368,1,0,0,2.1334,submitButton,-0.052087674,-0.364036458,0,0,0,0,42,42,57,1,73,69358,1,180,2022-02-10_21h32.28.936,orientation adjustment 1,2021.2.3,MacIntel,59.99880002,,,,,,,
,,,,,,,,,,,,,,,,,,,,,,45.55555556,-64,20,75,-69.44444444,5.444444444,5.444444444,-159.4444444,0.379631076,-0.268302951,1,0,0,0.3835,submitButton,-0.039470486,-0.313346354,0,0,0,0,43,43,48,1,64,69358,1,180,2022-02-10_21h32.28.936,orientation adjustment 1,2021.2.3,MacIntel,59.99880002,,,,,,,
,,,,,,,,,,,,,,,,,,,,,,67.77777778,38,20,75,212.7777778,5.222222222,5.222222222,122.7777778,-0.223845486,-0.446597222,1,0,0,2.2,submitButton,0.210138889,-0.38187934,1,0,0,0,44,44,22,1,38,69358,1,180,2022-02-10_21h32.28.936,orientation adjustment 1,2021.2.3,MacIntel,59.99880002,pause_continueButton,,,,,,
,,,,,,,,,,,,,,,,,,,,,,51.11111111,65,20,75,241.1111111,3.888888889,3.888888889,151.1111111,0.162374132,-0.266154514,1,0,0,1.9319,submitButton,0.207673611,-0.282851562,0,0,0,0,45,45,49,1,65,69358,1,180,2022-02-10_21h32.28.936,orientation adjustment 1,2021.2.3,MacIntel,59.99880002,,,,,,,
,,,,,,,,,,,,,,,,,,,,,,-47.77777778,-29,20,75,-210.7777778,1.777777778,1.777777778,-300.7777778,-0.15875,-0.408363715,1,0,0,2.7994,submitButton,0.125703125,-0.333242188,0,0,0,0,46,46,13,1,29,69358,1,180,2022-02-10_21h32.28.936,orientation adjustment 1,2021.2.3,MacIntel,59.99880002,,,,,,,
,,,,,,,,,,,,,,,,,,,,,,-62.77777778,-55,20,75,-62.77777778,7.777777778,7.777777778,-152.7777778,-0.163927951,-0.419427083,1,0,0,1.0835,submitButton,0.078506944,-0.325429688,0,0,0,0,47,47,39,1,55,69358,1,180,2022-02-10_21h32.28.936,orientation adjustment 1,2021.2.3,MacIntel,59.99880002,,,,,,,
,,,,,,,,,,,,,,,,,,,,,,-70,-71,20,75,-59,12,12,-149,0.409292535,-0.293424479,1,0,0,1.6996,submitButton,0.132699653,-0.344435764,0,0,0,0,48,48,55,1,71,69358,1,180,2022-02-10_21h32.28.936,orientation adjustment 1,2021.2.3,MacIntel,59.99880002,,,,,,,
,,,,,,,,,,,,,,,,,,,,,,71.11111111,-22,20,75,159.1111111,1.111111111,1.111111111,69.11111111,0.188250868,-0.313059896,1,0,0,1.25,submitButton,0.053125,-0.270286458,0,0,0,0,49,49,6,1,22,69358,1,180,2022-02-10_21h32.28.936,orientation adjustment 1,2021.2.3,MacIntel,59.99880002,,,,,,,
,,,,,,,,,,,,,,,,,,,,,,20,-16,20,75,-11,5,5,-101,0.354991319,-0.290130208,1,0,0,0.3651,submitButton,0.088467882,-0.323606771,0,0,0,0,50,50,0,1,16,69358,1,180,2022-02-10_21h32.28.936,orientation adjustment 1,2021.2.3,MacIntel,59.99880002,,,,,,,
,,,,,,,,,,,,,,,,,,,,,,-30.55555556,46,20,75,38.44444444,7.555555556,7.555555556,-51.55555556,0.327669271,-0.296519097,1,0,0,0.1323,submitButton,0.155238715,-0.318819444,0,0,0,0,51,51,30,1,46,69358,1,180,2022-02-10_21h32.28.936,orientation adjustment 1,2021.2.3,MacIntel,59.99880002,,,,,,,
,,,,,,,,,,,,,,,,,,,,,,51.11111111,-67,20,75,121.1111111,8.111111111,8.111111111,31.11111111,0.204943576,-0.32094184,1,0,0,1.8837,submitButton,0.170269097,-0.311263021,0,0,0,0,52,52,51,1,67,69358,1,180,2022-02-10_21h32.28.936,orientation adjustment 1,2021.2.3,MacIntel,59.99880002,,,,,,,
,,,,,,,,,,,,,,,,,,,,,,46.11111111,32,20,75,210.1111111,1.888888889,1.888888889,120.1111111,-0.148181424,-0.394032118,1,0,0,2.2176,submitButton,0.263572049,-0.308832465,0,0,0,0,53,53,16,1,32,69358,1,180,2022-02-10_21h32.28.936,orientation adjustment 1,2021.2.3,MacIntel,59.99880002,,,,,,,
,,,,,,,,,,,,,,,,,,,,,,68.33333333,34,20,75,213.3333333,0.666666667,0.666666667,123.3333333,0.192378472,-0.298819444,1,0,0,1.6166,submitButton,0.113962674,-0.342065972,0,0,0,0,54,54,18,1,34,69358,1,180,2022-02-10_21h32.28.936,orientation adjustment 1,2021.2.3,MacIntel,59.99880002,,,,,,,
,,,,,,,,,,,,,,,,,,,,,,55,75,20,75,256,1,1,166,0.189483507,-0.311215278,1,0,0,1.6839,submitButton,0.288359375,-0.206241319,0,0,0,0,55,55,59,1,75,69358,1,180,2022-02-10_21h32.28.936,orientation adjustment 1,2021.2.3,MacIntel,59.99880002,,,,,,,
,,,,,,,,,,,,,,,,,,,,,,-33.33333333,69,20,75,72.66666667,3.666666667,3.666666667,-17.33333333,-0.145733507,-0.354427083,1,0,0,0.9488,submitButton,0.114097222,-0.322721354,0,0,0,0,56,56,53,1,69,69358,1,180,2022-02-10_21h32.28.936,orientation adjustment 1,2021.2.3,MacIntel,59.99880002,,,,,,,
,,,,,,,,,,,,,,,,,,,,,,-59.44444444,21,20,75,-175.4444444,16.44444444,16.44444444,-265.4444444,0.383090278,-0.329344618,1,0,0,2.2505,submitButton,-0.163042535,-0.375338542,0,0,0,0,57,57,5,1,21,69358,1,180,2022-02-10_21h32.28.936,orientation adjustment 1,2021.2.3,MacIntel,59.99880002,,,,,,,
,,,,,,,,,,,,,,,,,,,,,,20,39,20,75,34,5,5,-56,0.355529514,-0.30765625,1,0,0,19.9676,submitButton,-0.160173611,-0.371293403,0,0,0,0,58,58,23,1,39,69358,1,180,2022-02-10_21h32.28.936,orientation adjustment 1,2021.2.3,MacIntel,59.99880002,,,,,,,
,,,,,,,,,,,,,,,,,,,,,,25.55555556,31,20,75,30.55555556,0.444444444,0.444444444,-59.44444444,-0.289639757,-0.413081597,1,0,0,1.2996,submitButton,0.289023437,-0.376757813,1,0,0,0,59,59,15,1,31,69358,1,180,2022-02-10_21h32.28.936,orientation adjustment 1,2021.2.3,MacIntel,59.99880002,pause_continueButton,,,,,,
,,,,,,,,,,,,,,,,,,,,,,27.77777778,-19,20,75,-8.222222222,10.77777778,10.77777778,-98.22222222,0.379895833,-0.304474826,1,0,0,0.1827,submitButton,-0.018802083,-0.348962674,0,0,0,1,0,60,3,1,19,69358,1,180,2022-02-10_21h32.28.936,orientation adjustment 1,2021.2.3,MacIntel,59.99880002,,,,,,,
,,,,,,,,,,,,,,,,,,,,,,-66.11111111,16,20,75,18.88888889,2.888888889,2.888888889,-71.11111111,0.22124566,-0.295885417,1,0,0,0.8674,submitButton,-0.247460938,-0.415425347,0,0,0,1,1,61,0,1,16,69358,1,180,2022-02-10_21h32.28.936,orientation adjustment 1,2021.2.3,MacIntel,59.99880002,,,,,,,
,,,,,,,,,,,,,,,,,,,,,,70.55555556,68,20,75,263.5555556,15.55555556,15.55555556,173.5555556,0.178033854,-0.27609809,1,0,0,1.8991,submitButton,0.017543403,-0.344092882,0,0,0,1,2,62,52,1,68,69358,1,180,2022-02-10_21h32.28.936,orientation adjustment 1,2021.2.3,MacIntel,59.99880002,,,,,,,
,,,,,,,,,,,,,,,,,,,,,,50.55555556,40,20,75,33.55555556,6.444444444,6.444444444,-56.44444444,0.386940104,-0.29453125,1,0,0,0.2665,submitButton,-0.095980903,-0.401119792,0,0,0,1,3,63,24,1,40,69358,1,180,2022-02-10_21h32.28.936,orientation adjustment 1,2021.2.3,MacIntel,59.99880002,,,,,,,
,,,,,,,,,,,,,,,,,,,,,,-69.44444444,71,20,75,67.55555556,3.444444444,3.444444444,-22.44444444,0.212230903,-0.308849826,1,0,0,0.9338,submitButton,0.177391493,-0.273667535,0,0,0,1,4,64,55,1,71,69358,1,180,2022-02-10_21h32.28.936,orientation adjustment 1,2021.2.3,MacIntel,59.99880002,,,,,,,
,,,,,,,,,,,,,,,,,,,,,,-33.88888889,-39,20,75,-209.8888889,9.111111111,9.111111111,-299.8888889,-0.133615451,-0.392473958,1,0,0,2.567,submitButton,0.222161458,-0.259192708,0,0,0,1,5,65,23,1,39,69358,1,180,2022-02-10_21h32.28.936,orientation adjustment 1,2021.2.3,MacIntel,59.99880002,,,,,,,
,,,,,,,,,,,,,,,,,,,,,,-67.77777778,-58,20,75,-247.7777778,9.777777778,9.777777778,-337.7777778,0.211983507,-0.296506076,1,0,0,2.0498,submitButton,-0.000251736,-0.381818576,0,0,0,1,6,66,42,1,58,69358,1,180,2022-02-10_21h32.28.936,orientation adjustment 1,2021.2.3,MacIntel,59.99880002,,,,,,,
,,,,,,,,,,,,,,,,,,,,,,-55.55555556,-55,20,75,-69.55555556,14.55555556,14.55555556,-159.5555556,-0.169991319,-0.40140191,1,0,0,1.3,submitButton,0.139296875,-0.364136285,0,0,0,1,7,67,39,1,55,69358,1,180,2022-02-10_21h32.28.936,orientation adjustment 1,2021.2.3,MacIntel,59.99880002,,,,,,,
,,,,,,,,,,,,,,,,,,,,,,73.88888889,-66,20,75,112.8888889,1.111111111,1.111111111,22.88888889,-0.158993056,-0.442083333,1,0,0,2.1653,submitButton,-0.140972222,-0.396579861,0,0,0,1,8,68,50,1,66,69358,1,180,2022-02-10_21h32.28.936,orientation adjustment 1,2021.2.3,MacIntel,59.99880002,,,,,,,
,,,,,,,,,,,,,,,,,,,,,,26.11111111,-73,20,75,-68.88888889,4.111111111,4.111111111,-158.8888889,0.367673611,-0.291354167,1,0,0,0.6006,submitButton,-0.207161458,-0.388229167,0,0,0,1,9,69,57,1,73,69358,1,180,2022-02-10_21h32.28.936,orientation adjustment 1,2021.2.3,MacIntel,59.99880002,,,,,,,
,,,,,,,,,,,,,,,,,,,,,,-60.55555556,-20,20,75,-10.55555556,9.444444444,9.444444444,-100.5555556,0.196970486,-0.301909722,1,0,0,0.7819,submitButton,-0.009322917,-0.357452257,0,0,0,1,10,70,4,1,20,69358,1,180,2022-02-10_21h32.28.936,orientation adjustment 1,2021.2.3,MacIntel,59.99880002,,,,,,,
,,,,,,,,,,,,,,,,,,,,,,55.55555556,69,20,75,68.55555556,0.444444444,0.444444444,-21.44444444,0.395833333,-0.299422743,1,0,0,0.9501,submitButton,-0.213702257,-0.391840278,0,0,0,1,11,71,53,1,69,69358,1,180,2022-02-10_21h32.28.936,orientation adjustment 1,2021.2.3,MacIntel,59.99880002,,,,,,,
,,,,,,,,,,,,,,,,,,,,,,-23.33333333,56,20,75,45.66666667,10.33333333,10.33333333,-44.33333333,0.196011285,-0.305269097,1,0,0,0.2339,submitButton,-0.2578125,-0.424361979,0,0,0,1,12,72,40,1,56,69358,1,180,2022-02-10_21h32.28.936,orientation adjustment 1,2021.2.3,MacIntel,59.99880002,,,,,,,
,,,,,,,,,,,,,,,,,,,,,,-27.77777778,37,20,75,32.22222222,4.777777778,4.777777778,-57.77777778,0.174296875,-0.305894097,1,0,0,1.6835,submitButton,-0.254331597,-0.406293403,0,0,0,1,13,73,21,1,37,69358,1,180,2022-02-10_21h32.28.936,orientation adjustment 1,2021.2.3,MacIntel,59.99880002,,,,,,,
,,,,,,,,,,,,,,,,,,,,,,48.33333333,34,20,75,45.33333333,11.33333333,11.33333333,-44.66666667,0.22328125,-0.288350694,1,0,0,10.0005,submitButton,0.484726563,-0.375551215,1,0,0,1,14,74,18,1,34,69358,1,180,2022-02-10_21h32.28.936,orientation adjustment 1,2021.2.3,MacIntel,59.99880002,pause_continueButton,,,,,,
,,,,,,,,,,,,,,,,,,,,,,52.77777778,-24,20,75,-15.22222222,8.777777778,8.777777778,-105.2222222,-0.152608507,-0.413372396,1,0,0,1.3836,submitButton,0.194934896,-0.278802083,0,0,0,1,15,75,8,1,24,69358,1,180,2022-02-10_21h32.28.936,orientation adjustment 1,2021.2.3,MacIntel,59.99880002,,,,,,,
,,,,,,,,,,,,,,,,,,,,,,-27.77777778,60,20,75,50.22222222,9.777777778,9.777777778,-39.77777778,0.398793403,-0.276527778,1,0,0,0.2163,submitButton,0.092721354,-0.304027778,0,0,0,1,16,76,44,1,60,69358,1,180,2022-02-10_21h32.28.936,orientation adjustment 1,2021.2.3,MacIntel,59.99880002,,,,,,,
,,,,,,,,,,,,,,,,,,,,,,-66.66666667,42,20,75,24.33333333,17.66666667,17.66666667,-65.66666667,-0.088736979,-0.403828125,1,0,0,1.3834,submitButton,0.090125868,-0.281050347,0,0,0,1,17,77,26,1,42,69358,1,180,2022-02-10_21h32.28.936,orientation adjustment 1,2021.2.3,MacIntel,59.99880002,,,,,,,
,,,,,,,,,,,,,,,,,,,,,,-26.66666667,-17,20,75,-16.66666667,0.333333333,0.333333333,-106.6666667,0.385985243,-0.26437934,1,0,0,0.483,submitButton,-0.167721354,-0.390737847,0,0,0,1,18,78,1,1,17,69358,1,180,2022-02-10_21h32.28.936,orientation adjustment 1,2021.2.3,MacIntel,59.99880002,,,,,,,
,,,,,,,,,,,,,,,,,,,,,,-43.33333333,64,20,75,43.66666667,20.33333333,20.33333333,-46.33333333,0.202712674,-0.302447917,1,0,0,0.1166,submitButton,-0.127947049,-0.38828559,0,0,0,1,19,79,48,1,64,69358,1,180,2022-02-10_21h32.28.936,orientation adjustment 1,2021.2.3,MacIntel,59.99880002,,,,,,,
,,,,,,,,,,,,,,,,,,,,,,-50,62,20,75,53,9,9,-37,-0.120850694,-0.379939236,1,0,0,0.9327,submitButton,0.086957465,-0.304618056,0,0,0,1,20,80,46,1,62,69358,1,180,2022-02-10_21h32.28.936,orientation adjustment 1,2021.2.3,MacIntel,59.99880002,,,,,,,
,,,,,,,,,,,,,,,,,,,,,,-38.88888889,-43,20,75,-40.88888889,2.111111111,2.111111111,-130.8888889,0.186471354,-0.31483941,1,0,0,0.0829,submitButton,0.040130208,-0.356545139,0,0,0,1,21,81,27,1,43,69358,1,180,2022-02-10_21h32.28.936,orientation adjustment 1,2021.2.3,MacIntel,59.99880002,,,,,,,
,,,,,,,,,,,,,,,,,,,,,,72.77777778,-31,20,75,-26.22222222,4.777777778,4.777777778,-116.2222222,0.372048611,-0.295902778,1,0,0,1.2503,submitButton,-0.168628472,-0.395720486,0,0,0,1,22,82,15,1,31,69358,1,180,2022-02-10_21h32.28.936,orientation adjustment 1,2021.2.3,MacIntel,59.99880002,,,,,,,
,,,,,,,,,,,,,,,,,,,,,,46.11111111,-70,20,75,-58.88888889,11.11111111,11.11111111,-148.8888889,0.350026042,-0.310125868,1,0,0,0.3334,submitButton,0.137977431,-0.317595486,0,0,0,1,23,83,54,1,70,69358,1,180,2022-02-10_21h32.28.936,orientation adjustment 1,2021.2.3,MacIntel,59.99880002,,,,,,,
,,,,,,,,,,,,,,,,,,,,,,-30,36,20,75,26,10,10,-64,0.415091146,-0.293823785,1,0,0,0.2328,submitButton,0.036506076,-0.355789931,0,0,0,1,24,84,20,1,36,69358,1,180,2022-02-10_21h32.28.936,orientation adjustment 1,2021.2.3,MacIntel,59.99880002,,,,,,,
,,,,,,,,,,,,,,,,,,,,,,50.55555556,38,20,75,222.5555556,4.555555556,4.555555556,132.5555556,0.157634549,-0.314457465,1,0,0,1.5002,submitButton,-0.143025174,-0.392825521,0,0,0,1,25,85,22,1,38,69358,1,180,2022-02-10_21h32.28.936,orientation adjustment 1,2021.2.3,MacIntel,59.99880002,,,,,,,
,,,,,,,,,,,,,,,,,,,,,,-55,-25,20,75,-24,1,1,-114,0.191861979,-0.300763889,1,0,0,0.1827,submitButton,-0.04422309,-0.337387153,0,0,0,1,26,86,9,1,25,69358,1,180,2022-02-10_21h32.28.936,orientation adjustment 1,2021.2.3,MacIntel,59.99880002,,,,,,,
,,,,,,,,,,,,,,,,,,,,,,50.55555556,-33,20,75,-17.44444444,15.55555556,15.55555556,-107.4444444,0.387074653,-0.288867188,1,0,0,0.2831,submitButton,0.071449653,-0.337712674,0,0,0,1,27,87,17,1,33,69358,1,180,2022-02-10_21h32.28.936,orientation adjustment 1,2021.2.3,MacIntel,59.99880002,,,,,,,
,,,,,,,,,,,,,,,,,,,,,,-41.11111111,-67,20,75,-53.11111111,13.88888889,13.88888889,-143.1111111,0.139448785,-0.305507812,1,0,0,1.5508,submitButton,-0.182578125,-0.407105035,0,0,0,1,28,88,51,1,67,69358,1,180,2022-02-10_21h32.28.936,orientation adjustment 1,2021.2.3,MacIntel,59.99880002,,,,,,,
,,,,,,,,,,,,,,,,,,,,,,-56.66666667,-61,20,75,-237.6666667,3.333333333,3.333333333,-327.6666667,0.398337674,-0.295134549,1,0,0,2.7009,submitButton,0.402387153,-0.402369792,1,0,0,1,29,89,45,1,61,69358,1,180,2022-02-10_21h32.28.936,orientation adjustment 1,2021.2.3,MacIntel,59.99880002,pause_continueButton,,,,,,
,,,,,,,,,,,,,,,,,,,,,,-21.11111111,-47,20,75,-50.11111111,3.111111111,3.111111111,-140.1111111,0.212795139,-0.303051215,1,0,0,2.433,submitButton,0.112209201,-0.254301215,0,0,0,1,30,90,31,1,47,69358,1,180,2022-02-10_21h32.28.936,orientation adjustment 1,2021.2.3,MacIntel,59.99880002,,,,,,,
,,,,,,,,,,,,,,,,,,,,,,-33.88888889,48,20,75,39.11111111,8.888888889,8.888888889,-50.88888889,0.168680556,-0.319296875,1,0,0,0.3836,submitButton,0.095325521,-0.294461806,0,0,0,1,31,91,32,1,48,69358,1,180,2022-02-10_21h32.28.936,orientation adjustment 1,2021.2.3,MacIntel,59.99880002,,,,,,,
,,,,,,,,,,,,,,,,,,,,,,32.77777778,29,20,75,20.77777778,8.222222222,8.222222222,-69.22222222,0.397860243,-0.318402778,1,0,0,0.3836,submitButton,-0.27905816,-0.395,0,0,0,1,32,92,13,1,29,69358,1,180,2022-02-10_21h32.28.936,orientation adjustment 1,2021.2.3,MacIntel,59.99880002,,,,,,,
,,,,,,,,,,,,,,,,,,,,,,-66.11111111,-57,20,75,-64.11111111,7.111111111,7.111111111,-154.1111111,-0.197278646,-0.39562066,1,0,0,1.7331,submitButton,-0.197278646,-0.39562066,0,0,0,1,33,93,41,1,57,69358,1,180,2022-02-10_21h32.28.936,orientation adjustment 1,2021.2.3,MacIntel,59.99880002,,,,,,,
,,,,,,,,,,,,,,,,,,,,,,-58.88888889,44,20,75,-29.88888889,73.88888889,73.88888889,-119.8888889,0.35984375,-0.288355035,1,0,0,0.8333,submitButton,-0.258958333,-0.412925347,0,0,0,1,34,94,28,1,44,69358,1,180,2022-02-10_21h32.28.936,orientation adjustment 1,2021.2.3,MacIntel,59.99880002,,,,,,,
,,,,,,,,,,,,,,,,,,,,,,-63.88888889,74,20,75,56.11111111,17.88888889,17.88888889,-33.88888889,0.116054688,-0.309822049,1,0,0,0.4669,submitButton,0.095902778,-0.317269965,0,0,0,1,35,95,58,1,74,69358,1,180,2022-02-10_21h32.28.936,orientation adjustment 1,2021.2.3,MacIntel,59.99880002,,,,,,,
,,,,,,,,,,,,,,,,,,,,,,-65,-54,20,75,-227,7,7,-317,-0.13593316,-0.398789063,1,0,0,2.3995,submitButton,-0.048420139,-0.388654514,0,0,0,1,36,96,38,1,54,69358,1,180,2022-02-10_21h32.28.936,orientation adjustment 1,2021.2.3,MacIntel,59.99880002,,,,,,,
,,,,,,,,,,,,,,,,,,,,,,-50,-21,20,75,-30,9,9,-120,0.216835937,-0.305894097,1,0,0,0.2503,submitButton,-0.136323785,-0.394470486,0,0,0,1,37,97,5,1,21,69358,1,180,2022-02-10_21h32.28.936,orientation adjustment 1,2021.2.3,MacIntel,59.99880002,,,,,,,
,,,,,,,,,,,,,,,,,,,,,,-68.88888889,-30,20,75,-16.88888889,13.11111111,13.11111111,-106.8888889,0.197699653,-0.288107639,1,0,0,1.1003,submitButton,0.101076389,-0.283294271,0,0,0,1,38,98,14,1,30,69358,1,180,2022-02-10_21h32.28.936,orientation adjustment 1,2021.2.3,MacIntel,59.99880002,,,,,,,
,,,,,,,,,,,,,,,,,,,,,,33.33333333,46,20,75,226.3333333,0.333333333,0.333333333,136.3333333,0.208211806,-0.293546007,1,0,0,2.1501,submitButton,0.03062066,-0.289652778,0,0,0,1,39,99,30,1,46,69358,1,180,2022-02-10_21h32.28.936,orientation adjustment 1,2021.2.3,MacIntel,59.99880002,,,,,,,
,,,,,,,,,,,,,,,,,,,,,,-60.55555556,32,20,75,23.44444444,8.555555556,8.555555556,-66.55555556,0.188914931,-0.311918403,1,0,0,0.333,submitButton,-0.145299479,-0.37906684,0,0,0,1,40,100,16,1,32,69358,1,180,2022-02-10_21h32.28.936,orientation adjustment 1,2021.2.3,MacIntel,59.99880002,,,,,,,
,,,,,,,,,,,,,,,,,,,,,,-45.55555556,-59,20,75,-230.5555556,8.444444444,8.444444444,-320.5555556,0.37968316,-0.299401042,1,0,0,2.3499,submitButton,-0.190659722,-0.408663194,0,0,0,1,41,101,43,1,59,69358,1,180,2022-02-10_21h32.28.936,orientation adjustment 1,2021.2.3,MacIntel,59.99880002,,,,,,,
,,,,,,,,,,,,,,,,,,,,,,-52.77777778,45,20,75,34.22222222,10.77777778,10.77777778,-55.77777778,0.209431424,-0.31718316,1,0,0,0.2666,submitButton,-0.268554688,-0.40984809,0,0,0,1,42,102,29,1,45,69358,1,180,2022-02-10_21h32.28.936,orientation adjustment 1,2021.2.3,MacIntel,59.99880002,,,,,,,
,,,,,,,,,,,,,,,,,,,,,,69.44444444,-50,20,75,-38.55555556,11.44444444,11.44444444,-128.5555556,-0.134756944,-0.406471354,1,0,0,1.5824,submitButton,-0.026614583,-0.378363715,0,0,0,1,43,103,34,1,50,69358,1,180,2022-02-10_21h32.28.936,orientation adjustment 1,2021.2.3,MacIntel,59.99880002,,,,,,,
,,,,,,,,,,,,,,,,,,,,,,-48.33333333,72,20,75,62.66666667,9.333333333,9.333333333,-27.33333333,0.143337674,-0.317052951,1,0,0,0.4164,submitButton,0.359921875,-0.380794271,1,0,0,1,44,104,56,1,72,69358,1,180,2022-02-10_21h32.28.936,orientation adjustment 1,2021.2.3,MacIntel,59.99880002,pause_continueButton,,,,,,
,,,,,,,,,,,,,,,,,,,,,,-23.88888889,53,20,75,15.11111111,37.88888889,37.88888889,-74.88888889,0.384739583,-0.315894097,1,0,0,1.1823,submitButton,0.026966146,-0.356193576,0,0,0,1,45,105,37,1,53,69358,1,180,2022-02-10_21h32.28.936,orientation adjustment 1,2021.2.3,MacIntel,59.99880002,,,,,,,
,,,,,,,,,,,,,,,,,,,,,,-74.44444444,41,20,75,45.55555556,4.555555556,4.555555556,-44.44444444,-0.146644965,-0.374184028,1,0,0,1.4493,submitButton,0.065039062,-0.336922743,0,0,0,1,46,106,25,1,41,69358,1,180,2022-02-10_21h32.28.936,orientation adjustment 1,2021.2.3,MacIntel,59.99880002,,,,,,,
,,,,,,,,,,,,,,,,,,,,,,-23.33333333,18,20,75,19.66666667,1.666666667,1.666666667,-70.33333333,0.424891493,-0.297543403,1,0,0,0.8836,submitButton,-0.124305556,-0.412013889,0,0,0,1,47,107,2,1,18,69358,1,180,2022-02-10_21h32.28.936,orientation adjustment 1,2021.2.3,MacIntel,59.99880002,,,,,,,
,,,,,,,,,,,,,,,,,,,,,,38.88888889,-28,20,75,-23.11111111,4.888888889,4.888888889,-113.1111111,0.38062066,-0.307287326,1,0,0,0.5329,submitButton,-0.292747396,-0.405138889,0,0,0,1,48,108,12,1,28,69358,1,180,2022-02-10_21h32.28.936,orientation adjustment 1,2021.2.3,MacIntel,59.99880002,,,,,,,
,,,,,,,,,,,,,,,,,,,,,,46.66666667,23,20,75,193.6666667,9.333333333,9.333333333,103.6666667,0.191992187,-0.298051215,1,0,0,0.3839,submitButton,-0.165269097,-0.418658854,0,0,0,1,49,109,7,1,23,69358,1,180,2022-02-10_21h32.28.936,orientation adjustment 1,2021.2.3,MacIntel,59.99880002,,,,,,,
,,,,,,,,,,,,,,,,,,,,,,63.33333333,65,20,75,133.3333333,68.33333333,68.33333333,43.33333333,0.202135417,-0.307747396,1,0,0,1.1661,submitButton,-0.113094618,-0.389210069,0,0,0,1,50,110,49,1,65,69358,1,180,2022-02-10_21h32.28.936,orientation adjustment 1,2021.2.3,MacIntel,59.99880002,,,,,,,
,,,,,,,,,,,,,,,,,,,,,,36.66666667,-52,20,75,-49.33333333,2.666666667,2.666666667,-139.3333333,0.396762153,-0.300021701,1,0,0,0.1669,submitButton,0.142430556,-0.354344618,0,0,0,1,51,111,36,1,52,69358,1,180,2022-02-10_21h32.28.936,orientation adjustment 1,2021.2.3,MacIntel,59.99880002,,,,,,,
,,,,,,,,,,,,,,,,,,,,,,-32.22222222,-27,20,75,-36.22222222,9.222222222,9.222222222,-126.2222222,0.384956597,-0.285290799,1,0,0,0.0511,submitButton,-0.015013021,-0.362052951,0,0,0,1,52,112,11,1,27,69358,1,180,2022-02-10_21h32.28.936,orientation adjustment 1,2021.2.3,MacIntel,59.99880002,,,,,,,
,,,,,,,,,,,,,,,,,,,,,,38.33333333,-63,20,75,-53.66666667,9.333333333,9.333333333,-143.6666667,0.367625868,-0.305837674,1,0,0,0.5827,submitButton,0.086358507,-0.360642361,0,0,0,1,53,113,47,1,63,69358,1,180,2022-02-10_21h32.28.936,orientation adjustment 1,2021.2.3,MacIntel,59.99880002,,,,,,,
,,,,,,,,,,,,,,,,,,,,,,-41.66666667,-22,20,75,-26.66666667,4.666666667,4.666666667,-116.6666667,0.199348958,-0.299787326,1,0,0,0.3001,submitButton,-0.176657986,-0.380507812,0,0,0,1,54,114,6,1,22,69358,1,180,2022-02-10_21h32.28.936,orientation adjustment 1,2021.2.3,MacIntel,59.99880002,,,,,,,
,,,,,,,,,,,,,,,,,,,,,,55,-49,20,75,-37,12,12,-127,0.320277778,-0.289882812,1,0,0,0.2657,submitButton,-0.215950521,-0.387834201,0,0,0,1,55,115,33,1,49,69358,1,180,2022-02-10_21h32.28.936,orientation adjustment 1,2021.2.3,MacIntel,59.99880002,,,,,,,
,,,,,,,,,,,,,,,,,,,,,,51.11111111,75,20,75,85.11111111,10.11111111,10.11111111,-4.888888889,0.414340278,-0.311697049,1,0,0,0.8327,submitButton,-0.230442708,-0.416067708,0,0,0,1,56,116,59,1,75,69358,1,180,2022-02-10_21h32.28.936,orientation adjustment 1,2021.2.3,MacIntel,59.99880002,,,,,,,
,,,,,,,,,,,,,,,,,,,,,,-33.33333333,-35,20,75,-20.33333333,14.66666667,14.66666667,-110.3333333,0.197721354,-0.293489583,1,0,0,0.0167,submitButton,-0.012795139,-0.382886285,0,0,0,1,57,117,19,1,35,69358,1,180,2022-02-10_21h32.28.936,orientation adjustment 1,2021.2.3,MacIntel,59.99880002,,,,,,,
,,,,,,,,,,,,,,,,,,,,,,-47.22222222,51,20,75,30.77777778,20.22222222,20.22222222,-59.22222222,-0.182760417,-0.404487847,1,0,0,0.6336,submitButton,-0.034752604,-0.367326389,0,0,0,1,58,118,35,1,51,69358,1,180,2022-02-10_21h32.28.936,orientation adjustment 1,2021.2.3,MacIntel,59.99880002,,,,,,,
,,,,,,,,,,,,,,,,,,,,,,72.77777778,-26,20,75,-25.22222222,0.777777778,0.777777778,-115.2222222,-0.087703993,-0.394210069,1,0,0,1.6012,submitButton,0.428398438,-0.389105903,1,0,0,1,59,119,10,1,26,69358,1,180,2022-02-10_21h32.28.936,orientation adjustment 1,2021.2.3,MacIntel,59.99880002,pause_continueButton,,,,,,
,,,,,,,,,,,,,,,,,,,,,,-38.33333333,56,20,75,46.66666667,9.333333333,9.333333333,-43.33333333,-0.193342014,-0.397057292,1,0,0,0.5835,submitButton,-0.193342014,-0.397057292,0,0,0,2,0,120,40,1,56,69358,1,180,2022-02-10_21h32.28.936,orientation adjustment 1,2021.2.3,MacIntel,59.99880002,,,,,,,
,,,,,,,,,,,,,,,,,,,,,,-70,-46,20,75,-29,17,17,-119,0.189366319,-0.26891059,1,0,0,0.4006,submitButton,-0.222278646,-0.381940104,0,0,0,2,1,121,30,1,46,69358,1,180,2022-02-10_21h32.28.936,orientation adjustment 1,2021.2.3,MacIntel,59.99880002,,,,,,,
,,,,,,,,,,,,,,,,,,,,,,65,43,20,75,212,11,11,122,-0.244461806,-0.373793403,1,0,0,2.2334,submitButton,-0.244461806,-0.373793403,0,0,0,2,2,122,27,1,43,69358,1,180,2022-02-10_21h32.28.936,orientation adjustment 1,2021.2.3,MacIntel,59.99880002,,,,,,,
,,,,,,,,,,,,,,,,,,,,,,-33.88888889,-62,20,75,-67.88888889,5.888888889,5.888888889,-157.8888889,0.408945312,-0.301011285,1,0,0,0.9664,submitButton,-0.176002604,-0.344014757,0,0,0,2,3,123,46,1,62,69358,1,180,2022-02-10_21h32.28.936,orientation adjustment 1,2021.2.3,MacIntel,59.99880002,,,,,,,
,,,,,,,,,,,,,,,,,,,,,,-65,55,20,75,47,8,8,-43,-0.134162326,-0.367595486,1,0,0,0.9825,submitButton,0.104921875,-0.332400174,0,0,0,2,4,124,39,1,55,69358,1,180,2022-02-10_21h32.28.936,orientation adjustment 1,2021.2.3,MacIntel,59.99880002,,,,,,,
,,,,,,,,,,,,,,,,,,,,,,-73.33333333,64,20,75,72.66666667,8.666666667,8.666666667,-17.33333333,0.178919271,-0.32358941,1,0,0,1.0507,submitButton,-0.122608507,-0.403706597,0,0,0,2,5,125,48,1,64,69358,1,180,2022-02-10_21h32.28.936,orientation adjustment 1,2021.2.3,MacIntel,59.99880002,,,,,,,
,,,,,,,,,,,,,,,,,,,,,,50,47,20,75,48,1,1,-42,0.241458333,-0.283055556,1,0,0,1.3665,submitButton,-0.146636285,-0.406267361,0,0,0,2,6,126,31,1,47,69358,1,180,2022-02-10_21h32.28.936,orientation adjustment 1,2021.2.3,MacIntel,59.99880002,,,,,,,
,,,,,,,,,,,,,,,,,,,,,,-26.11111111,39,20,75,27.88888889,11.11111111,11.11111111,-62.11111111,0.204826389,-0.305724826,1,0,0,0.4661,submitButton,0.04390625,-0.305638021,0,0,0,2,7,127,23,1,39,69358,1,180,2022-02-10_21h32.28.936,orientation adjustment 1,2021.2.3,MacIntel,59.99880002,,,,,,,
,,,,,,,,,,,,,,,,,,,,,,-71.11111111,-34,20,75,-204.1111111,9.888888889,9.888888889,-294.1111111,0.386349826,-0.290546875,1,0,0,1.2324,submitButton,-0.048151042,-0.341371528,0,0,0,2,8,128,18,1,34,69358,1,180,2022-02-10_21h32.28.936,orientation adjustment 1,2021.2.3,MacIntel,59.99880002,,,,,,,
,,,,,,,,,,,,,,,,,,,,,,-60.55555556,-54,20,75,-222.5555556,11.44444444,11.44444444,-312.5555556,-0.158524306,-0.397625868,1,0,0,1.6679,submitButton,0.142252604,-0.359210069,0,0,0,2,9,129,38,1,54,69358,1,180,2022-02-10_21h32.28.936,orientation adjustment 1,2021.2.3,MacIntel,59.99880002,,,,,,,
,,,,,,,,,,,,,,,,,,,,,,33.88888889,68,20,75,242.8888889,5.111111111,5.111111111,152.8888889,-0.27922309,-0.423424479,1,0,0,2.6322,submitButton,-0.27922309,-0.423424479,0,0,0,2,10,130,52,1,68,69358,1,180,2022-02-10_21h32.28.936,orientation adjustment 1,2021.2.3,MacIntel,59.99880002,,,,,,,
,,,,,,,,,,,,,,,,,,,,,,-42.22222222,-19,20,75,-31.22222222,12.22222222,12.22222222,-121.2222222,0.395525174,-0.301666667,1,0,0,0.1501,submitButton,-0.117608507,-0.417265625,0,0,0,2,11,131,3,1,19,69358,1,180,2022-02-10_21h32.28.936,orientation adjustment 1,2021.2.3,MacIntel,59.99880002,,,,,,,
,,,,,,,,,,,,,,,,,,,,,,-42.77777778,-57,20,75,-56.77777778,0.222222222,0.222222222,-146.7777778,0.171979167,-0.283294271,1,0,0,0.1672,submitButton,-0.182595486,-0.398315972,0,0,0,2,12,132,41,1,57,69358,1,180,2022-02-10_21h32.28.936,orientation adjustment 1,2021.2.3,MacIntel,59.99880002,,,,,,,
,,,,,,,,,,,,,,,,,,,,,,-23.88888889,36,20,75,21.11111111,14.88888889,14.88888889,-68.88888889,0.191519097,-0.307113715,1,0,0,0.4665,submitButton,0.052313368,-0.307886285,0,0,0,2,13,133,20,1,36,69358,1,180,2022-02-10_21h32.28.936,orientation adjustment 1,2021.2.3,MacIntel,59.99880002,,,,,,,
,,,,,,,,,,,,,,,,,,,,,,-25,48,20,75,36,12,12,-54,-0.144162326,-0.413472222,1,0,0,0.6834,submitButton,0.339852431,-0.417890625,1,0,0,2,14,134,32,1,48,69358,1,180,2022-02-10_21h32.28.936,orientation adjustment 1,2021.2.3,MacIntel,59.99880002,pause_continueButton,,,,,,
,,,,,,,,,,,,,,,,,,,,,,70.55555556,26,20,75,51.55555556,25.55555556,25.55555556,-38.44444444,0.370416667,-0.319748264,1,0,0,0.1503,submitButton,0.197144097,-0.405121528,0,0,0,2,15,135,10,1,26,69358,1,180,2022-02-10_21h32.28.936,orientation adjustment 1,2021.2.3,MacIntel,59.99880002,,,,,,,
,,,,,,,,,,,,,,,,,,,,,,64.44444444,-61,20,75,120.4444444,1.444444444,1.444444444,30.44444444,0.441336806,-0.338723958,1,0,0,2.4168,submitButton,0.009136285,-0.328376736,0,0,0,2,16,136,45,1,61,69358,1,180,2022-02-10_21h32.28.936,orientation adjustment 1,2021.2.3,MacIntel,59.99880002,,,,,,,
,,,,,,,,,,,,,,,,,,,,,,-50.55555556,74,20,75,70.44444444,3.555555556,3.555555556,-19.55555556,0.216037326,-0.301519097,1,0,0,1.2671,submitButton,-0.180243056,-0.382990451,0,0,0,2,17,137,58,1,74,69358,1,180,2022-02-10_21h32.28.936,orientation adjustment 1,2021.2.3,MacIntel,59.99880002,,,,,,,
,,,,,,,,,,,,,,,,,,,,,,57.77777778,-29,20,75,-28.22222222,0.777777778,0.777777778,-118.2222222,0.212408854,-0.292213542,1,0,0,0.0155,submitButton,-0.108159722,-0.382252604,0,0,0,2,18,138,13,1,29,69358,1,180,2022-02-10_21h32.28.936,orientation adjustment 1,2021.2.3,MacIntel,59.99880002,,,,,,,
,,,,,,,,,,,,,,,,,,,,,,41.66666667,73,20,75,262.6666667,9.666666667,9.666666667,172.6666667,0.380368924,-0.294835069,1,0,0,2.5833,submitButton,-0.103862847,-0.383541667,0,0,0,2,19,139,57,1,73,69358,1,180,2022-02-10_21h32.28.936,orientation adjustment 1,2021.2.3,MacIntel,59.99880002,,,,,,,
,,,,,,,,,,,,,,,,,,,,,,35.55555556,70,20,75,70.55555556,0.555555556,0.555555556,-19.44444444,0.381158854,-0.290377604,1,0,0,0.4996,submitButton,-0.163736979,-0.412764757,0,0,0,2,20,140,54,1,70,69358,1,180,2022-02-10_21h32.28.936,orientation adjustment 1,2021.2.3,MacIntel,59.99880002,,,,,,,
,,,,,,,,,,,,,,,,,,,,,,66.11111111,33,20,75,50.11111111,17.11111111,17.11111111,-39.88888889,-0.312786458,-0.423776042,1,0,0,1.2665,submitButton,0.188489583,-0.347447917,0,0,0,2,21,141,17,1,33,69358,1,180,2022-02-10_21h32.28.936,orientation adjustment 1,2021.2.3,MacIntel,59.99880002,,,,,,,
,,,,,,,,,,,,,,,,,,,,,,-63.33333333,40,20,75,29.66666667,10.33333333,10.33333333,-60.33333333,0.189552951,-0.295976562,1,0,0,0.1669,submitButton,-0.139856771,-0.392591146,0,0,0,2,22,142,24,1,40,69358,1,180,2022-02-10_21h32.28.936,orientation adjustment 1,2021.2.3,MacIntel,59.99880002,,,,,,,
,,,,,,,,,,,,,,,,,,,,,,-45.55555556,-44,20,75,-54.55555556,10.55555556,10.55555556,-144.5555556,-0.202157118,-0.392986111,1,0,0,1.1675,submitButton,-0.202157118,-0.392986111,0,0,0,2,23,143,28,1,44,69358,1,180,2022-02-10_21h32.28.936,orientation adjustment 1,2021.2.3,MacIntel,59.99880002,,,,,,,
,,,,,,,,,,,,,,,,,,,,,,-70,-75,20,75,-71,4,4,-161,0.399266493,-0.308502604,1,0,0,1.5327,submitButton,-0.093611111,-0.341371528,0,0,0,2,24,144,59,1,75,69358,1,180,2022-02-10_21h32.28.936,orientation adjustment 1,2021.2.3,MacIntel,59.99880002,,,,,,,
,,,,,,,,,,,,,,,,,,,,,,73.33333333,-30,20,75,157.3333333,7.333333333,7.333333333,67.33333333,-0.204318576,-0.406701389,1,0,0,1.8839,submitButton,-0.204318576,-0.406701389,0,0,0,2,25,145,14,1,30,69358,1,180,2022-02-10_21h32.28.936,orientation adjustment 1,2021.2.3,MacIntel,59.99880002,,,,,,,
,,,,,,,,,,,,,,,,,,,,,,52.22222222,27,20,75,209.2222222,2.222222222,2.222222222,119.2222222,-0.16608941,-0.410746528,1,0,0,2.7327,submitButton,-0.16608941,-0.410746528,0,0,0,2,26,146,11,1,27,69358,1,180,2022-02-10_21h32.28.936,orientation adjustment 1,2021.2.3,MacIntel,59.99880002,,,,,,,
,,,,,,,,,,,,,,,,,,,,,,-20.55555556,-65,20,75,-61.55555556,3.444444444,3.444444444,-151.5555556,0.163164063,-0.273250868,1,0,0,0.1323,submitButton,-0.159587674,-0.394817708,0,0,0,2,27,147,49,1,65,69358,1,180,2022-02-10_21h32.28.936,orientation adjustment 1,2021.2.3,MacIntel,59.99880002,,,,,,,
,,,,,,,,,,,,,,,,,,,,,,55.55555556,37,20,75,211.5555556,5.444444444,5.444444444,121.5555556,0.21484375,-0.320212674,1,0,0,1.6662,submitButton,-0.130303819,-0.419596354,0,0,0,2,28,148,21,1,37,69358,1,180,2022-02-10_21h32.28.936,orientation adjustment 1,2021.2.3,MacIntel,59.99880002,,,,,,,
,,,,,,,,,,,,,,,,,,,,,,57.77777778,16,20,75,24.77777778,8.777777778,8.777777778,-65.22222222,0.384188368,-0.292842882,1,0,0,0.2159,submitButton,0.344205729,-0.407547743,1,0,0,2,29,149,0,1,16,69358,1,180,2022-02-10_21h32.28.936,orientation adjustment 1,2021.2.3,MacIntel,59.99880002,pause_continueButton,,,,,,
,,,,,,,,,,,,,,,,,,,,,,-65,32,20,75,-25,57,57,-115,0.217552083,-0.305824653,1,0,0,0.1169,submitButton,0.247508681,-0.241028646,0,0,0,2,30,150,16,1,32,69358,1,180,2022-02-10_21h32.28.936,orientation adjustment 1,2021.2.3,MacIntel,59.99880002,,,,,,,
,,,,,,,,,,,,,,,,,,,,,,-20.55555556,-17,20,75,-13.55555556,3.444444444,3.444444444,-103.5555556,0.219075521,-0.297834201,1,0,0,0.2659,submitButton,0.111809896,-0.323940972,0,0,0,2,31,151,1,1,17,69358,1,180,2022-02-10_21h32.28.936,orientation adjustment 1,2021.2.3,MacIntel,59.99880002,,,,,,,
,,,,,,,,,,,,,,,,,,,,,,-39.44444444,52,20,75,53.55555556,1.555555556,1.555555556,-36.44444444,-0.147309028,-0.398177083,1,0,0,0.9668,submitButton,0.013138021,-0.321983507,0,0,0,2,32,152,36,1,52,69358,1,180,2022-02-10_21h32.28.936,orientation adjustment 1,2021.2.3,MacIntel,59.99880002,,,,,,,
,,,,,,,,,,,,,,,,,,,,,,73.88888889,-42,20,75,153.8888889,15.88888889,15.88888889,63.88888889,-0.192118056,-0.414765625,1,0,0,2.3009,submitButton,0.167786458,-0.282877604,0,0,0,2,33,153,26,1,42,69358,1,180,2022-02-10_21h32.28.936,orientation adjustment 1,2021.2.3,MacIntel,59.99880002,,,,,,,
,,,,,,,,,,,,,,,,,,,,,,-62.77777778,-23,20,75,-20.77777778,2.222222222,2.222222222,-110.7777778,-0.149752604,-0.403511285,1,0,0,1.2001,submitButton,-0.149752604,-0.403511285,0,0,0,2,34,154,7,1,23,69358,1,180,2022-02-10_21h32.28.936,orientation adjustment 1,2021.2.3,MacIntel,59.99880002,,,,,,,
,,,,,,,,,,,,,,,,,,,,,,40,24,20,75,33,9,9,-57,0.449227431,-0.292977431,1,0,0,0.3657,submitButton,-0.093836806,-0.384127604,0,0,0,2,35,155,8,1,24,69358,1,180,2022-02-10_21h32.28.936,orientation adjustment 1,2021.2.3,MacIntel,59.99880002,,,,,,,
,,,,,,,,,,,,,,,,,,,,,,25.55555556,-20,20,75,-18.44444444,1.555555556,1.555555556,-108.4444444,0.410269097,-0.301783854,1,0,0,0.5169,submitButton,0.125724826,-0.365069444,0,0,0,2,36,156,4,1,20,69358,1,180,2022-02-10_21h32.28.936,orientation adjustment 1,2021.2.3,MacIntel,59.99880002,,,,,,,
,,,,,,,,,,,,,,,,,,,,,,37.22222222,35,20,75,38.22222222,3.222222222,3.222222222,-51.77777778,0.37671875,-0.291132813,1,0,0,0.0992,submitButton,-0.064184028,-0.305868056,0,0,0,2,37,157,19,1,35,69358,1,180,2022-02-10_21h32.28.936,orientation adjustment 1,2021.2.3,MacIntel,59.99880002,,,,,,,
,,,,,,,,,,,,,,,,,,,,,,-33.88888889,-72,20,75,-69.88888889,2.111111111,2.111111111,-159.8888889,-0.171822917,-0.383862847,1,0,0,0.9506,submitButton,0.155108507,-0.364114583,0,0,0,2,38,158,56,1,72,69358,1,180,2022-02-10_21h32.28.936,orientation adjustment 1,2021.2.3,MacIntel,59.99880002,,,,,,,
,,,,,,,,,,,,,,,,,,,,,,66.11111111,25,20,75,195.1111111,9.888888889,9.888888889,105.1111111,-0.150703125,-0.396002604,1,0,0,1.6838,submitButton,0.116579861,-0.332230903,0,0,0,2,39,159,9,1,25,69358,1,180,2022-02-10_21h32.28.936,orientation adjustment 1,2021.2.3,MacIntel,59.99880002,,,,,,,
,,,,,,,,,,,,,,,,,,,,,,59.44444444,69,20,75,243.4444444,5.555555556,5.555555556,153.4444444,0.179648438,-0.282239583,1,0,0,1.2994,submitButton,-0.141801215,-0.398398437,0,0,0,2,40,160,53,1,69,69358,1,180,2022-02-10_21h32.28.936,orientation adjustment 1,2021.2.3,MacIntel,59.99880002,,,,,,,
,,,,,,,,,,,,,,,,,,,,,,-65,-41,20,75,-35,6,6,-125,0.243810764,-0.311814236,1,0,0,0.6667,submitButton,0.12062066,-0.291671007,0,0,0,2,41,161,25,1,41,69358,1,180,2022-02-10_21h32.28.936,orientation adjustment 1,2021.2.3,MacIntel,59.99880002,,,,,,,
,,,,,,,,,,,,,,,,,,,,,,-65,-31,20,75,-33,2,2,-123,-0.121861979,-0.401918403,1,0,0,1.1339,submitButton,0.109835069,-0.277387153,0,0,0,2,42,162,15,1,31,69358,1,180,2022-02-10_21h32.28.936,orientation adjustment 1,2021.2.3,MacIntel,59.99880002,,,,,,,
,,,,,,,,,,,,,,,,,,,,,,-48.33333333,-50,20,75,-46.33333333,3.666666667,3.666666667,-136.3333333,-0.160772569,-0.406896701,1,0,0,0.7668,submitButton,0.066996528,-0.329778646,0,0,0,2,43,163,34,1,50,69358,1,180,2022-02-10_21h32.28.936,orientation adjustment 1,2021.2.3,MacIntel,59.99880002,,,,,,,
,,,,,,,,,,,,,,,,,,,,,,-23.88888889,71,20,75,63.11111111,7.888888889,7.888888889,-26.88888889,0.410494792,-0.283098958,1,0,0,0.3663,submitButton,0.330234375,-0.396072049,1,0,0,2,44,164,55,1,71,69358,1,180,2022-02-10_21h32.28.936,orientation adjustment 1,2021.2.3,MacIntel,59.99880002,pause_continueButton,,,,,,
,,,,,,,,,,,,,,,,,,,,,,27.22222222,51,20,75,32.22222222,18.77777778,18.77777778,-57.77777778,0.446844618,-0.291462674,1,0,0,0.3659,submitButton,-0.149813368,-0.406453993,0,0,0,2,45,165,35,1,51,69358,1,180,2022-02-10_21h32.28.936,orientation adjustment 1,2021.2.3,MacIntel,59.99880002,,,,,,,
,,,,,,,,,,,,,,,,,,,,,,-71.11111111,-45,20,75,-33.11111111,11.88888889,11.88888889,-123.1111111,0.172517361,-0.308472222,1,0,0,1.1002,submitButton,-0.069353299,-0.352955729,0,0,0,2,46,166,29,1,45,69358,1,180,2022-02-10_21h32.28.936,orientation adjustment 1,2021.2.3,MacIntel,59.99880002,,,,,,,
,,,,,,,,,,,,,,,,,,,,,,-33.33333333,-18,20,75,-16.33333333,1.666666667,1.666666667,-106.3333333,-0.178337674,-0.412456597,1,0,0,1.1832,submitButton,-0.178337674,-0.412456597,0,0,0,2,47,167,2,1,18,69358,1,180,2022-02-10_21h32.28.936,orientation adjustment 1,2021.2.3,MacIntel,59.99880002,,,,,,,
,,,,,,,,,,,,,,,,,,,,,,-21.11111111,49,20,75,50.88888889,1.888888889,1.888888889,-39.11111111,-0.214327257,-0.409817708,1,0,0,0.5996,submitButton,-0.214327257,-0.409817708,0,0,0,2,48,168,33,1,49,69358,1,180,2022-02-10_21h32.28.936,orientation adjustment 1,2021.2.3,MacIntel,59.99880002,,,,,,,
,,,,,,,,,,,,,,,,,,,,,,-57.22222222,63,20,75,56.77777778,6.222222222,6.222222222,-33.22222222,0.145230035,-0.317847222,1,0,0,0.7816,submitButton,-0.137803819,-0.397730035,0,0,0,2,49,169,47,1,63,69358,1,180,2022-02-10_21h32.28.936,orientation adjustment 1,2021.2.3,MacIntel,59.99880002,,,,,,,
,,,,,,,,,,,,,,,,,,,,,,-70,-66,20,75,-251,5,5,-341,0.390590278,-0.292352431,1,0,0,1.5667,submitButton,-0.173272569,-0.423836806,0,0,0,2,50,170,50,1,66,69358,1,180,2022-02-10_21h32.28.936,orientation adjustment 1,2021.2.3,MacIntel,59.99880002,,,,,,,
,,,,,,,,,,,,,,,,,,,,,,-56.11111111,-67,20,75,-65.11111111,1.888888889,1.888888889,-155.1111111,0.367109375,-0.315360243,1,0,0,1.8841,submitButton,-0.194270833,-0.414179688,0,0,0,2,51,171,51,1,67,69358,1,180,2022-02-10_21h32.28.936,orientation adjustment 1,2021.2.3,MacIntel,59.99880002,,,,,,,
,,,,,,,,,,,,,,,,,,,,,,72.77777778,-53,20,75,120.7777778,6.222222222,6.222222222,30.77777778,0.359366319,-0.289952257,1,0,0,2.4173,submitButton,-0.181306424,-0.399947917,0,0,0,2,52,172,37,1,53,69358,1,180,2022-02-10_21h32.28.936,orientation adjustment 1,2021.2.3,MacIntel,59.99880002,,,,,,,
,,,,,,,,,,,,,,,,,,,,,,61.66666667,60,20,75,57.66666667,2.333333333,2.333333333,-32.33333333,0.399934896,-0.287222222,1,0,0,0.4177,submitButton,-0.139045139,-0.399184028,0,0,0,2,53,173,44,1,60,69358,1,180,2022-02-10_21h32.28.936,orientation adjustment 1,2021.2.3,MacIntel,59.99880002,,,,,,,
,,,,,,,,,,,,,,,,,,,,,,33.88888889,-58,20,75,-51.11111111,6.888888889,6.888888889,-141.1111111,0.385520833,-0.288224826,1,0,0,0.4169,submitButton,-0.138051215,-0.40562934,0,0,0,2,54,174,42,1,58,69358,1,180,2022-02-10_21h32.28.936,orientation adjustment 1,2021.2.3,MacIntel,59.99880002,,,,,,,
,,,,,,,,,,,,,,,,,,,,,,45,-38,20,75,-25,13,13,-115,0.36906684,-0.291818576,1,0,0,0.2998,submitButton,-0.065846354,-0.407443576,0,0,0,2,55,175,22,1,38,69358,1,180,2022-02-10_21h32.28.936,orientation adjustment 1,2021.2.3,MacIntel,59.99880002,,,,,,,
,,,,,,,,,,,,,,,,,,,,,,-60.55555556,59,20,75,57.44444444,1.555555556,1.555555556,-32.55555556,-0.213524306,-0.387994792,1,0,0,1.2844,submitButton,-0.213524306,-0.387994792,0,0,0,2,56,176,43,1,59,69358,1,180,2022-02-10_21h32.28.936,orientation adjustment 1,2021.2.3,MacIntel,59.99880002,,,,,,,
,,,,,,,,,,,,,,,,,,,,,,51.11111111,28,20,75,197.1111111,10.88888889,10.88888889,107.1111111,0.192473958,-0.319735243,1,0,0,0.0493,submitButton,-0.068111979,-0.344865451,0,0,0,2,57,177,12,1,28,69358,1,180,2022-02-10_21h32.28.936,orientation adjustment 1,2021.2.3,MacIntel,59.99880002,,,,,,,
,,,,,,,,,,,,,,,,,,,,,,29.44444444,21,20,75,21.44444444,0.444444444,0.444444444,-68.55555556,0.386228299,-0.324822049,1,0,0,0.1495,submitButton,0.055429687,-0.328125,0,0,0,2,58,178,5,1,21,69358,1,180,2022-02-10_21h32.28.936,orientation adjustment 1,2021.2.3,MacIntel,59.99880002,,,,,,,
,,,,,,,,,,,,,,,,,,,,,,-65.55555556,22,20,75,17.44444444,4.555555556,4.555555556,-72.55555556,-0.144826389,-0.397947049,1,0,0,1.616,submitButton,0.215902778,-0.381059028,0,0,0,2,59,179,6,1,22,69358,1,180,2022-02-10_21h32.28.936,orientation adjustment 1,2021.2.3,MacIntel,59.99880002,,,,,,,
,,,,,,,,,,,,,,,,,,,,,,,,,,,,,,,,,,,,,,,,,,,,,,,,69358,1,180,2022-02-10_21h32.28.936,orientation adjustment 1,2021.2.3,MacIntel,59.99880002,,0.256332465,-0.404552951,1,0,0,EndButtonTxt
