consentMouse1.x,consentMouse1.y,consentMouse1.leftButton,consentMouse1.midButton,consentMouse1.rightButton,consentMouse1.clicked_name,consent_Mouse.x,consent_Mouse.y,consent_Mouse.leftButton,consent_Mouse.midButton,consent_Mouse.rightButton,consent_Mouse.clicked_name,startMouse.x,startMouse.y,startMouse.leftButton,startMouse.midButton,startMouse.rightButton,startMouse_2.x,startMouse_2.y,startMouse_2.leftButton,startMouse_2.midButton,startMouse_2.rightButton,start_distance,fixedOri,minimalDistance,maxOri,this_ori,accuracy,presented_accuracy,presented_this_ori,submitMouse.x,submitMouse.y,submitMouse.leftButton,submitMouse.midButton,submitMouse.rightButton,submitMouse.time,submitMouse.clicked_name,pauseMouse.x,pauseMouse.y,pauseMouse.leftButton,pauseMouse.midButton,pauseMouse.rightButton,trials.thisRepN,trials.thisTrialN,trials.thisN,trials.thisIndex,trials.ran,startOri,participant,condition,nTrials,date,expName,psychopyVersion,OS,frameRate,pauseMouse.clicked_name,EndButtonMouse.x,EndButtonMouse.y,EndButtonMouse.leftButton,EndButtonMouse.midButton,EndButtonMouse.rightButton,EndButtonMouse.clicked_name
0.385000018,-0.408333347,1,0,0,consent_button1,0.371666684,-0.39916668,1,0,0,consent_button,0.095833347,-0.214166728,1,0,0,0.297500016,-0.266666678,1,0,0,-56.11111111,-47,20,75,-99.11111111,52.11111111,52.11111111,-189.1111111,0.217500015,-0.296666679,1,0,0,5.9773,submitButton,-0.421666661,-0.397500013,0,0,0,0,0,0,31,1,47,69727,1,180,2022-02-22_12h17.40.794,orientation adjustment 1,2021.2.3,Win32,60.0132029,,,,,,,
,,,,,,,,,,,,,,,,,,,,,,-47.22222222,38,20,75,-25.22222222,63.22222222,63.22222222,-115.2222222,0.189166681,-0.299166679,1,0,0,4.5274,submitButton,-0.188333324,-0.402500013,0,0,0,0,1,1,22,1,38,69727,1,180,2022-02-22_12h17.40.794,orientation adjustment 1,2021.2.3,Win32,60.0132029,,,,,,,
,,,,,,,,,,,,,,,,,,,,,,71.11111111,-66,20,75,-46.88888889,19.11111111,19.11111111,-136.8888889,0.426666685,-0.295000012,1,0,0,1.5172,submitButton,-0.419999969,-0.402500013,0,0,0,0,2,2,50,1,66,69727,1,180,2022-02-22_12h17.40.794,orientation adjustment 1,2021.2.3,Win32,60.0132029,,,,,,,
,,,,,,,,,,,,,,,,,,,,,,-29.44444444,62,20,75,62.55555556,0.555555556,0.555555556,-27.44444444,0.210000015,-0.301666729,1,0,0,3.3109,submitButton,-0.277499992,-0.39666668,0,0,0,0,3,3,46,1,62,69727,1,180,2022-02-22_12h17.40.794,orientation adjustment 1,2021.2.3,Win32,60.0132029,,,,,,,
,,,,,,,,,,,,,,,,,,,,,,-28.33333333,-54,20,75,-56.33333333,2.333333333,2.333333333,-146.3333333,0.430833352,-0.306666679,1,0,0,0.71,submitButton,-0.253333325,-0.415833347,0,0,0,0,4,4,38,1,54,69727,1,180,2022-02-22_12h17.40.794,orientation adjustment 1,2021.2.3,Win32,60.0132029,,,,,,,
,,,,,,,,,,,,,,,,,,,,,,-61.66666667,-30,20,75,-12.66666667,17.33333333,17.33333333,-102.6666667,0.220000015,-0.305833396,1,0,0,0.1499,submitButton,-0.33916666,-0.39666668,0,0,0,0,5,5,14,1,30,69727,1,180,2022-02-22_12h17.40.794,orientation adjustment 1,2021.2.3,Win32,60.0132029,,,,,,,
,,,,,,,,,,,,,,,,,,,,,,35.55555556,-16,20,75,-14.44444444,1.555555556,1.555555556,-104.4444444,0.385833351,-0.269166678,1,0,0,0.5167,submitButton,-0.175833324,-0.340000013,0,0,0,0,6,6,0,1,16,69727,1,180,2022-02-22_12h17.40.794,orientation adjustment 1,2021.2.3,Win32,60.0132029,,,,,,,
,,,,,,,,,,,,,,,,,,,,,,-55.55555556,-33,20,75,-31.55555556,1.444444444,1.444444444,-121.5555556,0.228333349,-0.299166679,1,0,0,0.1001,submitButton,-0.276666659,-0.365833346,0,0,0,0,7,7,17,1,33,69727,1,180,2022-02-22_12h17.40.794,orientation adjustment 1,2021.2.3,Win32,60.0132029,,,,,,,
,,,,,,,,,,,,,,,,,,,,,,-35,39,20,75,29,10,10,-61,0.222500015,-0.303333345,1,0,0,0.2505,submitButton,-0.294166659,-0.395000013,0,0,0,0,8,8,23,1,39,69727,1,180,2022-02-22_12h17.40.794,orientation adjustment 1,2021.2.3,Win32,60.0132029,,,,,,,
,,,,,,,,,,,,,,,,,,,,,,58.33333333,-37,20,75,-28.66666667,8.333333333,8.333333333,-118.6666667,0.43250012,-0.270833345,1,0,0,0.1503,submitButton,-0.505833329,-0.38916668,0,0,0,0,9,9,21,1,37,69727,1,180,2022-02-22_12h17.40.794,orientation adjustment 1,2021.2.3,Win32,60.0132029,,,,,,,
,,,,,,,,,,,,,,,,,,,,,,57.22222222,52,20,75,168.2222222,63.77777778,63.77777778,78.22222222,0.232500015,-0.304166679,1,0,0,1.1504,submitButton,-0.399999994,-0.380000013,0,0,0,0,10,10,36,1,52,69727,1,180,2022-02-22_12h17.40.794,orientation adjustment 1,2021.2.3,Win32,60.0132029,,,,,,,
,,,,,,,,,,,,,,,,,,,,,,-37.77777778,42,20,75,34.22222222,7.777777778,7.777777778,-55.77777778,0.205000015,-0.310000063,1,0,0,0.6671,submitButton,-0.333333326,-0.300833345,0,0,0,0,11,11,26,1,42,69727,1,180,2022-02-22_12h17.40.794,orientation adjustment 1,2021.2.3,Win32,60.0132029,,,,,,,
,,,,,,,,,,,,,,,,,,,,,,38.88888889,-24,20,75,-20.11111111,3.888888889,3.888888889,-110.1111111,-0.313333326,-0.40666668,1,0,0,1.5008,submitButton,-0.312499993,-0.392500013,0,0,0,0,12,12,8,1,24,69727,1,180,2022-02-22_12h17.40.794,orientation adjustment 1,2021.2.3,Win32,60.0132029,,,,,,,
,,,,,,,,,,,,,,,,,,,,,,41.11111111,53,20,75,215.1111111,17.88888889,17.88888889,125.1111111,0.185833348,-0.299166679,1,0,0,1.8169,submitButton,-0.362499993,-0.40666668,0,0,0,0,13,13,37,1,53,69727,1,180,2022-02-22_12h17.40.794,orientation adjustment 1,2021.2.3,Win32,60.0132029,,,,,,,
,,,,,,,,,,,,,,,,,,,,,,-72.22222222,-23,20,75,-204.2222222,1.222222222,1.222222222,-294.2222222,0.390833453,-0.286666678,1,0,0,1.5335,submitButton,0.218333349,-0.393333347,1,0,0,0,14,14,7,1,23,69727,1,180,2022-02-22_12h17.40.794,orientation adjustment 1,2021.2.3,Win32,60.0132029,pause_continueButton,,,,,,
,,,,,,,,,,,,,,,,,,,,,,43.33333333,32,20,75,60.33333333,28.33333333,28.33333333,-29.66666667,0.192500015,-0.295000012,1,0,0,0.2998,submitButton,-0.314999993,-0.407500014,0,0,0,0,15,15,16,1,32,69727,1,180,2022-02-22_12h17.40.794,orientation adjustment 1,2021.2.3,Win32,60.0132029,,,,,,,
,,,,,,,,,,,,,,,,,,,,,,75,50,20,75,214,16,16,124,0.199166682,-0.311666679,1,0,0,0.0997,submitButton,-0.264166659,-0.39666668,0,0,0,0,16,16,34,1,50,69727,1,180,2022-02-22_12h17.40.794,orientation adjustment 1,2021.2.3,Win32,60.0132029,,,,,,,
,,,,,,,,,,,,,,,,,,,,,,-65.55555556,43,20,75,27.44444444,15.55555556,15.55555556,-62.55555556,0.187500015,-0.31416673,1,0,0,0.1167,submitButton,-0.259999992,-0.390000013,0,0,0,0,17,17,27,1,43,69727,1,180,2022-02-22_12h17.40.794,orientation adjustment 1,2021.2.3,Win32,60.0132029,,,,,,,
,,,,,,,,,,,,,,,,,,,,,,24.44444444,44,20,75,34.44444444,9.555555556,9.555555556,-55.55555556,0.404166685,-0.296666679,1,0,0,0.7168,submitButton,-0.246666658,-0.344166679,0,0,0,0,18,18,28,1,44,69727,1,180,2022-02-22_12h17.40.794,orientation adjustment 1,2021.2.3,Win32,60.0132029,,,,,,,
,,,,,,,,,,,,,,,,,,,,,,-49.44444444,18,20,75,12.55555556,5.444444444,5.444444444,-77.44444444,0.34333335,-0.286666678,1,0,0,1.7505,submitButton,-0.306666659,-0.402500013,0,0,0,0,19,19,2,1,18,69727,1,180,2022-02-22_12h17.40.794,orientation adjustment 1,2021.2.3,Win32,60.0132029,,,,,,,
,,,,,,,,,,,,,,,,,,,,,,-52.22222222,21,20,75,22.77777778,1.777777778,1.777777778,-67.22222222,-0.204166658,-0.385833347,1,0,0,1.4504,submitButton,-0.190833324,-0.358333346,0,0,0,0,20,20,5,1,21,69727,1,180,2022-02-22_12h17.40.794,orientation adjustment 1,2021.2.3,Win32,60.0132029,,,,,,,
,,,,,,,,,,,,,,,,,,,,,,52.22222222,-68,20,75,-48.77777778,19.22222222,19.22222222,-138.7777778,-0.127499939,-0.400000013,1,0,0,1.7674,submitButton,-0.121666657,-0.38916668,0,0,0,0,21,21,52,1,68,69727,1,180,2022-02-22_12h17.40.794,orientation adjustment 1,2021.2.3,Win32,60.0132029,,,,,,,
,,,,,,,,,,,,,,,,,,,,,,-34.44444444,-63,20,75,-64.44444444,1.444444444,1.444444444,-154.4444444,0.217500015,-0.320000012,1,0,0,0.2833,submitButton,-0.090833323,-0.238333344,0,0,0,0,22,22,47,1,63,69727,1,180,2022-02-22_12h17.40.794,orientation adjustment 1,2021.2.3,Win32,60.0132029,,,,,,,
,,,,,,,,,,,,,,,,,,,,,,68.33333333,-46,20,75,-37.66666667,8.333333333,8.333333333,-127.6666667,0.403333453,-0.275833345,1,0,0,0.0836,submitButton,-0.195833324,-0.360000013,0,0,0,0,23,23,30,1,46,69727,1,180,2022-02-22_12h17.40.794,orientation adjustment 1,2021.2.3,Win32,60.0132029,,,,,,,
,,,,,,,,,,,,,,,,,,,,,,-31.66666667,-73,20,75,-223.6666667,29.33333333,29.33333333,-313.6666667,0.421666685,-0.301666729,1,0,0,3.0513,submitButton,-0.18999994,-0.206666677,0,0,0,0,24,24,57,1,73,69727,1,180,2022-02-22_12h17.40.794,orientation adjustment 1,2021.2.3,Win32,60.0132029,,,,,,,
,,,,,,,,,,,,,,,,,,,,,,58.33333333,-25,20,75,-34.66666667,9.666666667,9.666666667,-124.6666667,0.381666684,-0.331666679,1,0,0,0.3996,submitButton,-0.195833324,-0.37916668,0,0,0,0,25,25,9,1,25,69727,1,180,2022-02-22_12h17.40.794,orientation adjustment 1,2021.2.3,Win32,60.0132029,,,,,,,
,,,,,,,,,,,,,,,,,,,,,,55.55555556,36,20,75,42.55555556,6.555555556,6.555555556,-47.44444444,0.453333454,-0.310000063,1,0,0,0.8836,submitButton,-0.171666657,-0.385833347,0,0,0,0,26,26,20,1,36,69727,1,180,2022-02-22_12h17.40.794,orientation adjustment 1,2021.2.3,Win32,60.0132029,,,,,,,
,,,,,,,,,,,,,,,,,,,,,,-47.22222222,-26,20,75,-15.22222222,10.77777778,10.77777778,-105.2222222,0.215000015,-0.311666679,1,0,0,0.0333,submitButton,-0.218333325,-0.372500013,0,0,0,0,27,27,10,1,26,69727,1,180,2022-02-22_12h17.40.794,orientation adjustment 1,2021.2.3,Win32,60.0132029,,,,,,,
,,,,,,,,,,,,,,,,,,,,,,51.11111111,-34,20,75,-28.88888889,5.111111111,5.111111111,-118.8888889,0.405000018,-0.276666729,1,0,0,1.2833,submitButton,-0.198333274,-0.37666668,0,0,0,0,28,28,18,1,34,69727,1,180,2022-02-22_12h17.40.794,orientation adjustment 1,2021.2.3,Win32,60.0132029,,,,,,,
,,,,,,,,,,,,,,,,,,,,,,-71.66666667,72,20,75,46.33333333,25.66666667,25.66666667,-43.66666667,0.191666681,-0.300000012,1,0,0,0.2667,submitButton,0.299166785,-0.41166668,1,0,0,0,29,29,56,1,72,69727,1,180,2022-02-22_12h17.40.794,orientation adjustment 1,2021.2.3,Win32,60.0132029,pause_continueButton,,,,,,
,,,,,,,,,,,,,,,,,,,,,,65,56,20,75,142,86,86,52,0.402500018,-0.288333345,1,0,0,0.7666,submitButton,-0.314999993,-0.39666668,0,0,0,0,30,30,40,1,56,69727,1,180,2022-02-22_12h17.40.794,orientation adjustment 1,2021.2.3,Win32,60.0132029,,,,,,,
,,,,,,,,,,,,,,,,,,,,,,63.88888889,-27,20,75,-23.11111111,3.888888889,3.888888889,-113.1111111,0.400833351,-0.310833345,1,0,0,0.4167,submitButton,-0.31916666,-0.42666668,0,0,0,0,31,31,11,1,27,69727,1,180,2022-02-22_12h17.40.794,orientation adjustment 1,2021.2.3,Win32,60.0132029,,,,,,,
,,,,,,,,,,,,,,,,,,,,,,-32.22222222,58,20,75,55.77777778,2.222222222,2.222222222,-34.22222222,0.185833348,-0.311666679,1,0,0,0.1497,submitButton,-0.33916666,-0.450000014,0,0,0,0,32,32,42,1,58,69727,1,180,2022-02-22_12h17.40.794,orientation adjustment 1,2021.2.3,Win32,60.0132029,,,,,,,
,,,,,,,,,,,,,,,,,,,,,,48.33333333,-19,20,75,-11.66666667,7.333333333,7.333333333,-101.6666667,0.208333348,-0.297500063,1,0,0,1.1173,submitButton,-0.15749999,-0.39166668,0,0,0,0,33,33,3,1,19,69727,1,180,2022-02-22_12h17.40.794,orientation adjustment 1,2021.2.3,Win32,60.0132029,,,,,,,
,,,,,,,,,,,,,,,,,,,,,,-58.88888889,-51,20,75,-218.8888889,12.11111111,12.11111111,-308.8888889,0.429166685,-0.290000012,1,0,0,0.9337,submitButton,-0.13499999,-0.393333347,0,0,0,0,34,34,35,1,51,69727,1,180,2022-02-22_12h17.40.794,orientation adjustment 1,2021.2.3,Win32,60.0132029,,,,,,,
,,,,,,,,,,,,,,,,,,,,,,-31.66666667,-48,20,75,-37.66666667,10.33333333,10.33333333,-127.6666667,0.120000014,-0.284166678,1,0,0,0.0671,submitButton,-0.197499991,-0.355000013,0,0,0,0,35,35,32,1,48,69727,1,180,2022-02-22_12h17.40.794,orientation adjustment 1,2021.2.3,Win32,60.0132029,,,,,,,
,,,,,,,,,,,,,,,,,,,,,,51.11111111,-31,20,75,-21.88888889,9.111111111,9.111111111,-111.8888889,-0.150833324,-0.420000014,1,0,0,1.067,submitButton,-0.133333323,-0.39916668,0,0,0,0,36,36,15,1,31,69727,1,180,2022-02-22_12h17.40.794,orientation adjustment 1,2021.2.3,Win32,60.0132029,,,,,,,
,,,,,,,,,,,,,,,,,,,,,,47.77777778,-61,20,75,-39.22222222,21.77777778,21.77777778,-129.2222222,0.416666685,-0.298333345,1,0,0,0.6163,submitButton,-0.226666658,-0.37666668,0,0,0,0,37,37,45,1,61,69727,1,180,2022-02-22_12h17.40.794,orientation adjustment 1,2021.2.3,Win32,60.0132029,,,,,,,
,,,,,,,,,,,,,,,,,,,,,,59.44444444,-74,20,75,-48.55555556,25.44444444,25.44444444,-138.5555556,0.453333454,-0.297500063,1,0,0,1.1004,submitButton,-0.299166659,-0.415833347,0,0,0,0,38,38,58,1,74,69727,1,180,2022-02-22_12h17.40.794,orientation adjustment 1,2021.2.3,Win32,60.0132029,,,,,,,
,,,,,,,,,,,,,,,,,,,,,,-46.11111111,-40,20,75,-38.11111111,1.888888889,1.888888889,-128.1111111,0.194166681,-0.292500012,1,0,0,0.6168,submitButton,-0.31916666,-0.40166668,0,0,0,0,39,39,24,1,40,69727,1,180,2022-02-22_12h17.40.794,orientation adjustment 1,2021.2.3,Win32,60.0132029,,,,,,,
,,,,,,,,,,,,,,,,,,,,,,-47.22222222,60,20,75,56.77777778,3.222222222,3.222222222,-33.22222222,0.174166681,-0.309166679,1,0,0,0.8003,submitButton,-0.139999939,-0.305000012,0,0,0,0,40,40,44,1,60,69727,1,180,2022-02-22_12h17.40.794,orientation adjustment 1,2021.2.3,Win32,60.0132029,,,,,,,
,,,,,,,,,,,,,,,,,,,,,,74.44444444,69,20,75,226.4444444,22.55555556,22.55555556,136.4444444,0.238333349,-0.303333345,1,0,0,1.2338,submitButton,-0.220833325,-0.38416668,0,0,0,0,41,41,53,1,69,69727,1,180,2022-02-22_12h17.40.794,orientation adjustment 1,2021.2.3,Win32,60.0132029,,,,,,,
,,,,,,,,,,,,,,,,,,,,,,58.33333333,64,20,75,65.33333333,1.333333333,1.333333333,-24.66666667,0.424166787,-0.289166729,1,0,0,0.2842,submitButton,-0.276666659,-0.355000013,0,0,0,0,42,42,48,1,64,69727,1,180,2022-02-22_12h17.40.794,orientation adjustment 1,2021.2.3,Win32,60.0132029,,,,,,,
,,,,,,,,,,,,,,,,,,,,,,-63.88888889,-55,20,75,-214.8888889,20.11111111,20.11111111,-304.8888889,0.340833452,-0.282500012,1,0,0,0.3162,submitButton,-0.33666666,-0.388333347,0,0,0,0,43,43,39,1,55,69727,1,180,2022-02-22_12h17.40.794,orientation adjustment 1,2021.2.3,Win32,60.0132029,,,,,,,
,,,,,,,,,,,,,,,,,,,,,,-20,-57,20,75,-40,17,17,-130,-0.212499991,-0.382500013,1,0,0,1.317,submitButton,0.34333335,-0.39416668,1,0,0,0,44,44,41,1,57,69727,1,180,2022-02-22_12h17.40.794,orientation adjustment 1,2021.2.3,Win32,60.0132029,pause_continueButton,,,,,,
,,,,,,,,,,,,,,,,,,,,,,-48.33333333,29,20,75,19.66666667,9.333333333,9.333333333,-70.33333333,0.229166682,-0.316666679,1,0,0,1.0586,submitButton,-0.14499999,-0.36416668,0,0,0,0,45,45,13,1,29,69727,1,180,2022-02-22_12h17.40.794,orientation adjustment 1,2021.2.3,Win32,60.0132029,,,,,,,
,,,,,,,,,,,,,,,,,,,,,,25,49,20,75,51,2,2,-39,0.673333355,-0.305000012,1,0,0,0.1336,submitButton,-0.13249999,-0.340000013,0,0,0,0,46,46,33,1,49,69727,1,180,2022-02-22_12h17.40.794,orientation adjustment 1,2021.2.3,Win32,60.0132029,,,,,,,
,,,,,,,,,,,,,,,,,,,,,,-67.77777778,-45,20,75,-52.77777778,7.777777778,7.777777778,-142.7777778,-0.190833324,-0.407500014,1,0,0,1.3102,submitButton,-0.195833324,-0.372500013,0,0,0,0,47,47,29,1,45,69727,1,180,2022-02-22_12h17.40.794,orientation adjustment 1,2021.2.3,Win32,60.0132029,,,,,,,
,,,,,,,,,,,,,,,,,,,,,,23.88888889,-75,20,75,-116.1111111,41.11111111,41.11111111,-206.1111111,0.435833352,-0.295833345,1,0,0,1.8839,submitButton,-0.369999994,-0.400000013,0,0,0,0,48,48,59,1,75,69727,1,180,2022-02-22_12h17.40.794,orientation adjustment 1,2021.2.3,Win32,60.0132029,,,,,,,
,,,,,,,,,,,,,,,,,,,,,,-23.88888889,71,20,75,119.1111111,48.11111111,48.11111111,29.11111111,0.198333348,-0.312500012,1,0,0,3.0845,submitButton,-0.169999991,-0.393333347,0,0,0,0,49,49,55,1,71,69727,1,180,2022-02-22_12h17.40.794,orientation adjustment 1,2021.2.3,Win32,60.0132029,,,,,,,
,,,,,,,,,,,,,,,,,,,,,,-37.77777778,20,20,75,24.22222222,4.222222222,4.222222222,-65.77777778,0.223333349,-0.310833345,1,0,0,0.8336,submitButton,-0.163333324,-0.368333346,0,0,0,0,50,50,4,1,20,69727,1,180,2022-02-22_12h17.40.794,orientation adjustment 1,2021.2.3,Win32,60.0132029,,,,,,,
,,,,,,,,,,,,,,,,,,,,,,33.33333333,-65,20,75,-72.66666667,7.666666667,7.666666667,-162.6666667,0.415000018,-0.310833345,1,0,0,0.1266,submitButton,-0.10749999,-0.388333347,0,0,0,0,51,51,49,1,65,69727,1,180,2022-02-22_12h17.40.794,orientation adjustment 1,2021.2.3,Win32,60.0132029,,,,,,,
,,,,,,,,,,,,,,,,,,,,,,-70.55555556,-41,20,75,-49.55555556,8.555555556,8.555555556,-139.5555556,0.195833348,-0.327500012,1,0,0,0.1664,submitButton,-0.175833324,-0.440000014,0,0,0,0,52,52,25,1,41,69727,1,180,2022-02-22_12h17.40.794,orientation adjustment 1,2021.2.3,Win32,60.0132029,,,,,,,
,,,,,,,,,,,,,,,,,,,,,,48.88888889,17,20,75,30.88888889,13.88888889,13.88888889,-59.11111111,0.370833351,-0.287500012,1,0,0,0.794,submitButton,-0.174999991,-0.360000013,0,0,0,0,53,53,1,1,17,69727,1,180,2022-02-22_12h17.40.794,orientation adjustment 1,2021.2.3,Win32,60.0132029,,,,,,,
,,,,,,,,,,,,,,,,,,,,,,39.44444444,-67,20,75,-67.55555556,0.555555556,0.555555556,-157.5555556,0.367500017,-0.287500012,1,0,0,0.0168,submitButton,-0.127499939,-0.392500013,0,0,0,0,54,54,51,1,67,69727,1,180,2022-02-22_12h17.40.794,orientation adjustment 1,2021.2.3,Win32,60.0132029,,,,,,,
,,,,,,,,,,,,,,,,,,,,,,-21.11111111,70,20,75,-55.11111111,54.88888889,54.88888889,-145.1111111,0.387500018,-0.295000012,1,0,0,0.5174,submitButton,-0.143333324,-0.40666668,0,0,0,0,55,55,54,1,70,69727,1,180,2022-02-22_12h17.40.794,orientation adjustment 1,2021.2.3,Win32,60.0132029,,,,,,,
,,,,,,,,,,,,,,,,,,,,,,-65,-28,20,75,-49,21,21,-139,0.425000018,-0.322500063,1,0,0,0.0332,submitButton,-0.119166606,-0.37666668,0,0,0,0,56,56,12,1,28,69727,1,180,2022-02-22_12h17.40.794,orientation adjustment 1,2021.2.3,Win32,60.0132029,,,,,,,
,,,,,,,,,,,,,,,,,,,,,,-31.11111111,-22,20,75,-117.1111111,84.88888889,84.88888889,-207.1111111,0.372500017,-0.280000012,1,0,0,0.4331,submitButton,-0.034166655,-0.343333397,0,0,0,0,57,57,6,1,22,69727,1,180,2022-02-22_12h17.40.794,orientation adjustment 1,2021.2.3,Win32,60.0132029,,,,,,,
,,,,,,,,,,,,,,,,,,,,,,-50.55555556,-59,20,75,-67.55555556,8.555555556,8.555555556,-157.5555556,0.440000018,-0.304166679,1,0,0,1.5769,submitButton,-0.156666606,-0.373333346,0,0,0,0,58,58,43,1,59,69727,1,180,2022-02-22_12h17.40.794,orientation adjustment 1,2021.2.3,Win32,60.0132029,,,,,,,
,,,,,,,,,,,,,,,,,,,,,,-38.33333333,-35,20,75,-38.33333333,3.333333333,3.333333333,-128.3333333,-0.21499994,-0.39416668,1,0,0,1.0933,submitButton,0.498333353,-0.408333347,1,0,0,0,59,59,19,1,35,69727,1,180,2022-02-22_12h17.40.794,orientation adjustment 1,2021.2.3,Win32,60.0132029,pause_continueButton,,,,,,
,,,,,,,,,,,,,,,,,,,,,,61.11111111,-63,20,75,-37.88888889,25.11111111,25.11111111,-127.8888889,0.415833453,-0.276666729,1,0,0,1.0671,submitButton,-0.179166657,-0.349166679,0,0,0,1,0,60,47,1,63,69727,1,180,2022-02-22_12h17.40.794,orientation adjustment 1,2021.2.3,Win32,60.0132029,,,,,,,
,,,,,,,,,,,,,,,,,,,,,,37.77777778,42,20,75,116.7777778,74.77777778,74.77777778,26.77777778,0.220000015,-0.258333345,1,0,0,4.4908,submitButton,0.08166668,-0.291666678,0,0,0,1,1,61,26,1,42,69727,1,180,2022-02-22_12h17.40.794,orientation adjustment 1,2021.2.3,Win32,60.0132029,,,,,,,
,,,,,,,,,,,,,,,,,,,,,,35,27,20,75,22,5,5,-68,0.446666685,-0.324166679,1,0,0,0.1001,submitButton,-0.198333274,-0.295000012,0,0,0,1,2,62,11,1,27,69727,1,180,2022-02-22_12h17.40.794,orientation adjustment 1,2021.2.3,Win32,60.0132029,,,,,,,
,,,,,,,,,,,,,,,,,,,,,,-70.55555556,70,20,75,58.44444444,11.55555556,11.55555556,-31.55555556,0.189166681,-0.302500012,1,0,0,1.0101,submitButton,0.125833347,-0.103333342,0,0,0,1,3,63,54,1,70,69727,1,180,2022-02-22_12h17.40.794,orientation adjustment 1,2021.2.3,Win32,60.0132029,,,,,,,
,,,,,,,,,,,,,,,,,,,,,,-61.11111111,-16,20,75,-45.11111111,29.11111111,29.11111111,-135.1111111,0.155000014,-0.355000013,1,0,0,3.7677,submitButton,-0.180833324,-0.343333397,0,0,0,1,4,64,0,1,16,69727,1,180,2022-02-22_12h17.40.794,orientation adjustment 1,2021.2.3,Win32,60.0132029,,,,,,,
,,,,,,,,,,,,,,,,,,,,,,-47.77777778,-53,20,75,-57.77777778,4.777777778,4.777777778,-147.7777778,0.185000015,-0.295833345,1,0,0,12.7214,submitButton,-0.179166657,-0.365833346,0,0,0,1,5,65,37,1,53,69727,1,180,2022-02-22_12h17.40.794,orientation adjustment 1,2021.2.3,Win32,60.0132029,,,,,,,
,,,,,,,,,,,,,,,,,,,,,,60.55555556,23,20,75,27.55555556,4.555555556,4.555555556,-62.44444444,0.418333351,-0.304166679,1,0,0,0.0609,submitButton,-0.046666655,-0.135833343,0,0,0,1,6,66,7,1,23,69727,1,180,2022-02-22_12h17.40.794,orientation adjustment 1,2021.2.3,Win32,60.0132029,,,,,,,
,,,,,,,,,,,,,,,,,,,,,,-40,49,20,75,34,15,15,-56,0.187500015,-0.297500063,1,0,0,0.216,submitButton,-0.140833324,-0.39166668,0,0,0,1,7,67,33,1,49,69727,1,180,2022-02-22_12h17.40.794,orientation adjustment 1,2021.2.3,Win32,60.0132029,,,,,,,
,,,,,,,,,,,,,,,,,,,,,,-20,-65,20,75,-125,60,60,-215,0.448333352,-0.317500012,1,0,0,2.017,submitButton,-0.113333323,-0.38416668,0,0,0,1,8,68,49,1,65,69727,1,180,2022-02-22_12h17.40.794,orientation adjustment 1,2021.2.3,Win32,60.0132029,,,,,,,
,,,,,,,,,,,,,,,,,,,,,,22.22222222,-54,20,75,37.22222222,88.77777778,88.77777778,-52.77777778,0.212500015,-0.312500012,1,0,0,0.4165,submitButton,-0.129166657,-0.395833347,0,0,0,1,9,69,38,1,54,69727,1,180,2022-02-22_12h17.40.794,orientation adjustment 1,2021.2.3,Win32,60.0132029,,,,,,,
,,,,,,,,,,,,,,,,,,,,,,-27.22222222,71,20,75,73.77777778,2.777777778,2.777777778,-16.22222222,0.212500015,-0.304166679,1,0,0,0.1002,submitButton,-0.179166657,-0.370000013,0,0,0,1,10,70,55,1,71,69727,1,180,2022-02-22_12h17.40.794,orientation adjustment 1,2021.2.3,Win32,60.0132029,,,,,,,
,,,,,,,,,,,,,,,,,,,,,,-25.55555556,60,20,75,-35.55555556,84.44444444,84.44444444,-125.5555556,0.414166685,-0.304166679,1,0,0,0.2828,submitButton,0.352500017,-0.285000063,0,0,0,1,11,71,44,1,60,69727,1,180,2022-02-22_12h17.40.794,orientation adjustment 1,2021.2.3,Win32,60.0132029,,,,,,,
,,,,,,,,,,,,,,,,,,,,,,59.44444444,-67,20,75,-57.55555556,9.444444444,9.444444444,-147.5555556,-0.14999999,-0.383333346,1,0,0,1.1431,submitButton,0.035000063,-0.315833345,0,0,0,1,12,72,51,1,67,69727,1,180,2022-02-22_12h17.40.794,orientation adjustment 1,2021.2.3,Win32,60.0132029,,,,,,,
,,,,,,,,,,,,,,,,,,,,,,26.11111111,32,20,75,36.11111111,4.111111111,4.111111111,-53.88888889,0.342500017,-0.303333345,1,0,0,0.1671,submitButton,-0.139166657,-0.36916668,0,0,0,1,13,73,16,1,32,69727,1,180,2022-02-22_12h17.40.794,orientation adjustment 1,2021.2.3,Win32,60.0132029,,,,,,,
,,,,,,,,,,,,,,,,,,,,,,41.66666667,-72,20,75,-70.33333333,1.666666667,1.666666667,-160.3333333,0.377500018,-0.306666679,1,0,0,0.6265,submitButton,0.52250002,-0.403333347,1,0,0,1,14,74,56,1,72,69727,1,180,2022-02-22_12h17.40.794,orientation adjustment 1,2021.2.3,Win32,60.0132029,pause_continueButton,,,,,,
,,,,,,,,,,,,,,,,,,,,,,-46.66666667,58,20,75,58.33333333,0.333333333,0.333333333,-31.66666667,0.197500015,-0.279166678,1,0,0,1.7013,submitButton,-0.14249999,-0.372500013,0,0,0,1,15,75,42,1,58,69727,1,180,2022-02-22_12h17.40.794,orientation adjustment 1,2021.2.3,Win32,60.0132029,,,,,,,
,,,,,,,,,,,,,,,,,,,,,,26.66666667,73,20,75,231.6666667,21.33333333,21.33333333,141.6666667,0.211666682,-0.312500012,1,0,0,0.1998,submitButton,-0.17749994,-0.383333346,0,0,0,1,16,76,57,1,73,69727,1,180,2022-02-22_12h17.40.794,orientation adjustment 1,2021.2.3,Win32,60.0132029,,,,,,,
,,,,,,,,,,,,,,,,,,,,,,-31.11111111,56,20,75,58.88888889,2.888888889,2.888888889,-31.11111111,-0.164166657,-0.393333347,1,0,0,0.5266,submitButton,0.034166679,-0.294166679,0,0,0,1,17,77,40,1,56,69727,1,180,2022-02-22_12h17.40.794,orientation adjustment 1,2021.2.3,Win32,60.0132029,,,,,,,
,,,,,,,,,,,,,,,,,,,,,,42.22222222,46,20,75,64.22222222,18.22222222,18.22222222,-25.77777778,0.465833454,-0.332500012,1,0,0,0.083,submitButton,-0.13749999,-0.37916668,0,0,0,1,18,78,30,1,46,69727,1,180,2022-02-22_12h17.40.794,orientation adjustment 1,2021.2.3,Win32,60.0132029,,,,,,,
,,,,,,,,,,,,,,,,,,,,,,27.77777778,40,20,75,49.77777778,9.777777778,9.777777778,-40.22222222,0.087500013,-0.312500012,1,0,0,1.3096,submitButton,-0.168333324,-0.40916668,0,0,0,1,19,79,24,1,40,69727,1,180,2022-02-22_12h17.40.794,orientation adjustment 1,2021.2.3,Win32,60.0132029,,,,,,,
,,,,,,,,,,,,,,,,,,,,,,-37.77777778,-41,20,75,-118.7777778,77.77777778,77.77777778,-208.7777778,0.365000017,-0.270000011,1,0,0,1.8673,submitButton,-0.238333325,-0.360833346,0,0,0,1,20,80,25,1,41,69727,1,180,2022-02-22_12h17.40.794,orientation adjustment 1,2021.2.3,Win32,60.0132029,,,,,,,
,,,,,,,,,,,,,,,,,,,,,,51.66666667,-64,20,75,-44.33333333,19.66666667,19.66666667,-134.3333333,0.409166685,-0.295833345,1,0,0,10.0865,submitButton,-0.095833323,-0.41666668,0,0,0,1,21,81,48,1,64,69727,1,180,2022-02-22_12h17.40.794,orientation adjustment 1,2021.2.3,Win32,60.0132029,,,,,,,
,,,,,,,,,,,,,,,,,,,,,,63.33333333,24,20,75,22.33333333,1.666666667,1.666666667,-67.66666667,0.371666684,-0.315000012,1,0,0,0.9576,submitButton,-0.156666606,-0.38666668,0,0,0,1,22,82,8,1,24,69727,1,180,2022-02-22_12h17.40.794,orientation adjustment 1,2021.2.3,Win32,60.0132029,,,,,,,
,,,,,,,,,,,,,,,,,,,,,,-75,17,20,75,-151,12,12,-241,0.469166686,-0.296666679,1,0,0,0.2167,submitButton,-0.133333323,-0.395833347,0,0,0,1,23,83,1,1,17,69727,1,180,2022-02-22_12h17.40.794,orientation adjustment 1,2021.2.3,Win32,60.0132029,,,,,,,
,,,,,,,,,,,,,,,,,,,,,,26.66666667,59,20,75,55.66666667,3.333333333,3.333333333,-34.33333333,-0.136666657,-0.377500013,1,0,0,1.1599,submitButton,-0.105833323,-0.363333346,0,0,0,1,24,84,43,1,59,69727,1,180,2022-02-22_12h17.40.794,orientation adjustment 1,2021.2.3,Win32,60.0132029,,,,,,,
,,,,,,,,,,,,,,,,,,,,,,27.22222222,-26,20,75,-39.77777778,13.77777778,13.77777778,-129.7777778,0.391666684,-0.320833346,1,0,0,0.1168,submitButton,-0.11999999,-0.405000013,0,0,0,1,25,85,10,1,26,69727,1,180,2022-02-22_12h17.40.794,orientation adjustment 1,2021.2.3,Win32,60.0132029,,,,,,,
,,,,,,,,,,,,,,,,,,,,,,41.11111111,-33,20,75,-35.88888889,2.888888889,2.888888889,-125.8888889,-0.263333325,-0.40666668,1,0,0,1.2839,submitButton,-0.220833325,-0.338333346,0,0,0,1,26,86,17,1,33,69727,1,180,2022-02-22_12h17.40.794,orientation adjustment 1,2021.2.3,Win32,60.0132029,,,,,,,
,,,,,,,,,,,,,,,,,,,,,,24.44444444,-29,20,75,-37.55555556,8.555555556,8.555555556,-127.5555556,-0.308333326,-0.38666668,1,0,0,0.4661,submitButton,0.137500014,-0.280833396,0,0,0,1,27,87,13,1,29,69727,1,180,2022-02-22_12h17.40.794,orientation adjustment 1,2021.2.3,Win32,60.0132029,,,,,,,
,,,,,,,,,,,,,,,,,,,,,,-63.33333333,66,20,75,-34.33333333,79.66666667,79.66666667,-124.3333333,0.361666786,-0.281666678,1,0,0,4.2849,submitButton,-0.205833324,-0.37666668,0,0,0,1,28,88,50,1,66,69727,1,180,2022-02-22_12h17.40.794,orientation adjustment 1,2021.2.3,Win32,60.0132029,,,,,,,
,,,,,,,,,,,,,,,,,,,,,,-34.44444444,-18,20,75,-115.4444444,82.55555556,82.55555556,-205.4444444,0.421666685,-0.280000012,1,0,0,1.5005,submitButton,0.503333454,-0.40666668,1,0,0,1,29,89,2,1,18,69727,1,180,2022-02-22_12h17.40.794,orientation adjustment 1,2021.2.3,Win32,60.0132029,pause_continueButton,,,,,,
,,,,,,,,,,,,,,,,,,,,,,-43.33333333,30,20,75,11.66666667,18.33333333,18.33333333,-78.33333333,-0.295833326,-0.39166668,1,0,0,1.0444,submitButton,-0.298333326,-0.385000013,0,0,0,1,30,90,14,1,30,69727,1,180,2022-02-22_12h17.40.794,orientation adjustment 1,2021.2.3,Win32,60.0132029,,,,,,,
,,,,,,,,,,,,,,,,,,,,,,68.33333333,-48,20,75,56.33333333,75.66666667,75.66666667,-33.66666667,0.332500119,-0.289166729,1,0,0,5.1684,submitButton,-0.101666656,-0.402500013,0,0,0,1,31,91,32,1,48,69727,1,180,2022-02-22_12h17.40.794,orientation adjustment 1,2021.2.3,Win32,60.0132029,,,,,,,
,,,,,,,,,,,,,,,,,,,,,,38.33333333,-45,20,75,-46.66666667,1.666666667,1.666666667,-136.6666667,-0.140833324,-0.403333347,1,0,0,0.8336,submitButton,-0.148333273,-0.393333347,0,0,0,1,32,92,29,1,45,69727,1,180,2022-02-22_12h17.40.794,orientation adjustment 1,2021.2.3,Win32,60.0132029,,,,,,,
,,,,,,,,,,,,,,,,,,,,,,32.77777778,-20,20,75,-23.22222222,3.222222222,3.222222222,-113.2222222,-0.199999991,-0.385000013,1,0,0,1.0431,submitButton,-0.234166658,-0.36916668,0,0,0,1,33,93,4,1,20,69727,1,180,2022-02-22_12h17.40.794,orientation adjustment 1,2021.2.3,Win32,60.0132029,,,,,,,
,,,,,,,,,,,,,,,,,,,,,,42.77777778,-39,20,75,-25.22222222,13.77777778,13.77777778,-115.2222222,0.181666681,-0.307500012,1,0,0,1.427,submitButton,0.045000013,-0.499166682,0,0,0,1,34,94,23,1,39,69727,1,180,2022-02-22_12h17.40.794,orientation adjustment 1,2021.2.3,Win32,60.0132029,,,,,,,
,,,,,,,,,,,,,,,,,,,,,,40.55555556,-25,20,75,-14.44444444,10.55555556,10.55555556,-104.4444444,0.385000018,-0.287500012,1,0,0,4.6852,submitButton,-0.148333273,-0.41416668,0,0,0,1,35,95,9,1,25,69727,1,180,2022-02-22_12h17.40.794,orientation adjustment 1,2021.2.3,Win32,60.0132029,,,,,,,
,,,,,,,,,,,,,,,,,,,,,,-61.11111111,-44,20,75,-214.1111111,9.888888889,9.888888889,-304.1111111,0.230833349,-0.305000012,1,0,0,2.0603,submitButton,-0.133333323,-0.397500013,0,0,0,1,36,96,28,1,44,69727,1,180,2022-02-22_12h17.40.794,orientation adjustment 1,2021.2.3,Win32,60.0132029,,,,,,,
,,,,,,,,,,,,,,,,,,,,,,47.77777778,-28,20,75,-30.22222222,2.222222222,2.222222222,-120.2222222,0.371666684,-0.276666729,1,0,0,0.0163,submitButton,-0.215833325,-0.430000014,0,0,0,1,37,97,12,1,28,69727,1,180,2022-02-22_12h17.40.794,orientation adjustment 1,2021.2.3,Win32,60.0132029,,,,,,,
,,,,,,,,,,,,,,,,,,,,,,74.44444444,69,20,75,237.4444444,11.55555556,11.55555556,147.4444444,-0.139166657,-0.390833347,1,0,0,1.5602,submitButton,-0.022499988,-0.349166679,0,0,0,1,38,98,53,1,69,69727,1,180,2022-02-22_12h17.40.794,orientation adjustment 1,2021.2.3,Win32,60.0132029,,,,,,,
,,,,,,,,,,,,,,,,,,,,,,-25,47,20,75,55,8,8,-35,-0.181666607,-0.373333346,1,0,0,0.3333,submitButton,-0.019166604,-0.363333346,0,0,0,1,39,99,31,1,47,69727,1,180,2022-02-22_12h17.40.794,orientation adjustment 1,2021.2.3,Win32,60.0132029,,,,,,,
,,,,,,,,,,,,,,,,,,,,,,31.66666667,-35,20,75,-31.33333333,3.666666667,3.666666667,-121.3333333,-0.126666657,-0.382500013,1,0,0,0.3501,submitButton,-0.080833323,-0.402500013,0,0,0,1,40,100,19,1,35,69727,1,180,2022-02-22_12h17.40.794,orientation adjustment 1,2021.2.3,Win32,60.0132029,,,,,,,
,,,,,,,,,,,,,,,,,,,,,,33.33333333,36,20,75,55.33333333,19.33333333,19.33333333,-34.66666667,0.365833452,-0.301666729,1,0,0,0.0766,submitButton,-0.180833324,-0.485833348,0,0,0,1,41,101,20,1,36,69727,1,180,2022-02-22_12h17.40.794,orientation adjustment 1,2021.2.3,Win32,60.0132029,,,,,,,
,,,,,,,,,,,,,,,,,,,,,,69.44444444,-38,20,75,-39.55555556,1.555555556,1.555555556,-129.5555556,-0.223333274,-0.438333347,1,0,0,1.1937,submitButton,-0.11749999,-0.350000013,0,0,0,1,42,102,22,1,38,69727,1,180,2022-02-22_12h17.40.794,orientation adjustment 1,2021.2.3,Win32,60.0132029,,,,,,,
,,,,,,,,,,,,,,,,,,,,,,-24.44444444,-75,20,75,-235.4444444,19.55555556,19.55555556,-325.4444444,-0.133333323,-0.395000013,1,0,0,2.2438,submitButton,-0.088333323,-0.38416668,0,0,0,1,43,103,59,1,75,69727,1,180,2022-02-22_12h17.40.794,orientation adjustment 1,2021.2.3,Win32,60.0132029,,,,,,,
,,,,,,,,,,,,,,,,,,,,,,-53.88888889,-37,20,75,-60.88888889,23.88888889,23.88888889,-150.8888889,0.150000014,-0.303333345,1,0,0,0.45,submitButton,0.382500119,-0.410000014,1,0,0,1,44,104,21,1,37,69727,1,180,2022-02-22_12h17.40.794,orientation adjustment 1,2021.2.3,Win32,60.0132029,pause_continueButton,,,,,,
,,,,,,,,,,,,,,,,,,,,,,30.55555556,57,20,75,129.5555556,72.55555556,72.55555556,39.55555556,0.055000013,-0.070000008,1,0,0,17.8067,submitButton,-0.216666658,-0.437500014,0,0,0,1,45,105,41,1,57,69727,1,180,2022-02-22_12h17.40.794,orientation adjustment 1,2021.2.3,Win32,60.0132029,,,,,,,
,,,,,,,,,,,,,,,,,,,,,,55.55555556,55,20,75,73.55555556,18.55555556,18.55555556,-16.44444444,0.326666683,-0.312500012,1,0,0,0.8164,submitButton,-0.038333322,-0.37666668,0,0,0,1,46,106,39,1,55,69727,1,180,2022-02-22_12h17.40.794,orientation adjustment 1,2021.2.3,Win32,60.0132029,,,,,,,
,,,,,,,,,,,,,,,,,,,,,,40.55555556,50,20,75,60.55555556,10.55555556,10.55555556,-29.44444444,-0.154166657,-0.415000014,1,0,0,0.9434,submitButton,-0.17749994,-0.39416668,0,0,0,1,47,107,34,1,50,69727,1,180,2022-02-22_12h17.40.794,orientation adjustment 1,2021.2.3,Win32,60.0132029,,,,,,,
,,,,,,,,,,,,,,,,,,,,,,-28.88888889,31,20,75,33.11111111,2.111111111,2.111111111,-56.88888889,-0.11749999,-0.363333346,1,0,0,0.9937,submitButton,-0.144166606,-0.398333347,0,0,0,1,48,108,15,1,31,69727,1,180,2022-02-22_12h17.40.794,orientation adjustment 1,2021.2.3,Win32,60.0132029,,,,,,,
,,,,,,,,,,,,,,,,,,,,,,33.88888889,62,20,75,52.88888889,9.111111111,9.111111111,-37.11111111,0.370000119,-0.302500012,1,0,0,0.233,submitButton,0.445833352,-0.320000012,0,0,0,1,49,109,46,1,62,69727,1,180,2022-02-22_12h17.40.794,orientation adjustment 1,2021.2.3,Win32,60.0132029,,,,,,,
,,,,,,,,,,,,,,,,,,,,,,73.33333333,-68,20,75,-45.66666667,22.33333333,22.33333333,-135.6666667,0.402500018,-0.284166678,1,0,0,0.267,submitButton,-0.15749999,-0.390000013,0,0,0,1,50,110,52,1,68,69727,1,180,2022-02-22_12h17.40.794,orientation adjustment 1,2021.2.3,Win32,60.0132029,,,,,,,
,,,,,,,,,,,,,,,,,,,,,,55.55555556,52,20,75,66.55555556,14.55555556,14.55555556,-23.44444444,0.34333335,-0.293333396,1,0,0,0.7396,submitButton,-0.126666657,-0.380833346,0,0,0,1,51,111,36,1,52,69727,1,180,2022-02-22_12h17.40.794,orientation adjustment 1,2021.2.3,Win32,60.0132029,,,,,,,
,,,,,,,,,,,,,,,,,,,,,,-45,21,20,75,18,3,3,-72,0.415833453,-0.285000063,1,0,0,1.3603,submitButton,-0.179999991,-0.393333347,0,0,0,1,52,112,5,1,21,69727,1,180,2022-02-22_12h17.40.794,orientation adjustment 1,2021.2.3,Win32,60.0132029,,,,,,,
,,,,,,,,,,,,,,,,,,,,,,71.66666667,43,20,75,210.6666667,12.33333333,12.33333333,120.6666667,0.186666681,-0.296666679,1,0,0,1.8434,submitButton,-0.143333324,-0.37166668,0,0,0,1,53,113,27,1,43,69727,1,180,2022-02-22_12h17.40.794,orientation adjustment 1,2021.2.3,Win32,60.0132029,,,,,,,
,,,,,,,,,,,,,,,,,,,,,,-47.22222222,61,20,75,35.77777778,25.22222222,25.22222222,-54.22222222,-0.111666656,-0.385833347,1,0,0,0.5932,submitButton,-0.051666656,-0.313333345,0,0,0,1,54,114,45,1,61,69727,1,180,2022-02-22_12h17.40.794,orientation adjustment 1,2021.2.3,Win32,60.0132029,,,,,,,
,,,,,,,,,,,,,,,,,,,,,,59.44444444,51,20,75,58.44444444,7.444444444,7.444444444,-31.55555556,0.378333453,-0.280000012,1,0,0,0.0597,submitButton,0.067500013,-0.306666679,0,0,0,1,55,115,35,1,51,69727,1,180,2022-02-22_12h17.40.794,orientation adjustment 1,2021.2.3,Win32,60.0132029,,,,,,,
,,,,,,,,,,,,,,,,,,,,,,70.55555556,22,20,75,32.55555556,10.55555556,10.55555556,-57.44444444,0.391666684,-0.281666678,1,0,0,1.1103,submitButton,0.036666679,-0.264166729,0,0,0,1,56,116,6,1,22,69727,1,180,2022-02-22_12h17.40.794,orientation adjustment 1,2021.2.3,Win32,60.0132029,,,,,,,
,,,,,,,,,,,,,,,,,,,,,,52.77777778,74,20,75,68.77777778,5.222222222,5.222222222,-21.22222222,0.349166786,-0.309166679,1,0,0,0.1928,submitButton,0.147500014,-0.123333343,0,0,0,1,57,117,58,1,74,69727,1,180,2022-02-22_12h17.40.794,orientation adjustment 1,2021.2.3,Win32,60.0132029,,,,,,,
,,,,,,,,,,,,,,,,,,,,,,73.33333333,34,20,75,52.33333333,18.33333333,18.33333333,-37.66666667,-0.114166656,-0.40666668,1,0,0,1.6602,submitButton,-0.133333323,-0.367500013,0,0,0,1,58,118,18,1,34,69727,1,180,2022-02-22_12h17.40.794,orientation adjustment 1,2021.2.3,Win32,60.0132029,,,,,,,
,,,,,,,,,,,,,,,,,,,,,,52.22222222,-19,20,75,-19.77777778,0.777777778,0.777777778,-109.7777778,0.390833453,-0.302500012,1,0,0,0.0498,submitButton,0.549166788,-0.417500014,1,0,0,1,59,119,3,1,19,69727,1,180,2022-02-22_12h17.40.794,orientation adjustment 1,2021.2.3,Win32,60.0132029,pause_continueButton,,,,,,
,,,,,,,,,,,,,,,,,,,,,,38.88888889,-19,20,75,-25.11111111,6.111111111,6.111111111,-115.1111111,0.401666685,-0.303333345,1,0,0,0.8506,submitButton,-0.062499989,-0.41166668,0,0,0,2,0,120,3,1,19,69727,1,180,2022-02-22_12h17.40.794,orientation adjustment 1,2021.2.3,Win32,60.0132029,,,,,,,
,,,,,,,,,,,,,,,,,,,,,,58.88888889,-70,20,75,-67.11111111,2.888888889,2.888888889,-157.1111111,-0.17749994,-0.40916668,1,0,0,0.8764,submitButton,-0.333333326,-0.360000013,0,0,0,2,1,121,54,1,70,69727,1,180,2022-02-22_12h17.40.794,orientation adjustment 1,2021.2.3,Win32,60.0132029,,,,,,,
,,,,,,,,,,,,,,,,,,,,,,-50.55555556,18,20,75,15.44444444,2.555555556,2.555555556,-74.55555556,0.352500017,-0.305000012,1,0,0,1.0769,submitButton,-0.209166658,-0.362500013,0,0,0,2,2,122,2,1,18,69727,1,180,2022-02-22_12h17.40.794,orientation adjustment 1,2021.2.3,Win32,60.0132029,,,,,,,
,,,,,,,,,,,,,,,,,,,,,,-33.88888889,43,20,75,40.11111111,2.888888889,2.888888889,-49.88888889,-0.153333324,-0.393333347,1,0,0,0.9175,submitButton,-0.163333324,-0.385833347,0,0,0,2,3,123,27,1,43,69727,1,180,2022-02-22_12h17.40.794,orientation adjustment 1,2021.2.3,Win32,60.0132029,,,,,,,
,,,,,,,,,,,,,,,,,,,,,,-30.55555556,66,20,75,52.44444444,13.55555556,13.55555556,-37.55555556,-0.219999991,-0.380000013,1,0,0,0.6166,submitButton,-0.309166659,-0.321666679,0,0,0,2,4,124,50,1,66,69727,1,180,2022-02-22_12h17.40.794,orientation adjustment 1,2021.2.3,Win32,60.0132029,,,,,,,
,,,,,,,,,,,,,,,,,,,,,,-46.11111111,-32,20,75,-21.11111111,10.88888889,10.88888889,-111.1111111,0.237500015,-0.302500012,1,0,0,1.1504,submitButton,-0.162499991,-0.323333346,0,0,0,2,5,125,16,1,32,69727,1,180,2022-02-22_12h17.40.794,orientation adjustment 1,2021.2.3,Win32,60.0132029,,,,,,,
,,,,,,,,,,,,,,,,,,,,,,-38.33333333,-39,20,75,-23.33333333,15.66666667,15.66666667,-113.3333333,0.185833348,-0.287500012,1,0,0,5.8519,submitButton,-0.008333322,-0.164166727,0,0,0,2,6,126,23,1,39,69727,1,180,2022-02-22_12h17.40.794,orientation adjustment 1,2021.2.3,Win32,60.0132029,,,,,,,
,,,,,,,,,,,,,,,,,,,,,,68.88888889,-74,20,75,-71.11111111,2.888888889,2.888888889,-161.1111111,-0.154166657,-0.395833347,1,0,0,1.4767,submitButton,-0.156666606,-0.370000013,0,0,0,2,7,127,58,1,74,69727,1,180,2022-02-22_12h17.40.794,orientation adjustment 1,2021.2.3,Win32,60.0132029,,,,,,,
,,,,,,,,,,,,,,,,,,,,,,-72.77777778,23,20,75,38.22222222,15.22222222,15.22222222,-51.77777778,0.180000015,-0.330833397,1,0,0,1.3435,submitButton,-0.204166658,-0.403333347,0,0,0,2,8,128,7,1,23,69727,1,180,2022-02-22_12h17.40.794,orientation adjustment 1,2021.2.3,Win32,60.0132029,,,,,,,
,,,,,,,,,,,,,,,,,,,,,,62.77777778,71,20,75,76.77777778,5.777777778,5.777777778,-13.22222222,0.381666684,-0.285833345,1,0,0,2.1842,submitButton,0.063333346,-0.195833344,0,0,0,2,9,129,55,1,71,69727,1,180,2022-02-22_12h17.40.794,orientation adjustment 1,2021.2.3,Win32,60.0132029,,,,,,,
,,,,,,,,,,,,,,,,,,,,,,-33.33333333,24,20,75,20.66666667,3.333333333,3.333333333,-69.33333333,0.543333353,-0.305833396,1,0,0,1.0936,submitButton,-0.061666656,-0.194166677,0,0,0,2,10,130,8,1,24,69727,1,180,2022-02-22_12h17.40.794,orientation adjustment 1,2021.2.3,Win32,60.0132029,,,,,,,
,,,,,,,,,,,,,,,,,,,,,,74.44444444,28,20,75,22.44444444,5.555555556,5.555555556,-67.55555556,0.377500018,-0.272500062,1,0,0,0.0268,submitButton,-0.110833272,-0.367500013,0,0,0,2,11,131,12,1,28,69727,1,180,2022-02-22_12h17.40.794,orientation adjustment 1,2021.2.3,Win32,60.0132029,,,,,,,
,,,,,,,,,,,,,,,,,,,,,,67.77777778,33,20,75,27.77777778,5.222222222,5.222222222,-62.22222222,-0.167499991,-0.38916668,1,0,0,2.6516,submitButton,0.193333348,-0.355000013,0,0,0,2,12,132,17,1,33,69727,1,180,2022-02-22_12h17.40.794,orientation adjustment 1,2021.2.3,Win32,60.0132029,,,,,,,
,,,,,,,,,,,,,,,,,,,,,,-72.77777778,50,20,75,30.22222222,19.77777778,19.77777778,-59.77777778,0.196666682,-0.320833346,1,0,0,1.2671,submitButton,-0.169166606,-0.400833347,0,0,0,2,13,133,34,1,50,69727,1,180,2022-02-22_12h17.40.794,orientation adjustment 1,2021.2.3,Win32,60.0132029,,,,,,,
,,,,,,,,,,,,,,,,,,,,,,-36.66666667,-72,20,75,-232.6666667,19.33333333,19.33333333,-322.6666667,0.365833452,-0.270833345,1,0,0,0.8996,submitButton,0.463333352,-0.40916668,1,0,0,2,14,134,56,1,72,69727,1,180,2022-02-22_12h17.40.794,orientation adjustment 1,2021.2.3,Win32,60.0132029,pause_continueButton,,,,,,
,,,,,,,,,,,,,,,,,,,,,,-36.11111111,48,20,75,47.88888889,0.111111111,0.111111111,-42.11111111,0.210000015,-0.323333346,1,0,0,0.5502,submitButton,0.004166679,-0.330833397,0,0,0,2,15,135,32,1,48,69727,1,180,2022-02-22_12h17.40.794,orientation adjustment 1,2021.2.3,Win32,60.0132029,,,,,,,
,,,,,,,,,,,,,,,,,,,,,,22.77777778,-16,20,75,-22.22222222,6.222222222,6.222222222,-112.2222222,0.251666682,-0.327500012,1,0,0,1.06,submitButton,-0.119166606,-0.39916668,0,0,0,2,16,136,0,1,16,69727,1,180,2022-02-22_12h17.40.794,orientation adjustment 1,2021.2.3,Win32,60.0132029,,,,,,,
,,,,,,,,,,,,,,,,,,,,,,-29.44444444,-53,20,75,-37.44444444,15.55555556,15.55555556,-127.4444444,0.199166682,-0.311666679,1,0,0,0.0999,submitButton,-0.179166657,-0.390000013,0,0,0,2,17,137,37,1,53,69727,1,180,2022-02-22_12h17.40.794,orientation adjustment 1,2021.2.3,Win32,60.0132029,,,,,,,
,,,,,,,,,,,,,,,,,,,,,,51.11111111,-61,20,75,-48.88888889,12.11111111,12.11111111,-138.8888889,-0.135833273,-0.385833347,1,0,0,1.9843,submitButton,-0.135833273,-0.385833347,0,0,0,2,18,138,45,1,61,69727,1,180,2022-02-22_12h17.40.794,orientation adjustment 1,2021.2.3,Win32,60.0132029,,,,,,,
,,,,,,,,,,,,,,,,,,,,,,-38.88888889,-56,20,75,-46.88888889,9.111111111,9.111111111,-136.8888889,0.244166682,-0.325000012,1,0,0,0.1998,submitButton,-0.162499991,-0.37666668,0,0,0,2,19,139,40,1,56,69727,1,180,2022-02-22_12h17.40.794,orientation adjustment 1,2021.2.3,Win32,60.0132029,,,,,,,
,,,,,,,,,,,,,,,,,,,,,,56.11111111,27,20,75,37.11111111,10.11111111,10.11111111,-52.88888889,0.353333452,-0.310833345,1,0,0,0.5598,submitButton,-0.146666657,-0.37916668,0,0,0,2,20,140,11,1,27,69727,1,180,2022-02-22_12h17.40.794,orientation adjustment 1,2021.2.3,Win32,60.0132029,,,,,,,
,,,,,,,,,,,,,,,,,,,,,,-27.77777778,-30,20,75,-31.77777778,1.777777778,1.777777778,-121.7777778,0.215000015,-0.311666679,1,0,0,0.6766,submitButton,-0.10499999,-0.375833346,0,0,0,2,21,141,14,1,30,69727,1,180,2022-02-22_12h17.40.794,orientation adjustment 1,2021.2.3,Win32,60.0132029,,,,,,,
,,,,,,,,,,,,,,,,,,,,,,-53.33333333,35,20,75,30.66666667,4.333333333,4.333333333,-59.33333333,-0.124166657,-0.37666668,1,0,0,0.9768,submitButton,-0.161666657,-0.370833346,0,0,0,2,22,142,19,1,35,69727,1,180,2022-02-22_12h17.40.794,orientation adjustment 1,2021.2.3,Win32,60.0132029,,,,,,,
,,,,,,,,,,,,,,,,,,,,,,-57.77777778,-59,20,75,-34.77777778,24.22222222,24.22222222,-124.7777778,-0.155833324,-0.37916668,1,0,0,2.0101,submitButton,-0.15499999,-0.365833346,0,0,0,2,23,143,43,1,59,69727,1,180,2022-02-22_12h17.40.794,orientation adjustment 1,2021.2.3,Win32,60.0132029,,,,,,,
,,,,,,,,,,,,,,,,,,,,,,46.11111111,45,20,75,55.11111111,10.11111111,10.11111111,-34.88888889,0.367500017,-0.296666679,1,0,0,0.3332,submitButton,-0.16499994,-0.377500013,0,0,0,2,24,144,29,1,45,69727,1,180,2022-02-22_12h17.40.794,orientation adjustment 1,2021.2.3,Win32,60.0132029,,,,,,,
,,,,,,,,,,,,,,,,,,,,,,24.44444444,-34,20,75,-24.55555556,9.444444444,9.444444444,-114.5555556,0.425000018,-0.280000012,1,0,0,0.1267,submitButton,-0.100833323,-0.373333346,0,0,0,2,25,145,18,1,34,69727,1,180,2022-02-22_12h17.40.794,orientation adjustment 1,2021.2.3,Win32,60.0132029,,,,,,,
,,,,,,,,,,,,,,,,,,,,,,38.88888889,-26,20,75,-28.11111111,2.111111111,2.111111111,-118.1111111,0.388333351,-0.281666678,1,0,0,0.0501,submitButton,-0.13249999,-0.39666668,0,0,0,2,26,146,10,1,26,69727,1,180,2022-02-22_12h17.40.794,orientation adjustment 1,2021.2.3,Win32,60.0132029,,,,,,,
,,,,,,,,,,,,,,,,,,,,,,-47.22222222,47,20,75,37.77777778,9.222222222,9.222222222,-52.22222222,-0.217499991,-0.402500013,1,0,0,1.2321,submitButton,-0.218333325,-0.38666668,0,0,0,2,27,147,31,1,47,69727,1,180,2022-02-22_12h17.40.794,orientation adjustment 1,2021.2.3,Win32,60.0132029,,,,,,,
,,,,,,,,,,,,,,,,,,,,,,-65,38,20,75,38,0,0,-52,-0.14499999,-0.38166668,1,0,0,1.4505,submitButton,-0.14499999,-0.38166668,0,0,0,2,28,148,22,1,38,69727,1,180,2022-02-22_12h17.40.794,orientation adjustment 1,2021.2.3,Win32,60.0132029,,,,,,,
,,,,,,,,,,,,,,,,,,,,,,67.22222222,64,20,75,231.2222222,12.77777778,12.77777778,141.2222222,0.390833453,-0.296666679,1,0,0,2.6273,submitButton,0.549166788,-0.405833347,1,0,0,2,29,149,48,1,64,69727,1,180,2022-02-22_12h17.40.794,orientation adjustment 1,2021.2.3,Win32,60.0132029,pause_continueButton,,,,,,
,,,,,,,,,,,,,,,,,,,,,,41.11111111,-36,20,75,-24.88888889,11.11111111,11.11111111,-114.8888889,0.444166685,-0.289166729,1,0,0,26.6424,submitButton,-0.051666656,-0.310000063,0,0,0,2,30,150,20,1,36,69727,1,180,2022-02-22_12h17.40.794,orientation adjustment 1,2021.2.3,Win32,60.0132029,,,,,,,
,,,,,,,,,,,,,,,,,,,,,,-72.77777778,-54,20,75,-58.77777778,4.777777778,4.777777778,-148.7777778,0.485000019,-0.355000013,1,0,0,0.1237,submitButton,-0.183333324,-0.40166668,0,0,0,2,31,151,38,1,54,69727,1,180,2022-02-22_12h17.40.794,orientation adjustment 1,2021.2.3,Win32,60.0132029,,,,,,,
,,,,,,,,,,,,,,,,,,,,,,66.11111111,57,20,75,61.11111111,4.111111111,4.111111111,-28.88888889,0.410833351,-0.293333396,1,0,0,0.217,submitButton,-0.103333323,-0.400000013,0,0,0,2,32,152,41,1,57,69727,1,180,2022-02-22_12h17.40.794,orientation adjustment 1,2021.2.3,Win32,60.0132029,,,,,,,
,,,,,,,,,,,,,,,,,,,,,,48.88888889,-31,20,75,-18.11111111,12.88888889,12.88888889,-108.1111111,0.187500015,-0.300000012,1,0,0,0.0336,submitButton,0.32083335,-0.323333346,0,0,0,2,33,153,15,1,31,69727,1,180,2022-02-22_12h17.40.794,orientation adjustment 1,2021.2.3,Win32,60.0132029,,,,,,,
,,,,,,,,,,,,,,,,,,,,,,52.22222222,-21,20,75,-17.77777778,3.222222222,3.222222222,-107.7777778,-0.125833323,-0.413333347,1,0,0,1.6174,submitButton,-0.128333323,-0.410833347,0,0,0,2,34,154,5,1,21,69727,1,180,2022-02-22_12h17.40.794,orientation adjustment 1,2021.2.3,Win32,60.0132029,,,,,,,
,,,,,,,,,,,,,,,,,,,,,,-32.22222222,17,20,75,18.77777778,1.777777778,1.777777778,-71.22222222,0.32083335,-0.281666678,1,0,0,1.2433,submitButton,-0.130833323,-0.400000013,0,0,0,2,35,155,1,1,17,69727,1,180,2022-02-22_12h17.40.794,orientation adjustment 1,2021.2.3,Win32,60.0132029,,,,,,,
,,,,,,,,,,,,,,,,,,,,,,50,29,20,75,40,11,11,-50,0.388333351,-0.317500012,1,0,0,0.2264,submitButton,0.211666682,-0.317500012,0,0,0,2,36,156,13,1,29,69727,1,180,2022-02-22_12h17.40.794,orientation adjustment 1,2021.2.3,Win32,60.0132029,,,,,,,
,,,,,,,,,,,,,,,,,,,,,,44.44444444,-52,20,75,-34.55555556,17.44444444,17.44444444,-124.5555556,-0.146666657,-0.402500013,1,0,0,1.017,submitButton,0.163333348,-0.347500063,0,0,0,2,37,157,36,1,52,69727,1,180,2022-02-22_12h17.40.794,orientation adjustment 1,2021.2.3,Win32,60.0132029,,,,,,,
,,,,,,,,,,,,,,,,,,,,,,24.44444444,60,20,75,57.44444444,2.555555556,2.555555556,-32.55555556,0.409166685,-0.292500012,1,0,0,0.0774,submitButton,-0.195833324,-0.41416668,0,0,0,2,38,158,44,1,60,69727,1,180,2022-02-22_12h17.40.794,orientation adjustment 1,2021.2.3,Win32,60.0132029,,,,,,,
,,,,,,,,,,,,,,,,,,,,,,60.55555556,22,20,75,46.55555556,24.55555556,24.55555556,-43.44444444,0.53000002,-0.295000012,1,0,0,0.1005,submitButton,0.172500014,-0.303333345,0,0,0,2,39,159,6,1,22,69727,1,180,2022-02-22_12h17.40.794,orientation adjustment 1,2021.2.3,Win32,60.0132029,,,,,,,
,,,,,,,,,,,,,,,,,,,,,,-71.66666667,41,20,75,-121.6666667,17.33333333,17.33333333,-211.6666667,0.359166684,-0.286666678,1,0,0,0.1436,submitButton,0.09416668,-0.37916668,0,0,0,2,40,160,25,1,41,69727,1,180,2022-02-22_12h17.40.794,orientation adjustment 1,2021.2.3,Win32,60.0132029,,,,,,,
,,,,,,,,,,,,,,,,,,,,,,58.88888889,65,20,75,62.88888889,2.111111111,2.111111111,-27.11111111,0.365000017,-0.319166679,1,0,0,1.0437,submitButton,0.093333347,-0.385833347,0,0,0,2,41,161,49,1,65,69727,1,180,2022-02-22_12h17.40.794,orientation adjustment 1,2021.2.3,Win32,60.0132029,,,,,,,
,,,,,,,,,,,,,,,,,,,,,,-70,68,20,75,52,16,16,-38,0.169166681,-0.325000012,1,0,0,0.6434,submitButton,-0.244166608,-0.378333346,0,0,0,2,42,162,52,1,68,69727,1,180,2022-02-22_12h17.40.794,orientation adjustment 1,2021.2.3,Win32,60.0132029,,,,,,,
,,,,,,,,,,,,,,,,,,,,,,70,-49,20,75,-46,3,3,-136,0.370000119,-0.303333345,1,0,0,1.0101,submitButton,-0.365833327,-0.39666668,0,0,0,2,43,163,33,1,49,69727,1,180,2022-02-22_12h17.40.794,orientation adjustment 1,2021.2.3,Win32,60.0132029,,,,,,,
,,,,,,,,,,,,,,,,,,,,,,68.88888889,73,20,75,60.88888889,12.11111111,12.11111111,-29.11111111,0.280000016,-0.308333345,1,0,0,0.0831,submitButton,0.549166788,-0.39166668,1,0,0,2,44,164,57,1,73,69727,1,180,2022-02-22_12h17.40.794,orientation adjustment 1,2021.2.3,Win32,60.0132029,pause_continueButton,,,,,,
,,,,,,,,,,,,,,,,,,,,,,-50.55555556,-20,20,75,-110.5555556,89.44444444,89.44444444,-200.5555556,0.224166682,-0.290833345,1,0,0,10.1702,submitButton,-0.116666656,-0.244166678,0,0,0,2,45,165,4,1,20,69727,1,180,2022-02-22_12h17.40.794,orientation adjustment 1,2021.2.3,Win32,60.0132029,,,,,,,
,,,,,,,,,,,,,,,,,,,,,,31.66666667,-40,20,75,-40.33333333,0.333333333,0.333333333,-130.3333333,-0.15999999,-0.380000013,1,0,0,0.9099,submitButton,-0.155833324,-0.372500013,0,0,0,2,46,166,24,1,40,69727,1,180,2022-02-22_12h17.40.794,orientation adjustment 1,2021.2.3,Win32,60.0132029,,,,,,,
,,,,,,,,,,,,,,,,,,,,,,-20.55555556,-62,20,75,-58.55555556,3.444444444,3.444444444,-148.5555556,0.394166684,-0.290833345,1,0,0,1.6675,submitButton,-0.089999939,-0.360833346,0,0,0,2,47,167,46,1,62,69727,1,180,2022-02-22_12h17.40.794,orientation adjustment 1,2021.2.3,Win32,60.0132029,,,,,,,
,,,,,,,,,,,,,,,,,,,,,,23.88888889,-51,20,75,-55.11111111,4.111111111,4.111111111,-145.1111111,-0.227499941,-0.38666668,1,0,0,0.8764,submitButton,-0.231666607,-0.354166679,0,0,0,2,48,168,35,1,51,69727,1,180,2022-02-22_12h17.40.794,orientation adjustment 1,2021.2.3,Win32,60.0132029,,,,,,,
,,,,,,,,,,,,,,,,,,,,,,42.77777778,55,20,75,63.77777778,8.777777778,8.777777778,-26.22222222,0.207500015,-0.317500012,1,0,0,0.8436,submitButton,-0.219166607,-0.393333347,0,0,0,2,49,169,39,1,55,69727,1,180,2022-02-22_12h17.40.794,orientation adjustment 1,2021.2.3,Win32,60.0132029,,,,,,,
,,,,,,,,,,,,,,,,,,,,,,69.44444444,69,20,75,75.44444444,6.444444444,6.444444444,-14.55555556,0.401666685,-0.304166679,1,0,0,0.0572,submitButton,-0.258333325,-0.420000014,0,0,0,2,50,170,53,1,69,69727,1,180,2022-02-22_12h17.40.794,orientation adjustment 1,2021.2.3,Win32,60.0132029,,,,,,,
,,,,,,,,,,,,,,,,,,,,,,-37.77777778,58,20,75,53.22222222,4.777777778,4.777777778,-36.77777778,0.238333349,-0.305000012,1,0,0,0.2835,submitButton,0.010000063,-0.370833346,0,0,0,2,51,171,42,1,58,69727,1,180,2022-02-22_12h17.40.794,orientation adjustment 1,2021.2.3,Win32,60.0132029,,,,,,,
,,,,,,,,,,,,,,,,,,,,,,53.33333333,63,20,75,60.33333333,2.666666667,2.666666667,-29.66666667,0.387500018,-0.309166679,1,0,0,3.7688,submitButton,-0.134166657,-0.37166668,0,0,0,2,52,172,47,1,63,69727,1,180,2022-02-22_12h17.40.794,orientation adjustment 1,2021.2.3,Win32,60.0132029,,,,,,,
,,,,,,,,,,,,,,,,,,,,,,53.88888889,-37,20,75,-33.11111111,3.888888889,3.888888889,-123.1111111,0.357500119,-0.287500012,1,0,0,0.7339,submitButton,-0.125833323,-0.385000013,0,0,0,2,53,173,21,1,37,69727,1,180,2022-02-22_12h17.40.794,orientation adjustment 1,2021.2.3,Win32,60.0132029,,,,,,,
,,,,,,,,,,,,,,,,,,,,,,53.33333333,-44,20,75,-35.66666667,8.333333333,8.333333333,-125.6666667,0.366666684,-0.281666678,1,0,0,0.0991,submitButton,-0.194166607,-0.395833347,0,0,0,2,54,174,28,1,44,69727,1,180,2022-02-22_12h17.40.794,orientation adjustment 1,2021.2.3,Win32,60.0132029,,,,,,,
,,,,,,,,,,,,,,,,,,,,,,-35,-67,20,75,-62,5,5,-152,0.072500013,-0.328333346,1,0,0,0.0168,submitButton,-0.15999999,-0.40166668,0,0,0,2,55,175,51,1,67,69727,1,180,2022-02-22_12h17.40.794,orientation adjustment 1,2021.2.3,Win32,60.0132029,,,,,,,
,,,,,,,,,,,,,,,,,,,,,,-26.66666667,25,20,75,20.33333333,4.666666667,4.666666667,-69.66666667,0.339166684,-0.292500012,1,0,0,1.0265,submitButton,-0.239999941,-0.40666668,0,0,0,2,56,176,9,1,25,69727,1,180,2022-02-22_12h17.40.794,orientation adjustment 1,2021.2.3,Win32,60.0132029,,,,,,,
,,,,,,,,,,,,,,,,,,,,,,70.55555556,-46,20,75,-42.44444444,3.555555556,3.555555556,-132.4444444,0.390000018,-0.289166729,1,0,0,0.5667,submitButton,-0.196666658,-0.410833347,0,0,0,2,57,177,30,1,46,69727,1,180,2022-02-22_12h17.40.794,orientation adjustment 1,2021.2.3,Win32,60.0132029,,,,,,,
,,,,,,,,,,,,,,,,,,,,,,66.66666667,75,20,75,219.6666667,35.33333333,35.33333333,129.6666667,-0.182499991,-0.40666668,1,0,0,1.6937,submitButton,-0.191666658,-0.410833347,0,0,0,2,58,178,59,1,75,69727,1,180,2022-02-22_12h17.40.794,orientation adjustment 1,2021.2.3,Win32,60.0132029,,,,,,,
,,,,,,,,,,,,,,,,,,,,,,68.33333333,-42,20,75,-35.66666667,6.333333333,6.333333333,-125.6666667,0.365000017,-0.295000012,1,0,0,0.8338,submitButton,-0.169999991,-0.420833347,0,0,0,2,59,179,26,1,42,69727,1,180,2022-02-22_12h17.40.794,orientation adjustment 1,2021.2.3,Win32,60.0132029,,,,,,,
,,,,,,,,,,,,,,,,,,,,,,,,,,,,,,,,,,,,,,,,,,,,,,,,69727,1,180,2022-02-22_12h17.40.794,orientation adjustment 1,2021.2.3,Win32,60.0132029,,0.275833349,-0.387500013,1,0,0,EndButtonTxt
