consentMouse1.x,consentMouse1.y,consentMouse1.leftButton,consentMouse1.midButton,consentMouse1.rightButton,consentMouse1.clicked_name,consent_Mouse.x,consent_Mouse.y,consent_Mouse.leftButton,consent_Mouse.midButton,consent_Mouse.rightButton,consent_Mouse.clicked_name,startMouse.x,startMouse.y,startMouse.leftButton,startMouse.midButton,startMouse.rightButton,startMouse_2.x,startMouse_2.y,startMouse_2.leftButton,startMouse_2.midButton,startMouse_2.rightButton,start_distance,fixedOri,minimalDistance,maxOri,this_ori,accuracy,presented_accuracy,presented_this_ori,submitMouse.x,submitMouse.y,submitMouse.leftButton,submitMouse.midButton,submitMouse.rightButton,submitMouse.time,submitMouse.clicked_name,pauseMouse.x,pauseMouse.y,pauseMouse.leftButton,pauseMouse.midButton,pauseMouse.rightButton,trials.thisRepN,trials.thisTrialN,trials.thisN,trials.thisIndex,trials.ran,startOri,participant,condition,nTrials,date,expName,psychopyVersion,OS,frameRate,pauseMouse.clicked_name,EndButtonMouse.x,EndButtonMouse.y,EndButtonMouse.leftButton,EndButtonMouse.midButton,EndButtonMouse.rightButton,EndButtonMouse.clicked_name
0.317777778,-0.394444444,1,0,0,consent_button1,0.38,-0.411111111,1,0,0,consent_button,0.326666667,-0.326666667,1,0,0,0.326666667,-0.334444444,1,0,0,52.77777778,37,20,75,209.7777778,7.222222222,7.222222222,119.7777778,0.28,-0.307777778,1,0,0,0.199,submitButton,-0.445555556,-0.395555556,0,0,0,0,0,0,21,1,37,69853,1,180,2022-02-23_21h59.19,orientation adjustment 1,2021.2.3,MacIntel,66.66666667,,,,,,,
,,,,,,,,,,,,,,,,,,,,,,-52.77777778,74,20,75,70.22222222,3.777777778,3.777777778,-19.77777778,0.217777778,-0.288888889,1,0,0,0.016,submitButton,-0.168888889,-0.403333333,0,0,0,0,1,1,58,1,74,69853,1,180,2022-02-23_21h59.19,orientation adjustment 1,2021.2.3,MacIntel,66.66666667,,,,,,,
,,,,,,,,,,,,,,,,,,,,,,46.66666667,46,20,75,213.6666667,12.33333333,12.33333333,123.6666667,0.194444444,-0.331111111,1,0,0,0.134,submitButton,-0.15,-0.408888889,0,0,0,0,2,2,30,1,46,69853,1,180,2022-02-23_21h59.19,orientation adjustment 1,2021.2.3,MacIntel,66.66666667,,,,,,,
,,,,,,,,,,,,,,,,,,,,,,-21.66666667,-31,20,75,-27.66666667,3.333333333,3.333333333,-117.6666667,0.242222222,-0.322222222,1,0,0,0.383,submitButton,-0.16,-0.394444444,0,0,0,0,3,3,15,1,31,69853,1,180,2022-02-23_21h59.19,orientation adjustment 1,2021.2.3,MacIntel,66.66666667,,,,,,,
,,,,,,,,,,,,,,,,,,,,,,45,-35,20,75,-27,8,8,-117,0.394444444,-0.29,1,0,0,0.299,submitButton,-0.315555556,-0.397777778,0,0,0,0,4,4,19,1,35,69853,1,180,2022-02-23_21h59.19,orientation adjustment 1,2021.2.3,MacIntel,66.66666667,,,,,,,
,,,,,,,,,,,,,,,,,,,,,,-58.33333333,-17,20,75,-27.33333333,10.33333333,10.33333333,-117.3333333,0.204444444,-0.297777778,1,0,0,0.05,submitButton,-0.227777778,-0.394444444,0,0,0,0,5,5,1,1,17,69853,1,180,2022-02-23_21h59.19,orientation adjustment 1,2021.2.3,MacIntel,66.66666667,,,,,,,
,,,,,,,,,,,,,,,,,,,,,,-39.44444444,-28,20,75,-28.44444444,0.444444444,0.444444444,-118.4444444,0.204444444,-0.284444444,1,0,0,0.101,submitButton,-0.255555556,-0.425555556,0,0,0,0,6,6,12,1,28,69853,1,180,2022-02-23_21h59.19,orientation adjustment 1,2021.2.3,MacIntel,66.66666667,,,,,,,
,,,,,,,,,,,,,,,,,,,,,,35,21,20,75,203,2,2,113,0.196666667,-0.297777778,1,0,0,0.05,submitButton,-0.198888889,-0.406666667,0,0,0,0,7,7,5,1,21,69853,1,180,2022-02-23_21h59.19,orientation adjustment 1,2021.2.3,MacIntel,66.66666667,,,,,,,
,,,,,,,,,,,,,,,,,,,,,,73.88888889,22,20,75,190.8888889,11.11111111,11.11111111,100.8888889,0.192222222,-0.307777778,1,0,0,0.384,submitButton,0.054444444,-0.34,0,0,0,0,8,8,6,1,22,69853,1,180,2022-02-23_21h59.19,orientation adjustment 1,2021.2.3,MacIntel,66.66666667,,,,,,,
,,,,,,,,,,,,,,,,,,,,,,43.33333333,58,20,75,66.33333333,8.333333333,8.333333333,-23.66666667,-0.205555556,-0.427777778,1,0,0,1.466,submitButton,-0.205555556,-0.427777778,0,0,0,0,9,9,42,1,58,69853,1,180,2022-02-23_21h59.19,orientation adjustment 1,2021.2.3,MacIntel,66.66666667,,,,,,,
,,,,,,,,,,,,,,,,,,,,,,-26.11111111,30,20,75,20.88888889,9.111111111,9.111111111,-69.11111111,-0.146666667,-0.406666667,1,0,0,1.201,submitButton,-0.146666667,-0.406666667,0,0,0,0,10,10,14,1,30,69853,1,180,2022-02-23_21h59.19,orientation adjustment 1,2021.2.3,MacIntel,66.66666667,,,,,,,
,,,,,,,,,,,,,,,,,,,,,,-72.77777778,-62,20,75,-212.7777778,29.22222222,29.22222222,-302.7777778,0.434444444,-0.256666667,1,0,0,0.882,submitButton,-0.251111111,-0.414444444,0,0,0,0,11,11,46,1,62,69853,1,180,2022-02-23_21h59.19,orientation adjustment 1,2021.2.3,MacIntel,66.66666667,,,,,,,
,,,,,,,,,,,,,,,,,,,,,,59.44444444,-50,20,75,-25.55555556,24.44444444,24.44444444,-115.5555556,0.377777778,-0.281111111,1,0,0,0.117,submitButton,0.001111111,-0.307777778,0,0,0,0,12,12,34,1,50,69853,1,180,2022-02-23_21h59.19,orientation adjustment 1,2021.2.3,MacIntel,66.66666667,,,,,,,
,,,,,,,,,,,,,,,,,,,,,,62.22222222,-55,20,75,-34.77777778,20.22222222,20.22222222,-124.7777778,0.366666667,-0.261111111,1,0,0,0.2,submitButton,-0.165555556,-0.393333333,0,0,0,0,13,13,39,1,55,69853,1,180,2022-02-23_21h59.19,orientation adjustment 1,2021.2.3,MacIntel,66.66666667,,,,,,,
,,,,,,,,,,,,,,,,,,,,,,-26.11111111,-18,20,75,-25.11111111,7.111111111,7.111111111,-115.1111111,0.175555556,-0.314444444,1,0,0,0.067,submitButton,0.321111111,-0.398888889,1,0,0,0,14,14,2,1,18,69853,1,180,2022-02-23_21h59.19,orientation adjustment 1,2021.2.3,MacIntel,66.66666667,pause_continueButton,,,,,,
,,,,,,,,,,,,,,,,,,,,,,-66.66666667,20,20,75,15.33333333,4.666666667,4.666666667,-74.66666667,-0.123333333,-0.4,1,0,0,1.7,submitButton,-0.123333333,-0.4,0,0,0,0,15,15,4,1,20,69853,1,180,2022-02-23_21h59.19,orientation adjustment 1,2021.2.3,MacIntel,66.66666667,,,,,,,
,,,,,,,,,,,,,,,,,,,,,,-36.11111111,26,20,75,-39.11111111,65.11111111,65.11111111,-129.1111111,0.353333333,-0.292222222,1,0,0,2.083,submitButton,-0.393333333,-0.394444444,0,0,0,0,16,16,10,1,26,69853,1,180,2022-02-23_21h59.19,orientation adjustment 1,2021.2.3,MacIntel,66.66666667,,,,,,,
,,,,,,,,,,,,,,,,,,,,,,-60,-49,20,75,-211,18,18,-301,-0.238888889,-0.413333333,1,0,0,2.233,submitButton,-0.238888889,-0.413333333,0,0,0,0,17,17,33,1,49,69853,1,180,2022-02-23_21h59.19,orientation adjustment 1,2021.2.3,MacIntel,66.66666667,,,,,,,
,,,,,,,,,,,,,,,,,,,,,,51.11111111,59,20,75,205.1111111,33.88888889,33.88888889,115.1111111,-0.327777778,-0.405555556,1,0,0,1.917,submitButton,0.105555556,-0.31,0,0,0,0,18,18,43,1,59,69853,1,180,2022-02-23_21h59.19,orientation adjustment 1,2021.2.3,MacIntel,66.66666667,,,,,,,
,,,,,,,,,,,,,,,,,,,,,,31.66666667,-69,20,75,-51.33333333,17.66666667,17.66666667,-141.3333333,0.365555556,-0.283333333,1,0,0,0.333,submitButton,-0.107777778,-0.364444444,0,0,0,0,19,19,53,1,69,69853,1,180,2022-02-23_21h59.19,orientation adjustment 1,2021.2.3,MacIntel,66.66666667,,,,,,,
,,,,,,,,,,,,,,,,,,,,,,-27.77777778,63,20,75,46.22222222,16.77777778,16.77777778,-43.77777778,0.19,-0.308888889,1,0,0,0.299,submitButton,-0.166666667,-0.38,0,0,0,0,20,20,47,1,63,69853,1,180,2022-02-23_21h59.19,orientation adjustment 1,2021.2.3,MacIntel,66.66666667,,,,,,,
,,,,,,,,,,,,,,,,,,,,,,24.44444444,-34,20,75,-16.55555556,17.44444444,17.44444444,-106.5555556,0.387777778,-0.293333333,1,0,0,0.016,submitButton,-0.202222222,-0.407777778,0,0,0,0,21,21,18,1,34,69853,1,180,2022-02-23_21h59.19,orientation adjustment 1,2021.2.3,MacIntel,66.66666667,,,,,,,
,,,,,,,,,,,,,,,,,,,,,,-50.55555556,70,20,75,39.44444444,30.55555556,30.55555556,-50.55555556,0.2,-0.314444444,1,0,0,0.116,submitButton,-0.236666667,-0.403333333,0,0,0,0,22,22,54,1,70,69853,1,180,2022-02-23_21h59.19,orientation adjustment 1,2021.2.3,MacIntel,66.66666667,,,,,,,
,,,,,,,,,,,,,,,,,,,,,,-68.88888889,56,20,75,39.11111111,16.88888889,16.88888889,-50.88888889,0.224444444,-0.328888889,1,0,0,0.116,submitButton,-0.162222222,-0.406666667,0,0,0,0,23,23,40,1,56,69853,1,180,2022-02-23_21h59.19,orientation adjustment 1,2021.2.3,MacIntel,66.66666667,,,,,,,
,,,,,,,,,,,,,,,,,,,,,,70.55555556,25,20,75,195.5555556,9.444444444,9.444444444,105.5555556,0.187777778,-0.29,1,0,0,0.017,submitButton,-0.275555556,-0.416666667,0,0,0,0,24,24,9,1,25,69853,1,180,2022-02-23_21h59.19,orientation adjustment 1,2021.2.3,MacIntel,66.66666667,,,,,,,
,,,,,,,,,,,,,,,,,,,,,,-57.77777778,-48,20,75,-217.7777778,10.22222222,10.22222222,-307.7777778,0.45,-0.275555556,1,0,0,1.933,submitButton,-0.274444444,-0.42,0,0,0,0,25,25,32,1,48,69853,1,180,2022-02-23_21h59.19,orientation adjustment 1,2021.2.3,MacIntel,66.66666667,,,,,,,
,,,,,,,,,,,,,,,,,,,,,,-61.11111111,-27,20,75,-30.11111111,3.111111111,3.111111111,-120.1111111,0.218888889,-0.307777778,1,0,0,0.717,submitButton,-0.148888889,-0.396666667,0,0,0,0,26,26,11,1,27,69853,1,180,2022-02-23_21h59.19,orientation adjustment 1,2021.2.3,MacIntel,66.66666667,,,,,,,
,,,,,,,,,,,,,,,,,,,,,,-36.11111111,-66,20,75,-228.1111111,17.88888889,17.88888889,-318.1111111,0.381111111,-0.285555556,1,0,0,2.016,submitButton,-0.152222222,-0.4,0,0,0,0,27,27,50,1,66,69853,1,180,2022-02-23_21h59.19,orientation adjustment 1,2021.2.3,MacIntel,66.66666667,,,,,,,
,,,,,,,,,,,,,,,,,,,,,,-73.88888889,-24,20,75,-29.88888889,5.888888889,5.888888889,-119.8888889,-0.165555556,-0.377777778,1,0,0,1.317,submitButton,-0.165555556,-0.377777778,0,0,0,0,28,28,8,1,24,69853,1,180,2022-02-23_21h59.19,orientation adjustment 1,2021.2.3,MacIntel,66.66666667,,,,,,,
,,,,,,,,,,,,,,,,,,,,,,-55.55555556,65,20,75,49.44444444,15.55555556,15.55555556,-40.55555556,-0.2,-0.43,1,0,0,0.784,submitButton,0.395555556,-0.401111111,1,0,0,0,29,29,49,1,65,69853,1,180,2022-02-23_21h59.19,orientation adjustment 1,2021.2.3,MacIntel,66.66666667,pause_continueButton,,,,,,
,,,,,,,,,,,,,,,,,,,,,,-22.77777778,23,20,75,14.22222222,8.777777778,8.777777778,-75.77777778,0.204444444,-0.315555556,1,0,0,0.05,submitButton,-0.217777778,-0.405555556,0,0,0,0,30,30,7,1,23,69853,1,180,2022-02-23_21h59.19,orientation adjustment 1,2021.2.3,MacIntel,66.66666667,,,,,,,
,,,,,,,,,,,,,,,,,,,,,,22.22222222,-42,20,75,-26.77777778,15.22222222,15.22222222,-116.7777778,-0.153333333,-0.396666667,1,0,0,0.833,submitButton,-0.153333333,-0.396666667,0,0,0,0,31,31,26,1,42,69853,1,180,2022-02-23_21h59.19,orientation adjustment 1,2021.2.3,MacIntel,66.66666667,,,,,,,
,,,,,,,,,,,,,,,,,,,,,,52.77777778,-54,20,75,-27.22222222,26.77777778,26.77777778,-117.2222222,0.408888889,-0.305555556,1,0,0,0.133,submitButton,-0.351111111,-0.405555556,0,0,0,0,32,32,38,1,54,69853,1,180,2022-02-23_21h59.19,orientation adjustment 1,2021.2.3,MacIntel,66.66666667,,,,,,,
,,,,,,,,,,,,,,,,,,,,,,-33.33333333,-53,20,75,-214.3333333,18.66666667,18.66666667,-304.3333333,-0.164444444,-0.367777778,1,0,0,2.383,submitButton,-0.171111111,-0.404444444,0,0,0,0,33,33,37,1,53,69853,1,180,2022-02-23_21h59.19,orientation adjustment 1,2021.2.3,MacIntel,66.66666667,,,,,,,
,,,,,,,,,,,,,,,,,,,,,,-34.44444444,45,20,75,24.55555556,20.44444444,20.44444444,-65.44444444,0.196666667,-0.311111111,1,0,0,0.049,submitButton,-0.14,-0.397777778,0,0,0,0,34,34,29,1,45,69853,1,180,2022-02-23_21h59.19,orientation adjustment 1,2021.2.3,MacIntel,66.66666667,,,,,,,
,,,,,,,,,,,,,,,,,,,,,,32.77777778,-38,20,75,-16.22222222,21.77777778,21.77777778,-106.2222222,-0.132222222,-0.42,1,0,0,0.6,submitButton,-0.132222222,-0.42,0,0,0,0,35,35,22,1,38,69853,1,180,2022-02-23_21h59.19,orientation adjustment 1,2021.2.3,MacIntel,66.66666667,,,,,,,
,,,,,,,,,,,,,,,,,,,,,,-35.55555556,64,20,75,41.44444444,22.55555556,22.55555556,-48.55555556,0.205555556,-0.303333333,1,0,0,0.134,submitButton,-0.104444444,-0.381111111,0,0,0,0,36,36,48,1,64,69853,1,180,2022-02-23_21h59.19,orientation adjustment 1,2021.2.3,MacIntel,66.66666667,,,,,,,
,,,,,,,,,,,,,,,,,,,,,,57.77777778,-75,20,75,-32.22222222,42.77777778,42.77777778,-122.2222222,0.395555556,-0.288888889,1,0,0,0.05,submitButton,-0.296666667,-0.387777778,0,0,0,0,37,37,59,1,75,69853,1,180,2022-02-23_21h59.19,orientation adjustment 1,2021.2.3,MacIntel,66.66666667,,,,,,,
,,,,,,,,,,,,,,,,,,,,,,-44.44444444,41,20,75,30.55555556,10.44444444,10.44444444,-59.44444444,0.194444444,-0.337777778,1,0,0,0.316,submitButton,-0.194444444,-0.4,0,0,0,0,38,38,25,1,41,69853,1,180,2022-02-23_21h59.19,orientation adjustment 1,2021.2.3,MacIntel,66.66666667,,,,,,,
,,,,,,,,,,,,,,,,,,,,,,54.44444444,61,20,75,213.4444444,27.55555556,27.55555556,123.4444444,-0.185555556,-0.373333333,1,0,0,1.933,submitButton,-0.175555556,-0.392222222,0,0,0,0,39,39,45,1,61,69853,1,180,2022-02-23_21h59.19,orientation adjustment 1,2021.2.3,MacIntel,66.66666667,,,,,,,
,,,,,,,,,,,,,,,,,,,,,,-53.33333333,68,20,75,35.66666667,32.33333333,32.33333333,-54.33333333,-0.18,-0.384444444,1,0,0,0.584,submitButton,-0.135555556,-0.367777778,0,0,0,0,40,40,52,1,68,69853,1,180,2022-02-23_21h59.19,orientation adjustment 1,2021.2.3,MacIntel,66.66666667,,,,,,,
,,,,,,,,,,,,,,,,,,,,,,-40,57,20,75,41,16,16,-49,-0.176666667,-0.402222222,1,0,0,1.183,submitButton,-0.176666667,-0.402222222,0,0,0,0,41,41,41,1,57,69853,1,180,2022-02-23_21h59.19,orientation adjustment 1,2021.2.3,MacIntel,66.66666667,,,,,,,
,,,,,,,,,,,,,,,,,,,,,,-55,60,20,75,36,24,24,-54,-0.252222222,-0.391111111,1,0,0,0.666,submitButton,-0.252222222,-0.39,0,0,0,0,42,42,44,1,60,69853,1,180,2022-02-23_21h59.19,orientation adjustment 1,2021.2.3,MacIntel,66.66666667,,,,,,,
,,,,,,,,,,,,,,,,,,,,,,35.55555556,-36,20,75,-23.44444444,12.55555556,12.55555556,-113.4444444,-0.138888889,-0.408888889,1,0,0,0.683,submitButton,-0.138888889,-0.407777778,0,0,0,0,43,43,20,1,36,69853,1,180,2022-02-23_21h59.19,orientation adjustment 1,2021.2.3,MacIntel,66.66666667,,,,,,,
,,,,,,,,,,,,,,,,,,,,,,-68.88888889,40,20,75,30.11111111,9.888888889,9.888888889,-59.88888889,0.202222222,-0.332222222,1,0,0,0.816,submitButton,0.364444444,-0.385555556,1,0,0,0,44,44,24,1,40,69853,1,180,2022-02-23_21h59.19,orientation adjustment 1,2021.2.3,MacIntel,66.66666667,pause_continueButton,,,,,,
,,,,,,,,,,,,,,,,,,,,,,-55.55555556,72,20,75,44.44444444,27.55555556,27.55555556,-45.55555556,-0.154444444,-0.428888889,1,0,0,0.567,submitButton,-0.244444444,-0.403333333,0,0,0,0,45,45,56,1,72,69853,1,180,2022-02-23_21h59.19,orientation adjustment 1,2021.2.3,MacIntel,66.66666667,,,,,,,
,,,,,,,,,,,,,,,,,,,,,,-55.55555556,-43,20,75,-209.5555556,13.44444444,13.44444444,-299.5555556,-0.154444444,-0.378888889,1,0,0,2.134,submitButton,-0.154444444,-0.378888889,0,0,0,0,46,46,27,1,43,69853,1,180,2022-02-23_21h59.19,orientation adjustment 1,2021.2.3,MacIntel,66.66666667,,,,,,,
,,,,,,,,,,,,,,,,,,,,,,63.33333333,52,20,75,206.3333333,25.66666667,25.66666667,116.3333333,0.011111111,-0.403333333,1,0,0,1.683,submitButton,-0.125555556,-0.417777778,0,0,0,0,47,47,36,1,52,69853,1,180,2022-02-23_21h59.19,orientation adjustment 1,2021.2.3,MacIntel,66.66666667,,,,,,,
,,,,,,,,,,,,,,,,,,,,,,24.44444444,-71,20,75,-59.55555556,11.44444444,11.44444444,-149.5555556,0.381111111,-0.272222222,1,0,0,0.083,submitButton,-0.19,-0.413333333,0,0,0,0,48,48,55,1,71,69853,1,180,2022-02-23_21h59.19,orientation adjustment 1,2021.2.3,MacIntel,66.66666667,,,,,,,
,,,,,,,,,,,,,,,,,,,,,,75,-33,20,75,137,10,10,47,0.208888889,-0.292222222,1,0,0,1.434,submitButton,-0.243333333,-0.405555556,0,0,0,0,49,49,17,1,33,69853,1,180,2022-02-23_21h59.19,orientation adjustment 1,2021.2.3,MacIntel,66.66666667,,,,,,,
,,,,,,,,,,,,,,,,,,,,,,-33.33333333,-39,20,75,-37.33333333,1.666666667,1.666666667,-127.3333333,-0.12,-0.384444444,1,0,0,0.684,submitButton,-0.12,-0.384444444,0,0,0,0,50,50,23,1,39,69853,1,180,2022-02-23_21h59.19,orientation adjustment 1,2021.2.3,MacIntel,66.66666667,,,,,,,
,,,,,,,,,,,,,,,,,,,,,,-60,32,20,75,20,12,12,-70,-0.155555556,-0.398888889,1,0,0,1.134,submitButton,-0.003333333,-0.332222222,0,0,0,0,51,51,16,1,32,69853,1,180,2022-02-23_21h59.19,orientation adjustment 1,2021.2.3,MacIntel,66.66666667,,,,,,,
,,,,,,,,,,,,,,,,,,,,,,68.88888889,67,20,75,214.8888889,32.11111111,32.11111111,124.8888889,-0.186666667,-0.426666667,1,0,0,1.299,submitButton,-0.186666667,-0.426666667,0,0,0,0,52,52,51,1,67,69853,1,180,2022-02-23_21h59.19,orientation adjustment 1,2021.2.3,MacIntel,66.66666667,,,,,,,
,,,,,,,,,,,,,,,,,,,,,,-26.11111111,-47,20,75,-51.11111111,4.111111111,4.111111111,-141.1111111,0.158888889,-0.302222222,1,0,0,0.667,submitButton,-0.134444444,-0.398888889,0,0,0,0,53,53,31,1,47,69853,1,180,2022-02-23_21h59.19,orientation adjustment 1,2021.2.3,MacIntel,66.66666667,,,,,,,
,,,,,,,,,,,,,,,,,,,,,,-46.11111111,-51,20,75,-58.11111111,7.111111111,7.111111111,-148.1111111,-0.09,-0.385555556,1,0,0,0.667,submitButton,-0.147777778,-0.4,0,0,0,0,54,54,35,1,51,69853,1,180,2022-02-23_21h59.19,orientation adjustment 1,2021.2.3,MacIntel,66.66666667,,,,,,,
,,,,,,,,,,,,,,,,,,,,,,-56.11111111,-29,20,75,-34.11111111,5.111111111,5.111111111,-124.1111111,-0.088888889,-0.413333333,1,0,0,0.984,submitButton,-0.186666667,-0.397777778,0,0,0,0,55,55,13,1,29,69853,1,180,2022-02-23_21h59.19,orientation adjustment 1,2021.2.3,MacIntel,66.66666667,,,,,,,
,,,,,,,,,,,,,,,,,,,,,,-33.88888889,73,20,75,61.11111111,11.88888889,11.88888889,-28.88888889,-0.147777778,-0.407777778,1,0,0,0.532,submitButton,-0.147777778,-0.407777778,0,0,0,0,56,56,57,1,73,69853,1,180,2022-02-23_21h59.19,orientation adjustment 1,2021.2.3,MacIntel,66.66666667,,,,,,,
,,,,,,,,,,,,,,,,,,,,,,-59.44444444,44,20,75,24.55555556,19.44444444,19.44444444,-65.44444444,-0.156666667,-0.443333333,1,0,0,0.85,submitButton,-0.154444444,-0.42,0,0,0,0,57,57,28,1,44,69853,1,180,2022-02-23_21h59.19,orientation adjustment 1,2021.2.3,MacIntel,66.66666667,,,,,,,
,,,,,,,,,,,,,,,,,,,,,,61.11111111,19,20,75,204.1111111,5.111111111,5.111111111,114.1111111,-0.127777778,-0.395555556,1,0,0,2.167,submitButton,-0.127777778,-0.395555556,0,0,0,0,58,58,3,1,19,69853,1,180,2022-02-23_21h59.19,orientation adjustment 1,2021.2.3,MacIntel,66.66666667,,,,,,,
,,,,,,,,,,,,,,,,,,,,,,63.33333333,-16,20,75,148.3333333,15.66666667,15.66666667,58.33333333,-0.118888889,-0.425555556,1,0,0,1.733,submitButton,0.184444444,-0.381111111,1,0,0,0,59,59,0,1,16,69853,1,180,2022-02-23_21h59.19,orientation adjustment 1,2021.2.3,MacIntel,66.66666667,pause_continueButton,,,,,,
,,,,,,,,,,,,,,,,,,,,,,-21.66666667,-72,20,75,-37.66666667,34.33333333,34.33333333,-127.6666667,0.15,-0.345555556,1,0,0,0.233,submitButton,-0.101111111,-0.415555556,0,0,0,1,0,60,56,1,72,69853,1,180,2022-02-23_21h59.19,orientation adjustment 1,2021.2.3,MacIntel,66.66666667,,,,,,,
,,,,,,,,,,,,,,,,,,,,,,-43.33333333,27,20,75,20.66666667,6.333333333,6.333333333,-69.33333333,-0.046666667,-0.397777778,1,0,0,0.75,submitButton,-0.171111111,-0.418888889,0,0,0,1,1,61,11,1,27,69853,1,180,2022-02-23_21h59.19,orientation adjustment 1,2021.2.3,MacIntel,66.66666667,,,,,,,
,,,,,,,,,,,,,,,,,,,,,,-50,55,20,75,33,22,22,-57,0.253333333,-0.284444444,1,0,0,0.183,submitButton,-0.175555556,-0.416666667,0,0,0,1,2,62,39,1,55,69853,1,180,2022-02-23_21h59.19,orientation adjustment 1,2021.2.3,MacIntel,66.66666667,,,,,,,
,,,,,,,,,,,,,,,,,,,,,,63.88888889,-54,20,75,-19.11111111,34.88888889,34.88888889,-109.1111111,0.448888889,-0.276666667,1,0,0,0.217,submitButton,-0.124444444,-0.427777778,0,0,0,1,3,63,38,1,54,69853,1,180,2022-02-23_21h59.19,orientation adjustment 1,2021.2.3,MacIntel,66.66666667,,,,,,,
,,,,,,,,,,,,,,,,,,,,,,66.66666667,43,20,75,193.6666667,29.33333333,29.33333333,103.6666667,-0.136666667,-0.422222222,1,0,0,1.584,submitButton,0.05,-0.308888889,0,0,0,1,4,64,27,1,43,69853,1,180,2022-02-23_21h59.19,orientation adjustment 1,2021.2.3,MacIntel,66.66666667,,,,,,,
,,,,,,,,,,,,,,,,,,,,,,-40,-65,20,75,-64,1,1,-154,0.231111111,-0.292222222,1,0,0,0.383,submitButton,-0.106666667,-0.383333333,0,0,0,1,5,65,49,1,65,69853,1,180,2022-02-23_21h59.19,orientation adjustment 1,2021.2.3,MacIntel,66.66666667,,,,,,,
,,,,,,,,,,,,,,,,,,,,,,-36.11111111,42,20,75,26.88888889,15.11111111,15.11111111,-63.11111111,-0.192222222,-0.427777778,1,0,0,0.65,submitButton,-0.192222222,-0.427777778,0,0,0,1,6,66,26,1,42,69853,1,180,2022-02-23_21h59.19,orientation adjustment 1,2021.2.3,MacIntel,66.66666667,,,,,,,
,,,,,,,,,,,,,,,,,,,,,,72.77777778,-58,20,75,-28.22222222,29.77777778,29.77777778,-118.2222222,-0.3,-0.37,1,0,0,1.417,submitButton,-0.227777778,-0.406666667,0,0,0,1,7,67,42,1,58,69853,1,180,2022-02-23_21h59.19,orientation adjustment 1,2021.2.3,MacIntel,66.66666667,,,,,,,
,,,,,,,,,,,,,,,,,,,,,,-58.33333333,-74,20,75,-226.3333333,27.66666667,27.66666667,-316.3333333,-0.261111111,-0.395555556,1,0,0,2.067,submitButton,-0.246666667,-0.394444444,0,0,0,1,8,68,58,1,74,69853,1,180,2022-02-23_21h59.19,orientation adjustment 1,2021.2.3,MacIntel,66.66666667,,,,,,,
,,,,,,,,,,,,,,,,,,,,,,-67.22222222,40,20,75,30.77777778,9.222222222,9.222222222,-59.22222222,-0.178888889,-0.408888889,1,0,0,0.833,submitButton,-0.178888889,-0.408888889,0,0,0,1,9,69,24,1,40,69853,1,180,2022-02-23_21h59.19,orientation adjustment 1,2021.2.3,MacIntel,66.66666667,,,,,,,
,,,,,,,,,,,,,,,,,,,,,,21.11111111,73,20,75,212.1111111,40.88888889,40.88888889,122.1111111,-0.142222222,-0.397777778,1,0,0,2.267,submitButton,-0.142222222,-0.397777778,0,0,0,1,10,70,57,1,73,69853,1,180,2022-02-23_21h59.19,orientation adjustment 1,2021.2.3,MacIntel,66.66666667,,,,,,,
,,,,,,,,,,,,,,,,,,,,,,58.33333333,-32,20,75,-15.66666667,16.33333333,16.33333333,-105.6666667,-0.112222222,-0.391111111,1,0,0,1.183,submitButton,-0.112222222,-0.391111111,0,0,0,1,11,71,16,1,32,69853,1,180,2022-02-23_21h59.19,orientation adjustment 1,2021.2.3,MacIntel,66.66666667,,,,,,,
,,,,,,,,,,,,,,,,,,,,,,65,22,20,75,197,5,5,107,-0.165555556,-0.393333333,1,0,0,1.934,submitButton,-0.165555556,-0.39,0,0,0,1,12,72,6,1,22,69853,1,180,2022-02-23_21h59.19,orientation adjustment 1,2021.2.3,MacIntel,66.66666667,,,,,,,
,,,,,,,,,,,,,,,,,,,,,,-35.55555556,-67,20,75,-218.5555556,28.44444444,28.44444444,-308.5555556,-0.113333333,-0.416666667,1,0,0,2.199,submitButton,-0.113333333,-0.416666667,0,0,0,1,13,73,51,1,67,69853,1,180,2022-02-23_21h59.19,orientation adjustment 1,2021.2.3,MacIntel,66.66666667,,,,,,,
,,,,,,,,,,,,,,,,,,,,,,59.44444444,36,20,75,219.4444444,3.444444444,3.444444444,129.4444444,0.19,-0.325555556,1,0,0,1.517,submitButton,0.417777778,-0.427777778,1,0,0,1,14,74,20,1,36,69853,1,180,2022-02-23_21h59.19,orientation adjustment 1,2021.2.3,MacIntel,66.66666667,pause_continueButton,,,,,,
,,,,,,,,,,,,,,,,,,,,,,67.22222222,46,20,75,209.2222222,16.77777778,16.77777778,119.2222222,0.241111111,-0.312222222,1,0,0,0.933,submitButton,0.115555556,-0.332222222,0,0,0,1,15,75,30,1,46,69853,1,180,2022-02-23_21h59.19,orientation adjustment 1,2021.2.3,MacIntel,66.66666667,,,,,,,
,,,,,,,,,,,,,,,,,,,,,,65.55555556,-18,20,75,-13.44444444,4.555555556,4.555555556,-103.4444444,0.393333333,-0.292222222,1,0,0,1.05,submitButton,-0.236666667,-0.398888889,0,0,0,1,16,76,2,1,18,69853,1,180,2022-02-23_21h59.19,orientation adjustment 1,2021.2.3,MacIntel,66.66666667,,,,,,,
,,,,,,,,,,,,,,,,,,,,,,60.55555556,-17,20,75,-14.44444444,2.555555556,2.555555556,-104.4444444,0.153333333,-0.327777778,1,0,0,1.75,submitButton,-0.224444444,-0.397777778,0,0,0,1,17,77,1,1,17,69853,1,180,2022-02-23_21h59.19,orientation adjustment 1,2021.2.3,MacIntel,66.66666667,,,,,,,
,,,,,,,,,,,,,,,,,,,,,,26.11111111,75,20,75,215.1111111,39.88888889,39.88888889,125.1111111,-0.211111111,-0.41,1,0,0,1.983,submitButton,-0.211111111,-0.41,0,0,0,1,18,78,59,1,75,69853,1,180,2022-02-23_21h59.19,orientation adjustment 1,2021.2.3,MacIntel,66.66666667,,,,,,,
,,,,,,,,,,,,,,,,,,,,,,-38.33333333,63,20,75,39.66666667,23.33333333,23.33333333,-50.33333333,0.177777778,-0.282222222,1,0,0,0.316,submitButton,-0.146666667,-0.374444444,0,0,0,1,19,79,47,1,63,69853,1,180,2022-02-23_21h59.19,orientation adjustment 1,2021.2.3,MacIntel,66.66666667,,,,,,,
,,,,,,,,,,,,,,,,,,,,,,51.11111111,-19,20,75,-18.88888889,0.111111111,0.111111111,-108.8888889,-0.105555556,-0.397777778,1,0,0,1.317,submitButton,-0.105555556,-0.397777778,0,0,0,1,20,80,3,1,19,69853,1,180,2022-02-23_21h59.19,orientation adjustment 1,2021.2.3,MacIntel,66.66666667,,,,,,,
,,,,,,,,,,,,,,,,,,,,,,26.66666667,-23,20,75,-8.333333333,14.66666667,14.66666667,-98.33333333,0.274444444,-0.304444444,1,0,0,0.8,submitButton,-0.144444444,-0.393333333,0,0,0,1,21,81,7,1,23,69853,1,180,2022-02-23_21h59.19,orientation adjustment 1,2021.2.3,MacIntel,66.66666667,,,,,,,
,,,,,,,,,,,,,,,,,,,,,,53.88888889,33,20,75,194.8888889,18.11111111,18.11111111,104.8888889,-0.183333333,-0.407777778,1,0,0,1.933,submitButton,-0.183333333,-0.407777778,0,0,0,1,22,82,17,1,33,69853,1,180,2022-02-23_21h59.19,orientation adjustment 1,2021.2.3,MacIntel,66.66666667,,,,,,,
,,,,,,,,,,,,,,,,,,,,,,36.11111111,24,20,75,201.1111111,2.888888889,2.888888889,111.1111111,0.193333333,-0.32,1,0,0,2.066,submitButton,-0.33,-0.392222222,0,0,0,1,23,83,8,1,24,69853,1,180,2022-02-23_21h59.19,orientation adjustment 1,2021.2.3,MacIntel,66.66666667,,,,,,,
,,,,,,,,,,,,,,,,,,,,,,33.33333333,61,20,75,216.3333333,24.66666667,24.66666667,126.3333333,-0.144444444,-0.388888889,1,0,0,2.334,submitButton,-0.144444444,-0.388888889,0,0,0,1,24,84,45,1,61,69853,1,180,2022-02-23_21h59.19,orientation adjustment 1,2021.2.3,MacIntel,66.66666667,,,,,,,
,,,,,,,,,,,,,,,,,,,,,,64.44444444,-64,20,75,-30.55555556,33.44444444,33.44444444,-120.5555556,-0.102222222,-0.393333333,1,0,0,0.55,submitButton,-0.102222222,-0.392222222,0,0,0,1,25,85,48,1,64,69853,1,180,2022-02-23_21h59.19,orientation adjustment 1,2021.2.3,MacIntel,66.66666667,,,,,,,
,,,,,,,,,,,,,,,,,,,,,,-72.22222222,-44,20,75,-215.2222222,8.777777778,8.777777778,-305.2222222,0.367777778,-0.284444444,1,0,0,1.483,submitButton,-0.2,-0.384444444,0,0,0,1,26,86,28,1,44,69853,1,180,2022-02-23_21h59.19,orientation adjustment 1,2021.2.3,MacIntel,66.66666667,,,,,,,
,,,,,,,,,,,,,,,,,,,,,,60.55555556,25,20,75,209.5555556,4.555555556,4.555555556,119.5555556,-0.154444444,-0.377777778,1,0,0,2.149,submitButton,-0.153333333,-0.388888889,0,0,0,1,27,87,9,1,25,69853,1,180,2022-02-23_21h59.19,orientation adjustment 1,2021.2.3,MacIntel,66.66666667,,,,,,,
,,,,,,,,,,,,,,,,,,,,,,58.88888889,21,20,75,192.8888889,8.111111111,8.111111111,102.8888889,0.171111111,-0.32,1,0,0,1.8,submitButton,-0.162222222,-0.39,0,0,0,1,28,88,5,1,21,69853,1,180,2022-02-23_21h59.19,orientation adjustment 1,2021.2.3,MacIntel,66.66666667,,,,,,,
,,,,,,,,,,,,,,,,,,,,,,-65,-29,20,75,-207,2,2,-297,-0.168888889,-0.427777778,1,0,0,2.249,submitButton,0.304444444,-0.378888889,1,0,0,1,29,89,13,1,29,69853,1,180,2022-02-23_21h59.19,orientation adjustment 1,2021.2.3,MacIntel,66.66666667,pause_continueButton,,,,,,
,,,,,,,,,,,,,,,,,,,,,,31.11111111,-69,20,75,-46.88888889,22.11111111,22.11111111,-136.8888889,0.416666667,-0.337777778,1,0,0,0.217,submitButton,-0.204444444,-0.407777778,0,0,0,1,30,90,53,1,69,69853,1,180,2022-02-23_21h59.19,orientation adjustment 1,2021.2.3,MacIntel,66.66666667,,,,,,,
,,,,,,,,,,,,,,,,,,,,,,-61.11111111,-16,20,75,-36.11111111,20.11111111,20.11111111,-126.1111111,0.207777778,-0.297777778,1,0,0,0.084,submitButton,-0.201111111,-0.421111111,0,0,0,1,31,91,0,1,16,69853,1,180,2022-02-23_21h59.19,orientation adjustment 1,2021.2.3,MacIntel,66.66666667,,,,,,,
,,,,,,,,,,,,,,,,,,,,,,-67.22222222,35,20,75,22.77777778,12.22222222,12.22222222,-67.22222222,-0.243333333,-0.415555556,1,0,0,1.268,submitButton,-0.243333333,-0.415555556,0,0,0,1,32,92,19,1,35,69853,1,180,2022-02-23_21h59.19,orientation adjustment 1,2021.2.3,MacIntel,66.66666667,,,,,,,
,,,,,,,,,,,,,,,,,,,,,,45,-48,20,75,-19,29,29,-109,0.227777778,-0.317777778,1,0,0,0.849,submitButton,-0.141111111,-0.398888889,0,0,0,1,33,93,32,1,48,69853,1,180,2022-02-23_21h59.19,orientation adjustment 1,2021.2.3,MacIntel,66.66666667,,,,,,,
,,,,,,,,,,,,,,,,,,,,,,39.44444444,-31,20,75,-14.55555556,16.44444444,16.44444444,-104.5555556,0.398888889,-0.283333333,1,0,0,0.016,submitButton,-0.117777778,-0.395555556,0,0,0,1,34,94,15,1,31,69853,1,180,2022-02-23_21h59.19,orientation adjustment 1,2021.2.3,MacIntel,66.66666667,,,,,,,
,,,,,,,,,,,,,,,,,,,,,,-43.33333333,38,20,75,21.66666667,16.33333333,16.33333333,-68.33333333,-0.155555556,-0.416666667,1,0,0,0.65,submitButton,-0.155555556,-0.416666667,0,0,0,1,35,95,22,1,38,69853,1,180,2022-02-23_21h59.19,orientation adjustment 1,2021.2.3,MacIntel,66.66666667,,,,,,,
,,,,,,,,,,,,,,,,,,,,,,37.77777778,-60,20,75,-38.22222222,21.77777778,21.77777778,-128.2222222,-0.197777778,-0.395555556,1,0,0,0.333,submitButton,-0.197777778,-0.394444444,0,0,0,1,36,96,44,1,60,69853,1,180,2022-02-23_21h59.19,orientation adjustment 1,2021.2.3,MacIntel,66.66666667,,,,,,,
,,,,,,,,,,,,,,,,,,,,,,56.11111111,-37,20,75,-19.88888889,17.11111111,17.11111111,-109.8888889,0.413333333,-0.294444444,1,0,0,0.267,submitButton,-0.402222222,-0.405555556,0,0,0,1,37,97,21,1,37,69853,1,180,2022-02-23_21h59.19,orientation adjustment 1,2021.2.3,MacIntel,66.66666667,,,,,,,
,,,,,,,,,,,,,,,,,,,,,,32.77777778,-41,20,75,-14.22222222,26.77777778,26.77777778,-104.2222222,-0.162222222,-0.393333333,1,0,0,0.416,submitButton,-0.162222222,-0.392222222,0,0,0,1,38,98,25,1,41,69853,1,180,2022-02-23_21h59.19,orientation adjustment 1,2021.2.3,MacIntel,66.66666667,,,,,,,
,,,,,,,,,,,,,,,,,,,,,,-40,-62,20,75,-233,9,9,-323,-0.232222222,-0.368888889,1,0,0,2.167,submitButton,-0.232222222,-0.401111111,0,0,0,1,39,99,46,1,62,69853,1,180,2022-02-23_21h59.19,orientation adjustment 1,2021.2.3,MacIntel,66.66666667,,,,,,,
,,,,,,,,,,,,,,,,,,,,,,40,-70,20,75,-56,14,14,-146,-0.21,-0.403333333,1,0,0,0.334,submitButton,-0.21,-0.403333333,0,0,0,1,40,100,54,1,70,69853,1,180,2022-02-23_21h59.19,orientation adjustment 1,2021.2.3,MacIntel,66.66666667,,,,,,,
,,,,,,,,,,,,,,,,,,,,,,-67.22222222,68,20,75,30.77777778,37.22222222,37.22222222,-59.22222222,-0.13,-0.405555556,1,0,0,0.583,submitButton,-0.13,-0.405555556,0,0,0,1,41,101,52,1,68,69853,1,180,2022-02-23_21h59.19,orientation adjustment 1,2021.2.3,MacIntel,66.66666667,,,,,,,
,,,,,,,,,,,,,,,,,,,,,,-23.33333333,-66,20,75,-56.33333333,9.666666667,9.666666667,-146.3333333,0.224444444,-0.324444444,1,0,0,0.451,submitButton,-0.166666667,-0.423333333,0,0,0,1,42,102,50,1,66,69853,1,180,2022-02-23_21h59.19,orientation adjustment 1,2021.2.3,MacIntel,66.66666667,,,,,,,
,,,,,,,,,,,,,,,,,,,,,,48.88888889,53,20,75,68.88888889,15.88888889,15.88888889,-21.11111111,-0.303333333,-0.416666667,1,0,0,0.849,submitButton,-0.303333333,-0.416666667,0,0,0,1,43,103,37,1,53,69853,1,180,2022-02-23_21h59.19,orientation adjustment 1,2021.2.3,MacIntel,66.66666667,,,,,,,
,,,,,,,,,,,,,,,,,,,,,,-35.55555556,-30,20,75,-34.55555556,4.555555556,4.555555556,-124.5555556,-0.245555556,-0.412222222,1,0,0,0.601,submitButton,0.464444444,-0.408888889,1,0,0,1,44,104,14,1,30,69853,1,180,2022-02-23_21h59.19,orientation adjustment 1,2021.2.3,MacIntel,66.66666667,pause_continueButton,,,,,,
,,,,,,,,,,,,,,,,,,,,,,45.55555556,-52,20,75,-21.44444444,30.55555556,30.55555556,-111.4444444,0.4,-0.32,1,0,0,0.015,submitButton,-0.313333333,-0.4,0,0,0,1,45,105,36,1,52,69853,1,180,2022-02-23_21h59.19,orientation adjustment 1,2021.2.3,MacIntel,66.66666667,,,,,,,
,,,,,,,,,,,,,,,,,,,,,,57.77777778,39,20,75,210.7777778,8.222222222,8.222222222,120.7777778,-0.173333333,-0.425555556,1,0,0,2.066,submitButton,-0.173333333,-0.425555556,0,0,0,1,46,106,23,1,39,69853,1,180,2022-02-23_21h59.19,orientation adjustment 1,2021.2.3,MacIntel,66.66666667,,,,,,,
,,,,,,,,,,,,,,,,,,,,,,-66.66666667,-56,20,75,-218.6666667,17.33333333,17.33333333,-308.6666667,-0.244444444,-0.407777778,1,0,0,1.567,submitButton,0.007777778,-0.356666667,0,0,0,1,47,107,40,1,56,69853,1,180,2022-02-23_21h59.19,orientation adjustment 1,2021.2.3,MacIntel,66.66666667,,,,,,,
,,,,,,,,,,,,,,,,,,,,,,-33.33333333,-47,20,75,-54.33333333,7.333333333,7.333333333,-144.3333333,0.202222222,-0.31,1,0,0,0.333,submitButton,-0.172222222,-0.373333333,0,0,0,1,48,108,31,1,47,69853,1,180,2022-02-23_21h59.19,orientation adjustment 1,2021.2.3,MacIntel,66.66666667,,,,,,,
,,,,,,,,,,,,,,,,,,,,,,58.88888889,-59,20,75,-24.11111111,34.88888889,34.88888889,-114.1111111,0.375555556,-0.284444444,1,0,0,0.017,submitButton,-0.312222222,-0.411111111,0,0,0,1,49,109,43,1,59,69853,1,180,2022-02-23_21h59.19,orientation adjustment 1,2021.2.3,MacIntel,66.66666667,,,,,,,
,,,,,,,,,,,,,,,,,,,,,,-27.22222222,-49,20,75,-47.22222222,1.777777778,1.777777778,-137.2222222,0.183333333,-0.317777778,1,0,0,0.134,submitButton,-0.28,-0.401111111,0,0,0,1,50,110,33,1,49,69853,1,180,2022-02-23_21h59.19,orientation adjustment 1,2021.2.3,MacIntel,66.66666667,,,,,,,
,,,,,,,,,,,,,,,,,,,,,,-45.55555556,-71,20,75,-65.55555556,5.444444444,5.444444444,-155.5555556,0.166666667,-0.286666667,1,0,0,0.451,submitButton,-0.224444444,-0.402222222,0,0,0,1,51,111,55,1,71,69853,1,180,2022-02-23_21h59.19,orientation adjustment 1,2021.2.3,MacIntel,66.66666667,,,,,,,
,,,,,,,,,,,,,,,,,,,,,,57.77777778,50,20,75,193.7777778,36.22222222,36.22222222,103.7777778,-0.181111111,-0.437777778,1,0,0,2.25,submitButton,-0.196666667,-0.386666667,0,0,0,1,52,112,34,1,50,69853,1,180,2022-02-23_21h59.19,orientation adjustment 1,2021.2.3,MacIntel,66.66666667,,,,,,,
,,,,,,,,,,,,,,,,,,,,,,-33.33333333,-45,20,75,-51.33333333,6.333333333,6.333333333,-141.3333333,0.21,-0.287777778,1,0,0,0.267,submitButton,-0.113333333,-0.397777778,0,0,0,1,53,113,29,1,45,69853,1,180,2022-02-23_21h59.19,orientation adjustment 1,2021.2.3,MacIntel,66.66666667,,,,,,,
,,,,,,,,,,,,,,,,,,,,,,-71.66666667,34,20,75,26.33333333,7.666666667,7.666666667,-63.66666667,-0.145555556,-0.404444444,1,0,0,1.233,submitButton,-0.145555556,-0.404444444,0,0,0,1,54,114,18,1,34,69853,1,180,2022-02-23_21h59.19,orientation adjustment 1,2021.2.3,MacIntel,66.66666667,,,,,,,
,,,,,,,,,,,,,,,,,,,,,,38.88888889,57,20,75,204.8888889,32.11111111,32.11111111,114.8888889,-0.281111111,-0.397777778,1,0,0,2.117,submitButton,-0.281111111,-0.396666667,0,0,0,1,55,115,41,1,57,69853,1,180,2022-02-23_21h59.19,orientation adjustment 1,2021.2.3,MacIntel,66.66666667,,,,,,,
,,,,,,,,,,,,,,,,,,,,,,37.22222222,-20,20,75,-9.777777778,10.22222222,10.22222222,-99.77777778,0.397777778,-0.272222222,1,0,0,0.233,submitButton,-0.191111111,-0.398888889,0,0,0,1,56,116,4,1,20,69853,1,180,2022-02-23_21h59.19,orientation adjustment 1,2021.2.3,MacIntel,66.66666667,,,,,,,
,,,,,,,,,,,,,,,,,,,,,,52.22222222,-26,20,75,-20.77777778,5.222222222,5.222222222,-110.7777778,-0.195555556,-0.405555556,1,0,0,1.767,submitButton,-0.195555556,-0.405555556,0,0,0,1,57,117,10,1,26,69853,1,180,2022-02-23_21h59.19,orientation adjustment 1,2021.2.3,MacIntel,66.66666667,,,,,,,
,,,,,,,,,,,,,,,,,,,,,,-43.33333333,-51,20,75,-210.3333333,20.66666667,20.66666667,-300.3333333,-0.163333333,-0.354444444,1,0,0,2.3,submitButton,-0.163333333,-0.388888889,0,0,0,1,58,118,35,1,51,69853,1,180,2022-02-23_21h59.19,orientation adjustment 1,2021.2.3,MacIntel,66.66666667,,,,,,,
,,,,,,,,,,,,,,,,,,,,,,31.11111111,28,20,75,204.1111111,3.888888889,3.888888889,114.1111111,-0.237777778,-0.398888889,1,0,0,2.633,submitButton,0.417777778,-0.376666667,1,0,0,1,59,119,12,1,28,69853,1,180,2022-02-23_21h59.19,orientation adjustment 1,2021.2.3,MacIntel,66.66666667,pause_continueButton,,,,,,
,,,,,,,,,,,,,,,,,,,,,,35,-38,20,75,-26,12,12,-116,-0.397777778,-0.423333333,1,0,0,0.9,submitButton,-0.397777778,-0.423333333,0,0,0,2,0,120,22,1,38,69853,1,180,2022-02-23_21h59.19,orientation adjustment 1,2021.2.3,MacIntel,66.66666667,,,,,,,
,,,,,,,,,,,,,,,,,,,,,,-28.33333333,-18,20,75,-25.33333333,7.333333333,7.333333333,-115.3333333,-0.233333333,-0.421111111,1,0,0,0.434,submitButton,-0.233333333,-0.421111111,0,0,0,2,1,121,2,1,18,69853,1,180,2022-02-23_21h59.19,orientation adjustment 1,2021.2.3,MacIntel,66.66666667,,,,,,,
,,,,,,,,,,,,,,,,,,,,,,-33.33333333,-37,20,75,-39.33333333,2.333333333,2.333333333,-129.3333333,-0.177777778,-0.41,1,0,0,0.616,submitButton,-0.177777778,-0.41,0,0,0,2,2,122,21,1,37,69853,1,180,2022-02-23_21h59.19,orientation adjustment 1,2021.2.3,MacIntel,66.66666667,,,,,,,
,,,,,,,,,,,,,,,,,,,,,,56.11111111,58,20,75,220.1111111,17.88888889,17.88888889,130.1111111,-0.176666667,-0.39,1,0,0,1.717,submitButton,-0.176666667,-0.39,0,0,0,2,3,123,42,1,58,69853,1,180,2022-02-23_21h59.19,orientation adjustment 1,2021.2.3,MacIntel,66.66666667,,,,,,,
,,,,,,,,,,,,,,,,,,,,,,28.88888889,-64,20,75,-44.11111111,19.88888889,19.88888889,-134.1111111,-0.138888889,-0.39,1,0,0,0.567,submitButton,-0.138888889,-0.39,0,0,0,2,4,124,48,1,64,69853,1,180,2022-02-23_21h59.19,orientation adjustment 1,2021.2.3,MacIntel,66.66666667,,,,,,,
,,,,,,,,,,,,,,,,,,,,,,29.44444444,-32,20,75,-21.55555556,10.44444444,10.44444444,-111.5555556,0.383333333,-0.291111111,1,0,0,0.333,submitButton,-0.277777778,-0.392222222,0,0,0,2,5,125,16,1,32,69853,1,180,2022-02-23_21h59.19,orientation adjustment 1,2021.2.3,MacIntel,66.66666667,,,,,,,
,,,,,,,,,,,,,,,,,,,,,,21.66666667,70,20,75,207.6666667,42.33333333,42.33333333,117.6666667,-0.178888889,-0.395555556,1,0,0,2.1,submitButton,-0.178888889,-0.395555556,0,0,0,2,6,126,54,1,70,69853,1,180,2022-02-23_21h59.19,orientation adjustment 1,2021.2.3,MacIntel,66.66666667,,,,,,,
,,,,,,,,,,,,,,,,,,,,,,-50,-39,20,75,-35,4,4,-125,0.202222222,-0.285555556,1,0,0,0.184,submitButton,-0.134444444,-0.398888889,0,0,0,2,7,127,23,1,39,69853,1,180,2022-02-23_21h59.19,orientation adjustment 1,2021.2.3,MacIntel,66.66666667,,,,,,,
,,,,,,,,,,,,,,,,,,,,,,-68.33333333,29,20,75,25.66666667,3.333333333,3.333333333,-64.33333333,-0.125555556,-0.395555556,1,0,0,1.15,submitButton,-0.125555556,-0.395555556,0,0,0,2,8,128,13,1,29,69853,1,180,2022-02-23_21h59.19,orientation adjustment 1,2021.2.3,MacIntel,66.66666667,,,,,,,
,,,,,,,,,,,,,,,,,,,,,,-43.33333333,-47,20,75,-42.33333333,4.666666667,4.666666667,-132.3333333,0.218888889,-0.294444444,1,0,0,0.5,submitButton,-0.181111111,-0.4,0,0,0,2,9,129,31,1,47,69853,1,180,2022-02-23_21h59.19,orientation adjustment 1,2021.2.3,MacIntel,66.66666667,,,,,,,
,,,,,,,,,,,,,,,,,,,,,,-65,19,20,75,18,1,1,-72,-0.17,-0.375555556,1,0,0,1.1,submitButton,-0.171111111,-0.37,0,0,0,2,10,130,3,1,19,69853,1,180,2022-02-23_21h59.19,orientation adjustment 1,2021.2.3,MacIntel,66.66666667,,,,,,,
,,,,,,,,,,,,,,,,,,,,,,-47.77777778,-34,20,75,-35.77777778,1.777777778,1.777777778,-125.7777778,-0.17,-0.395555556,1,0,0,0.901,submitButton,-0.17,-0.395555556,0,0,0,2,11,131,18,1,34,69853,1,180,2022-02-23_21h59.19,orientation adjustment 1,2021.2.3,MacIntel,66.66666667,,,,,,,
,,,,,,,,,,,,,,,,,,,,,,42.77777778,49,20,75,198.7777778,30.22222222,30.22222222,108.7777778,-0.185555556,-0.424444444,1,0,0,1.7,submitButton,-0.185555556,-0.424444444,0,0,0,2,12,132,33,1,49,69853,1,180,2022-02-23_21h59.19,orientation adjustment 1,2021.2.3,MacIntel,66.66666667,,,,,,,
,,,,,,,,,,,,,,,,,,,,,,-22.22222222,-60,20,75,-66.22222222,6.222222222,6.222222222,-156.2222222,0.192222222,-0.292222222,1,0,0,0.1,submitButton,-0.173333333,-0.383333333,0,0,0,2,13,133,44,1,60,69853,1,180,2022-02-23_21h59.19,orientation adjustment 1,2021.2.3,MacIntel,66.66666667,,,,,,,
,,,,,,,,,,,,,,,,,,,,,,51.66666667,-24,20,75,147.6666667,8.333333333,8.333333333,57.66666667,-0.191111111,-0.385555556,1,0,0,1.8,submitButton,0.342222222,-0.413333333,1,0,0,2,14,134,8,1,24,69853,1,180,2022-02-23_21h59.19,orientation adjustment 1,2021.2.3,MacIntel,66.66666667,pause_continueButton,,,,,,
,,,,,,,,,,,,,,,,,,,,,,-48.88888889,21,20,75,8.111111111,12.88888889,12.88888889,-81.88888889,0.374444444,-0.3,1,0,0,1.75,submitButton,-0.261111111,-0.422222222,0,0,0,2,15,135,5,1,21,69853,1,180,2022-02-23_21h59.19,orientation adjustment 1,2021.2.3,MacIntel,66.66666667,,,,,,,
,,,,,,,,,,,,,,,,,,,,,,-30,-17,20,75,-25,8,8,-115,-0.257777778,-0.415555556,1,0,0,0.568,submitButton,-0.257777778,-0.415555556,0,0,0,2,16,136,1,1,17,69853,1,180,2022-02-23_21h59.19,orientation adjustment 1,2021.2.3,MacIntel,66.66666667,,,,,,,
,,,,,,,,,,,,,,,,,,,,,,-35,-44,20,75,-45,1,1,-135,0.224444444,-0.287777778,1,0,0,0.084,submitButton,-0.183333333,-0.398888889,0,0,0,2,17,137,28,1,44,69853,1,180,2022-02-23_21h59.19,orientation adjustment 1,2021.2.3,MacIntel,66.66666667,,,,,,,
,,,,,,,,,,,,,,,,,,,,,,46.11111111,-16,20,75,132.1111111,31.88888889,31.88888889,42.11111111,-0.175555556,-0.391111111,1,0,0,2.216,submitButton,-0.175555556,-0.388888889,0,0,0,2,18,138,0,1,16,69853,1,180,2022-02-23_21h59.19,orientation adjustment 1,2021.2.3,MacIntel,66.66666667,,,,,,,
,,,,,,,,,,,,,,,,,,,,,,48.33333333,-31,20,75,149.3333333,0.333333333,0.333333333,59.33333333,-0.191111111,-0.433333333,1,0,0,2.317,submitButton,-0.187777778,-0.402222222,0,0,0,2,19,139,15,1,31,69853,1,180,2022-02-23_21h59.19,orientation adjustment 1,2021.2.3,MacIntel,66.66666667,,,,,,,
,,,,,,,,,,,,,,,,,,,,,,55,48,20,75,219,9,9,129,-0.153333333,-0.395555556,1,0,0,2.133,submitButton,-0.153333333,-0.393333333,0,0,0,2,20,140,32,1,48,69853,1,180,2022-02-23_21h59.19,orientation adjustment 1,2021.2.3,MacIntel,66.66666667,,,,,,,
,,,,,,,,,,,,,,,,,,,,,,-61.11111111,-52,20,75,-53.11111111,1.111111111,1.111111111,-143.1111111,-0.11,-0.39,1,0,0,1.233,submitButton,-0.11,-0.39,0,0,0,2,21,141,36,1,52,69853,1,180,2022-02-23_21h59.19,orientation adjustment 1,2021.2.3,MacIntel,66.66666667,,,,,,,
,,,,,,,,,,,,,,,,,,,,,,-38.88888889,28,20,75,17.11111111,10.88888889,10.88888889,-72.88888889,-0.184444444,-0.392222222,1,0,0,0.683,submitButton,-0.184444444,-0.392222222,0,0,0,2,22,142,12,1,28,69853,1,180,2022-02-23_21h59.19,orientation adjustment 1,2021.2.3,MacIntel,66.66666667,,,,,,,
,,,,,,,,,,,,,,,,,,,,,,66.11111111,-51,20,75,-26.88888889,24.11111111,24.11111111,-116.8888889,0.395555556,-0.32,1,0,0,0.349,submitButton,-0.155555556,-0.406666667,0,0,0,2,23,143,35,1,51,69853,1,180,2022-02-23_21h59.19,orientation adjustment 1,2021.2.3,MacIntel,66.66666667,,,,,,,
,,,,,,,,,,,,,,,,,,,,,,-47.22222222,-73,20,75,-216.2222222,36.77777778,36.77777778,-306.2222222,-0.211111111,-0.375555556,1,0,0,2.233,submitButton,-0.211111111,-0.375555556,0,0,0,2,24,144,57,1,73,69853,1,180,2022-02-23_21h59.19,orientation adjustment 1,2021.2.3,MacIntel,66.66666667,,,,,,,
,,,,,,,,,,,,,,,,,,,,,,-40.55555556,-23,20,75,-28.55555556,5.555555556,5.555555556,-118.5555556,-0.157777778,-0.402222222,1,0,0,0.566,submitButton,-0.157777778,-0.402222222,0,0,0,2,25,145,7,1,23,69853,1,180,2022-02-23_21h59.19,orientation adjustment 1,2021.2.3,MacIntel,66.66666667,,,,,,,
,,,,,,,,,,,,,,,,,,,,,,-58.88888889,-33,20,75,-31.88888889,1.111111111,1.111111111,-121.8888889,-0.115555556,-0.405555556,1,0,0,1.216,submitButton,-0.115555556,-0.405555556,0,0,0,2,26,146,17,1,33,69853,1,180,2022-02-23_21h59.19,orientation adjustment 1,2021.2.3,MacIntel,66.66666667,,,,,,,
,,,,,,,,,,,,,,,,,,,,,,-61.66666667,72,20,75,61.33333333,10.66666667,10.66666667,-28.66666667,-0.175555556,-0.404444444,1,0,0,1.033,submitButton,-0.175555556,-0.401111111,0,0,0,2,27,147,56,1,72,69853,1,180,2022-02-23_21h59.19,orientation adjustment 1,2021.2.3,MacIntel,66.66666667,,,,,,,
,,,,,,,,,,,,,,,,,,,,,,-51.66666667,-25,20,75,-31.66666667,6.666666667,6.666666667,-121.6666667,-0.193333333,-0.38,1,0,0,0.667,submitButton,-0.193333333,-0.38,0,0,0,2,28,148,9,1,25,69853,1,180,2022-02-23_21h59.19,orientation adjustment 1,2021.2.3,MacIntel,66.66666667,,,,,,,
,,,,,,,,,,,,,,,,,,,,,,-63.33333333,-20,20,75,-20.33333333,0.333333333,0.333333333,-110.3333333,-0.175555556,-0.428888889,1,0,0,1.134,submitButton,0.366666667,-0.421111111,1,0,0,2,29,149,4,1,20,69853,1,180,2022-02-23_21h59.19,orientation adjustment 1,2021.2.3,MacIntel,66.66666667,pause_continueButton,,,,,,
,,,,,,,,,,,,,,,,,,,,,,56.11111111,65,20,75,210.1111111,34.88888889,34.88888889,120.1111111,-0.155555556,-0.423333333,1,0,0,1.767,submitButton,-0.013333333,-0.375555556,0,0,0,2,30,150,49,1,65,69853,1,180,2022-02-23_21h59.19,orientation adjustment 1,2021.2.3,MacIntel,66.66666667,,,,,,,
,,,,,,,,,,,,,,,,,,,,,,-54.44444444,-22,20,75,-36.44444444,14.44444444,14.44444444,-126.4444444,-0.17,-0.411111111,1,0,0,0.766,submitButton,-0.17,-0.411111111,0,0,0,2,31,151,6,1,22,69853,1,180,2022-02-23_21h59.19,orientation adjustment 1,2021.2.3,MacIntel,66.66666667,,,,,,,
,,,,,,,,,,,,,,,,,,,,,,73.88888889,-43,20,75,-22.11111111,20.88888889,20.88888889,-112.1111111,0.365555556,-0.294444444,1,0,0,0.066,submitButton,-0.258888889,-0.375555556,0,0,0,2,32,152,27,1,43,69853,1,180,2022-02-23_21h59.19,orientation adjustment 1,2021.2.3,MacIntel,66.66666667,,,,,,,
,,,,,,,,,,,,,,,,,,,,,,51.11111111,56,20,75,211.1111111,24.88888889,24.88888889,121.1111111,-0.271111111,-0.416666667,1,0,0,2.034,submitButton,0.181111111,-0.204444444,0,0,0,2,33,153,40,1,56,69853,1,180,2022-02-23_21h59.19,orientation adjustment 1,2021.2.3,MacIntel,66.66666667,,,,,,,
,,,,,,,,,,,,,,,,,,,,,,35.55555556,-35,20,75,-19.44444444,15.55555556,15.55555556,-109.4444444,0.441111111,-0.247777778,1,0,0,0.101,submitButton,-0.152222222,-0.414444444,0,0,0,2,34,154,19,1,35,69853,1,180,2022-02-23_21h59.19,orientation adjustment 1,2021.2.3,MacIntel,66.66666667,,,,,,,
,,,,,,,,,,,,,,,,,,,,,,-64.44444444,62,20,75,20.55555556,41.44444444,41.44444444,-69.44444444,0.156666667,-0.327777778,1,0,0,0.334,submitButton,-0.397777778,-0.414444444,0,0,0,2,35,155,46,1,62,69853,1,180,2022-02-23_21h59.19,orientation adjustment 1,2021.2.3,MacIntel,66.66666667,,,,,,,
,,,,,,,,,,,,,,,,,,,,,,47.77777778,26,20,75,203.7777778,2.222222222,2.222222222,113.7777778,0.181111111,-0.318888889,1,0,0,1.851,submitButton,-0.238888889,-0.374444444,0,0,0,2,36,156,10,1,26,69853,1,180,2022-02-23_21h59.19,orientation adjustment 1,2021.2.3,MacIntel,66.66666667,,,,,,,
,,,,,,,,,,,,,,,,,,,,,,-23.88888889,74,20,75,64.11111111,9.888888889,9.888888889,-25.88888889,-0.164444444,-0.378888889,1,0,0,0.5,submitButton,-0.164444444,-0.376666667,0,0,0,2,37,157,58,1,74,69853,1,180,2022-02-23_21h59.19,orientation adjustment 1,2021.2.3,MacIntel,66.66666667,,,,,,,
,,,,,,,,,,,,,,,,,,,,,,-42.22222222,59,20,75,48.77777778,10.22222222,10.22222222,-41.22222222,-0.206666667,-0.411111111,1,0,0,0.582,submitButton,-0.206666667,-0.411111111,0,0,0,2,38,158,43,1,59,69853,1,180,2022-02-23_21h59.19,orientation adjustment 1,2021.2.3,MacIntel,66.66666667,,,,,,,
,,,,,,,,,,,,,,,,,,,,,,32.22222222,-42,20,75,18.22222222,60.22222222,60.22222222,-71.77777778,0.2,-0.315555556,1,0,0,0.499,submitButton,-0.217777778,-0.384444444,0,0,0,2,39,159,26,1,42,69853,1,180,2022-02-23_21h59.19,orientation adjustment 1,2021.2.3,MacIntel,66.66666667,,,,,,,
,,,,,,,,,,,,,,,,,,,,,,22.77777778,75,20,75,223.7777778,31.22222222,31.22222222,133.7777778,0.215555556,-0.295555556,1,0,0,0.467,submitButton,-0.1,-0.412222222,0,0,0,2,40,160,59,1,75,69853,1,180,2022-02-23_21h59.19,orientation adjustment 1,2021.2.3,MacIntel,66.66666667,,,,,,,
,,,,,,,,,,,,,,,,,,,,,,63.88888889,66,20,75,211.8888889,34.11111111,34.11111111,121.8888889,-0.195555556,-0.431111111,1,0,0,1.75,submitButton,-0.193333333,-0.41,0,0,0,2,41,161,50,1,66,69853,1,180,2022-02-23_21h59.19,orientation adjustment 1,2021.2.3,MacIntel,66.66666667,,,,,,,
,,,,,,,,,,,,,,,,,,,,,,28.33333333,57,20,75,203.3333333,33.66666667,33.66666667,113.3333333,0.176666667,-0.317777778,1,0,0,0.05,submitButton,-0.251111111,-0.421111111,0,0,0,2,42,162,41,1,57,69853,1,180,2022-02-23_21h59.19,orientation adjustment 1,2021.2.3,MacIntel,66.66666667,,,,,,,
,,,,,,,,,,,,,,,,,,,,,,59.44444444,30,20,75,206.4444444,3.555555556,3.555555556,116.4444444,-0.211111111,-0.401111111,1,0,0,2.383,submitButton,-0.211111111,-0.398888889,0,0,0,2,43,163,14,1,30,69853,1,180,2022-02-23_21h59.19,orientation adjustment 1,2021.2.3,MacIntel,66.66666667,,,,,,,
,,,,,,,,,,,,,,,,,,,,,,27.77777778,-69,20,75,-41.22222222,27.77777778,27.77777778,-131.2222222,-0.157777778,-0.388888889,1,0,0,0.716,submitButton,0.432222222,-0.404444444,1,0,0,2,44,164,53,1,69,69853,1,180,2022-02-23_21h59.19,orientation adjustment 1,2021.2.3,MacIntel,66.66666667,pause_continueButton,,,,,,
,,,,,,,,,,,,,,,,,,,,,,-40,-40,20,75,-42,2,2,-132,-0.115555556,-0.396666667,1,0,0,1.1,submitButton,-0.115555556,-0.396666667,0,0,0,2,45,165,24,1,40,69853,1,180,2022-02-23_21h59.19,orientation adjustment 1,2021.2.3,MacIntel,66.66666667,,,,,,,
,,,,,,,,,,,,,,,,,,,,,,26.66666667,63,20,75,54.66666667,8.333333333,8.333333333,-35.33333333,0.42,-0.311111111,1,0,0,0.283,submitButton,-0.186666667,-0.384444444,0,0,0,2,46,166,47,1,63,69853,1,180,2022-02-23_21h59.19,orientation adjustment 1,2021.2.3,MacIntel,66.66666667,,,,,,,
,,,,,,,,,,,,,,,,,,,,,,-42.22222222,71,20,75,46.77777778,24.22222222,24.22222222,-43.22222222,-0.163333333,-0.404444444,1,0,0,0.633,submitButton,-0.163333333,-0.404444444,0,0,0,2,47,167,55,1,71,69853,1,180,2022-02-23_21h59.19,orientation adjustment 1,2021.2.3,MacIntel,66.66666667,,,,,,,
,,,,,,,,,,,,,,,,,,,,,,32.77777778,-55,20,75,-36.22222222,18.77777778,18.77777778,-126.2222222,0.343333333,-0.303333333,1,0,0,0.133,submitButton,-0.318888889,-0.391111111,0,0,0,2,48,168,39,1,55,69853,1,180,2022-02-23_21h59.19,orientation adjustment 1,2021.2.3,MacIntel,66.66666667,,,,,,,
,,,,,,,,,,,,,,,,,,,,,,-53.33333333,-67,20,75,-57.33333333,9.666666667,9.666666667,-147.3333333,0.162222222,-0.302222222,1,0,0,0.283,submitButton,-0.145555556,-0.385555556,0,0,0,2,49,169,51,1,67,69853,1,180,2022-02-23_21h59.19,orientation adjustment 1,2021.2.3,MacIntel,66.66666667,,,,,,,
,,,,,,,,,,,,,,,,,,,,,,28.88888889,-45,20,75,-30.11111111,14.88888889,14.88888889,-120.1111111,0.398888889,-0.307777778,1,0,0,0.016,submitButton,-0.135555556,-0.386666667,0,0,0,2,50,170,29,1,45,69853,1,180,2022-02-23_21h59.19,orientation adjustment 1,2021.2.3,MacIntel,66.66666667,,,,,,,
,,,,,,,,,,,,,,,,,,,,,,38.33333333,-61,20,75,-33.66666667,27.33333333,27.33333333,-123.6666667,0.382222222,-0.306666667,1,0,0,0.65,submitButton,-0.268888889,-0.378888889,0,0,0,2,51,171,45,1,61,69853,1,180,2022-02-23_21h59.19,orientation adjustment 1,2021.2.3,MacIntel,66.66666667,,,,,,,
,,,,,,,,,,,,,,,,,,,,,,55,46,20,75,203,23,23,113,-0.16,-0.394444444,1,0,0,1.799,submitButton,-0.16,-0.394444444,0,0,0,2,52,172,30,1,46,69853,1,180,2022-02-23_21h59.19,orientation adjustment 1,2021.2.3,MacIntel,66.66666667,,,,,,,
,,,,,,,,,,,,,,,,,,,,,,70,68,20,75,198,50,50,108,0.196666667,-0.302222222,1,0,0,0.117,submitButton,-0.156666667,-0.397777778,0,0,0,2,53,173,52,1,68,69853,1,180,2022-02-23_21h59.19,orientation adjustment 1,2021.2.3,MacIntel,66.66666667,,,,,,,
,,,,,,,,,,,,,,,,,,,,,,-63.33333333,-50,20,75,-208.3333333,21.66666667,21.66666667,-298.3333333,-0.242222222,-0.4,1,0,0,1.783,submitButton,-0.242222222,-0.397777778,0,0,0,2,54,174,34,1,50,69853,1,180,2022-02-23_21h59.19,orientation adjustment 1,2021.2.3,MacIntel,66.66666667,,,,,,,
,,,,,,,,,,,,,,,,,,,,,,60.55555556,-41,20,75,-29.44444444,11.55555556,11.55555556,-119.4444444,-0.275555556,-0.4,1,0,0,1.015,submitButton,-0.275555556,-0.398888889,0,0,0,2,55,175,25,1,41,69853,1,180,2022-02-23_21h59.19,orientation adjustment 1,2021.2.3,MacIntel,66.66666667,,,,,,,
,,,,,,,,,,,,,,,,,,,,,,-46.66666667,-27,20,75,-27.66666667,0.666666667,0.666666667,-117.6666667,-0.113333333,-0.423333333,1,0,0,0.883,submitButton,-0.113333333,-0.423333333,0,0,0,2,56,176,11,1,27,69853,1,180,2022-02-23_21h59.19,orientation adjustment 1,2021.2.3,MacIntel,66.66666667,,,,,,,
,,,,,,,,,,,,,,,,,,,,,,-42.22222222,36,20,75,22.77777778,13.22222222,13.22222222,-67.22222222,-0.224444444,-0.406666667,1,0,0,0.517,submitButton,-0.224444444,-0.405555556,0,0,0,2,57,177,20,1,36,69853,1,180,2022-02-23_21h59.19,orientation adjustment 1,2021.2.3,MacIntel,66.66666667,,,,,,,
,,,,,,,,,,,,,,,,,,,,,,74.44444444,53,20,75,211.4444444,21.55555556,21.55555556,121.4444444,-0.108888889,-0.383333333,1,0,0,1.984,submitButton,-0.108888889,-0.383333333,0,0,0,2,58,178,37,1,53,69853,1,180,2022-02-23_21h59.19,orientation adjustment 1,2021.2.3,MacIntel,66.66666667,,,,,,,
,,,,,,,,,,,,,,,,,,,,,,50,54,20,75,205,29,29,115,-0.191111111,-0.402222222,1,0,0,1.884,submitButton,-0.191111111,-0.402222222,0,0,0,2,59,179,38,1,54,69853,1,180,2022-02-23_21h59.19,orientation adjustment 1,2021.2.3,MacIntel,66.66666667,,,,,,,
,,,,,,,,,,,,,,,,,,,,,,,,,,,,,,,,,,,,,,,,,,,,,,,,69853,1,180,2022-02-23_21h59.19,orientation adjustment 1,2021.2.3,MacIntel,66.66666667,,0.27,-0.402222222,1,0,0,EndButtonTxt
