consentMouse1.x,consentMouse1.y,consentMouse1.leftButton,consentMouse1.midButton,consentMouse1.rightButton,consentMouse1.clicked_name,consent_Mouse.x,consent_Mouse.y,consent_Mouse.leftButton,consent_Mouse.midButton,consent_Mouse.rightButton,consent_Mouse.clicked_name,startMouse.x,startMouse.y,startMouse.leftButton,startMouse.midButton,startMouse.rightButton,startMouse_2.x,startMouse_2.y,startMouse_2.leftButton,startMouse_2.midButton,startMouse_2.rightButton,start_distance,fixedOri,minimalDistance,maxOri,this_ori,accuracy,presented_accuracy,presented_this_ori,submitMouse.x,submitMouse.y,submitMouse.leftButton,submitMouse.midButton,submitMouse.rightButton,submitMouse.time,submitMouse.clicked_name,pauseMouse.x,pauseMouse.y,pauseMouse.leftButton,pauseMouse.midButton,pauseMouse.rightButton,trials.thisRepN,trials.thisTrialN,trials.thisN,trials.thisIndex,trials.ran,startOri,participant,condition,nTrials,date,expName,psychopyVersion,OS,frameRate,pauseMouse.clicked_name,EndButtonMouse.x,EndButtonMouse.y,EndButtonMouse.leftButton,EndButtonMouse.midButton,EndButtonMouse.rightButton,EndButtonMouse.clicked_name
0.392326389,-0.394431424,1,0,0,consent_button1,0.387756076,-0.407560764,1,0,0,consent_button,0.213771701,-0.194348958,1,0,0,0.062122396,-0.376384549,1,0,0,48.33333333,31,20,75,204.3333333,6.666666667,6.666666667,114.3333333,0.197391493,-0.302122396,1,0,0,0.3986,submitButton,0.189622396,-0.307890625,0,0,0,0,0,0,15,1,31,69850,1,180,2022-02-10_12h04.10.165,orientation adjustment 1,2021.2.3,MacIntel,59.99880002,,,,,,,
,,,,,,,,,,,,,,,,,,,,,,-23.88888889,63,20,75,57.11111111,5.888888889,5.888888889,-32.88888889,0.368697917,-0.314301215,1,0,0,0.8332,submitButton,0.225963542,-0.296080729,0,0,0,0,1,1,47,1,63,69850,1,180,2022-02-10_12h04.10.165,orientation adjustment 1,2021.2.3,MacIntel,59.99880002,,,,,,,
,,,,,,,,,,,,,,,,,,,,,,59.44444444,-22,20,75,-20.55555556,1.444444444,1.444444444,-110.5555556,0.431987847,-0.298198785,1,0,0,0.0172,submitButton,0.233342014,-0.278689236,0,0,0,0,2,2,6,1,22,69850,1,180,2022-02-10_12h04.10.165,orientation adjustment 1,2021.2.3,MacIntel,59.99880002,,,,,,,
,,,,,,,,,,,,,,,,,,,,,,44.44444444,69,20,75,233.4444444,15.55555556,15.55555556,143.4444444,0.211232639,-0.293098958,1,0,0,1.1841,submitButton,0.338637153,-0.302912326,0,0,0,0,3,3,53,1,69,69850,1,180,2022-02-10_12h04.10.165,orientation adjustment 1,2021.2.3,MacIntel,59.99880002,,,,,,,
,,,,,,,,,,,,,,,,,,,,,,-42.22222222,-19,20,75,-203.2222222,4.222222222,4.222222222,-293.2222222,0.430611979,-0.302322049,1,0,0,0.4491,submitButton,0.362981771,-0.313211806,0,0,0,0,4,4,3,1,19,69850,1,180,2022-02-10_12h04.10.165,orientation adjustment 1,2021.2.3,MacIntel,59.99880002,,,,,,,
,,,,,,,,,,,,,,,,,,,,,,-28.33333333,-49,20,75,-212.3333333,16.66666667,16.66666667,-302.3333333,0.390143229,-0.306506076,1,0,0,2.0492,submitButton,0.122552083,-0.319409722,0,0,0,0,5,5,33,1,49,69850,1,180,2022-02-10_12h04.10.165,orientation adjustment 1,2021.2.3,MacIntel,59.99880002,,,,,,,
,,,,,,,,,,,,,,,,,,,,,,-35,-72,20,75,-225,27,27,-315,-0.475030382,-0.399904514,1,0,0,2.4,submitButton,0.039322917,-0.258194444,0,0,0,0,6,6,56,1,72,69850,1,180,2022-02-10_12h04.10.165,orientation adjustment 1,2021.2.3,MacIntel,59.99880002,,,,,,,
,,,,,,,,,,,,,,,,,,,,,,63.88888889,-39,20,75,-16.11111111,22.88888889,22.88888889,-106.1111111,-0.328376736,-0.423446181,1,0,0,1.7333,submitButton,0.178684896,-0.221618924,0,0,0,0,7,7,23,1,39,69850,1,180,2022-02-10_12h04.10.165,orientation adjustment 1,2021.2.3,MacIntel,59.99880002,,,,,,,
,,,,,,,,,,,,,,,,,,,,,,59.44444444,52,20,75,230.4444444,1.555555556,1.555555556,140.4444444,0.173606771,-0.256527778,1,0,0,0.0668,submitButton,0.279505208,-0.305243056,0,0,0,0,8,8,36,1,52,69850,1,180,2022-02-10_12h04.10.165,orientation adjustment 1,2021.2.3,MacIntel,59.99880002,,,,,,,
,,,,,,,,,,,,,,,,,,,,,,26.11111111,24,20,75,19.11111111,4.888888889,4.888888889,-70.88888889,0.440959201,-0.281736111,1,0,0,0.5487,submitButton,0.470737847,-0.311423611,0,0,0,0,9,9,8,1,24,69850,1,180,2022-02-10_12h04.10.165,orientation adjustment 1,2021.2.3,MacIntel,59.99880002,,,,,,,
,,,,,,,,,,,,,,,,,,,,,,-42.77777778,-17,20,75,-32.77777778,15.77777778,15.77777778,-122.7777778,0.191436632,-0.306822917,1,0,0,0.6337,submitButton,0.094149306,-0.266840278,0,0,0,0,10,10,1,1,17,69850,1,180,2022-02-10_12h04.10.165,orientation adjustment 1,2021.2.3,MacIntel,59.99880002,,,,,,,
,,,,,,,,,,,,,,,,,,,,,,-50.55555556,32,20,75,20.44444444,11.55555556,11.55555556,-69.55555556,0.224487847,-0.302408854,1,0,0,0.4994,submitButton,0.214335937,-0.235703125,0,0,0,0,11,11,16,1,32,69850,1,180,2022-02-10_12h04.10.165,orientation adjustment 1,2021.2.3,MacIntel,59.99880002,,,,,,,
,,,,,,,,,,,,,,,,,,,,,,57.22222222,-18,20,75,-22.77777778,4.777777778,4.777777778,-112.7777778,0.405551215,-0.287751736,1,0,0,0.7829,submitButton,0.335056424,-0.246901042,0,0,0,0,12,12,2,1,18,69850,1,180,2022-02-10_12h04.10.165,orientation adjustment 1,2021.2.3,MacIntel,59.99880002,,,,,,,
,,,,,,,,,,,,,,,,,,,,,,-52.77777778,75,20,75,52.22222222,22.77777778,22.77777778,-37.77777778,-0.177990451,-0.361640625,1,0,0,0.9338,submitButton,0.148515625,-0.227625868,0,0,0,0,13,13,59,1,75,69850,1,180,2022-02-10_12h04.10.165,orientation adjustment 1,2021.2.3,MacIntel,59.99880002,,,,,,,
,,,,,,,,,,,,,,,,,,,,,,58.88888889,-64,20,75,-39.11111111,24.88888889,24.88888889,-129.1111111,0.419956597,-0.290095486,1,0,0,0.1494,submitButton,0.314427083,-0.402747396,1,0,0,0,14,14,48,1,64,69850,1,180,2022-02-10_12h04.10.165,orientation adjustment 1,2021.2.3,MacIntel,59.99880002,pause_continueButton,,,,,,
,,,,,,,,,,,,,,,,,,,,,,-64.44444444,-37,20,75,-180.4444444,36.55555556,36.55555556,-270.4444444,-0.308680556,-0.400672743,1,0,0,2.1848,submitButton,0.320633681,-0.274882813,0,0,0,0,15,15,21,1,37,69850,1,180,2022-02-10_12h04.10.165,orientation adjustment 1,2021.2.3,MacIntel,59.99880002,,,,,,,
,,,,,,,,,,,,,,,,,,,,,,50.55555556,-51,20,75,33.55555556,84.55555556,84.55555556,-56.44444444,0.220881076,-0.270091146,1,0,0,0.1322,submitButton,0.164440104,-0.32062066,0,0,0,0,16,16,35,1,51,69850,1,180,2022-02-10_12h04.10.165,orientation adjustment 1,2021.2.3,MacIntel,59.99880002,,,,,,,
,,,,,,,,,,,,,,,,,,,,,,-23.88888889,21,20,75,22.11111111,1.111111111,1.111111111,-67.88888889,-0.166796875,-0.389639757,1,0,0,0.8157,submitButton,0.322842882,-0.328572049,0,0,0,0,17,17,5,1,21,69850,1,180,2022-02-10_12h04.10.165,orientation adjustment 1,2021.2.3,MacIntel,59.99880002,,,,,,,
,,,,,,,,,,,,,,,,,,,,,,62.77777778,-67,20,75,-46.22222222,20.77777778,20.77777778,-136.2222222,-0.108736979,-0.406414931,1,0,0,0.9834,submitButton,0.251380208,-0.296662326,0,0,0,0,18,18,51,1,67,69850,1,180,2022-02-10_12h04.10.165,orientation adjustment 1,2021.2.3,MacIntel,59.99880002,,,,,,,
,,,,,,,,,,,,,,,,,,,,,,23.33333333,46,20,75,219.3333333,6.666666667,6.666666667,129.3333333,0.230720486,-0.295104167,1,0,0,0.5839,submitButton,0.342881944,-0.342109375,0,0,0,0,19,19,30,1,46,69850,1,180,2022-02-10_12h04.10.165,orientation adjustment 1,2021.2.3,MacIntel,59.99880002,,,,,,,
,,,,,,,,,,,,,,,,,,,,,,-70.55555556,29,20,75,36.44444444,7.444444444,7.444444444,-53.55555556,0.240750868,-0.293038194,1,0,0,1.0507,submitButton,0.339861111,-0.323658854,0,0,0,0,20,20,13,1,29,69850,1,180,2022-02-10_12h04.10.165,orientation adjustment 1,2021.2.3,MacIntel,59.99880002,,,,,,,
,,,,,,,,,,,,,,,,,,,,,,-36.66666667,-61,20,75,-225.6666667,15.33333333,15.33333333,-315.6666667,0.349118924,-0.321393229,1,0,0,2.5177,submitButton,0.401553819,-0.326388889,0,0,0,0,21,21,45,1,61,69850,1,180,2022-02-10_12h04.10.165,orientation adjustment 1,2021.2.3,MacIntel,59.99880002,,,,,,,
,,,,,,,,,,,,,,,,,,,,,,-31.11111111,57,20,75,56.88888889,0.111111111,0.111111111,-33.11111111,-0.271666667,-0.438537326,1,0,0,1.1489,submitButton,0.013029514,-0.365147569,0,0,0,0,22,22,41,1,57,69850,1,180,2022-02-10_12h04.10.165,orientation adjustment 1,2021.2.3,MacIntel,59.99880002,,,,,,,
,,,,,,,,,,,,,,,,,,,,,,48.33333333,-71,20,75,-49.66666667,21.33333333,21.33333333,-139.6666667,-0.290685764,-0.379353299,1,0,0,1.2003,submitButton,0.200065104,-0.282947049,0,0,0,0,23,23,55,1,71,69850,1,180,2022-02-10_12h04.10.165,orientation adjustment 1,2021.2.3,MacIntel,59.99880002,,,,,,,
,,,,,,,,,,,,,,,,,,,,,,42.77777778,48,20,75,210.7777778,17.22222222,17.22222222,120.7777778,0.190499132,-0.291753472,1,0,0,0.9498,submitButton,0.144440104,-0.352842882,0,0,0,0,24,24,32,1,48,69850,1,180,2022-02-10_12h04.10.165,orientation adjustment 1,2021.2.3,MacIntel,59.99880002,,,,,,,
,,,,,,,,,,,,,,,,,,,,,,-53.88888889,60,20,75,41.11111111,18.88888889,18.88888889,-48.88888889,-0.146614583,-0.39625,1,0,0,1.2003,submitButton,0.121727431,-0.315837674,0,0,0,0,25,25,44,1,60,69850,1,180,2022-02-10_12h04.10.165,orientation adjustment 1,2021.2.3,MacIntel,59.99880002,,,,,,,
,,,,,,,,,,,,,,,,,,,,,,-44.44444444,50,20,75,38.55555556,11.44444444,11.44444444,-51.44444444,0.092109375,-0.266284722,1,0,0,0.0833,submitButton,0.109149306,-0.296818576,0,0,0,0,26,26,34,1,50,69850,1,180,2022-02-10_12h04.10.165,orientation adjustment 1,2021.2.3,MacIntel,59.99880002,,,,,,,
,,,,,,,,,,,,,,,,,,,,,,64.44444444,70,20,75,224.4444444,25.55555556,25.55555556,134.4444444,0.207786458,-0.307274306,1,0,0,0.8008,submitButton,0.191627604,-0.28546441,0,0,0,0,27,27,54,1,70,69850,1,180,2022-02-10_12h04.10.165,orientation adjustment 1,2021.2.3,MacIntel,59.99880002,,,,,,,
,,,,,,,,,,,,,,,,,,,,,,25.55555556,20,20,75,27.55555556,7.555555556,7.555555556,-62.44444444,0.400234375,-0.276380208,1,0,0,0.6172,submitButton,0.174401042,-0.344865451,0,0,0,0,28,28,4,1,20,69850,1,180,2022-02-10_12h04.10.165,orientation adjustment 1,2021.2.3,MacIntel,59.99880002,,,,,,,
,,,,,,,,,,,,,,,,,,,,,,-20.55555556,16,20,75,21.44444444,5.444444444,5.444444444,-68.55555556,0.211289063,-0.308715278,1,0,0,0.2997,submitButton,0.389114583,-0.426497396,1,0,0,0,29,29,0,1,16,69850,1,180,2022-02-10_12h04.10.165,orientation adjustment 1,2021.2.3,MacIntel,59.99880002,pause_continueButton,,,,,,
,,,,,,,,,,,,,,,,,,,,,,26.11111111,42,20,75,234.1111111,12.11111111,12.11111111,144.1111111,0.248255208,-0.324032118,1,0,0,1.5672,submitButton,-0.178763021,-0.359292535,0,0,0,0,30,30,26,1,42,69850,1,180,2022-02-10_12h04.10.165,orientation adjustment 1,2021.2.3,MacIntel,59.99880002,,,,,,,
,,,,,,,,,,,,,,,,,,,,,,65,27,20,75,196,11,11,106,0.506953125,-0.291471354,1,0,0,1.6006,submitButton,-0.144887153,-0.408485243,0,0,0,0,31,31,11,1,27,69850,1,180,2022-02-10_12h04.10.165,orientation adjustment 1,2021.2.3,MacIntel,59.99880002,,,,,,,
,,,,,,,,,,,,,,,,,,,,,,-32.77777778,68,20,75,-39.77777778,72.22222222,72.22222222,-129.7777778,0.429934896,-0.30468316,1,0,0,0.0676,submitButton,-0.200798611,-0.423207465,0,0,0,0,32,32,52,1,68,69850,1,180,2022-02-10_12h04.10.165,orientation adjustment 1,2021.2.3,MacIntel,59.99880002,,,,,,,
,,,,,,,,,,,,,,,,,,,,,,-67.22222222,34,20,75,35.77777778,1.777777778,1.777777778,-54.22222222,0.221731771,-0.287526042,1,0,0,0.7665,submitButton,-0.212508681,-0.405633681,0,0,0,0,33,33,18,1,34,69850,1,180,2022-02-10_12h04.10.165,orientation adjustment 1,2021.2.3,MacIntel,59.99880002,,,,,,,
,,,,,,,,,,,,,,,,,,,,,,-46.66666667,45,20,75,32.33333333,12.66666667,12.66666667,-57.66666667,-0.367842882,-0.397421875,1,0,0,1.2825,submitButton,0.066679688,-0.329713542,0,0,0,0,34,34,29,1,45,69850,1,180,2022-02-10_12h04.10.165,orientation adjustment 1,2021.2.3,MacIntel,59.99880002,,,,,,,
,,,,,,,,,,,,,,,,,,,,,,61.11111111,-55,20,75,-27.88888889,27.11111111,27.11111111,-117.8888889,0.399071181,-0.312413194,1,0,0,0.0988,submitButton,-0.216653646,-0.404947917,0,0,0,0,35,35,39,1,55,69850,1,180,2022-02-10_12h04.10.165,orientation adjustment 1,2021.2.3,MacIntel,59.99880002,,,,,,,
,,,,,,,,,,,,,,,,,,,,,,27.77777778,43,20,75,207.7777778,15.22222222,15.22222222,117.7777778,0.222526042,-0.319123264,1,0,0,0.0166,submitButton,-0.212469618,-0.410060764,0,0,0,0,36,36,27,1,43,69850,1,180,2022-02-10_12h04.10.165,orientation adjustment 1,2021.2.3,MacIntel,59.99880002,,,,,,,
,,,,,,,,,,,,,,,,,,,,,,-43.88888889,47,20,75,29.11111111,17.88888889,17.88888889,-60.88888889,0.191184896,-0.292465278,1,0,0,0.5836,submitButton,0.332265625,-0.287526042,0,0,0,0,37,37,31,1,47,69850,1,180,2022-02-10_12h04.10.165,orientation adjustment 1,2021.2.3,MacIntel,59.99880002,,,,,,,
,,,,,,,,,,,,,,,,,,,,,,-30,-56,20,75,-207,29,29,-297,-0.26046875,-0.391779514,1,0,0,2.7006,submitButton,0.090386285,-0.239926215,0,0,0,0,38,38,40,1,56,69850,1,180,2022-02-10_12h04.10.165,orientation adjustment 1,2021.2.3,MacIntel,59.99880002,,,,,,,
,,,,,,,,,,,,,,,,,,,,,,31.66666667,-53,20,75,32.66666667,85.66666667,85.66666667,-57.33333333,-0.155989583,-0.413051215,1,0,0,1.6492,submitButton,0.06641059,-0.328502604,0,0,0,0,39,39,37,1,53,69850,1,180,2022-02-10_12h04.10.165,orientation adjustment 1,2021.2.3,MacIntel,59.99880002,,,,,,,
,,,,,,,,,,,,,,,,,,,,,,68.33333333,66,20,75,219.3333333,26.66666667,26.66666667,129.3333333,-0.201909722,-0.413663194,1,0,0,1.9664,submitButton,0.315985243,-0.242526042,0,0,0,0,40,40,50,1,66,69850,1,180,2022-02-10_12h04.10.165,orientation adjustment 1,2021.2.3,MacIntel,59.99880002,,,,,,,
,,,,,,,,,,,,,,,,,,,,,,-41.11111111,25,20,75,19.88888889,5.111111111,5.111111111,-70.11111111,-0.169730903,-0.412881944,1,0,0,0.9662,submitButton,0.208133681,-0.257756076,0,0,0,0,41,41,9,1,25,69850,1,180,2022-02-10_12h04.10.165,orientation adjustment 1,2021.2.3,MacIntel,59.99880002,,,,,,,
,,,,,,,,,,,,,,,,,,,,,,57.77777778,-73,20,75,-40.22222222,32.77777778,32.77777778,-130.2222222,-0.154678819,-0.401289063,1,0,0,0.6162,submitButton,0.146202257,-0.22421441,0,0,0,0,42,42,57,1,73,69850,1,180,2022-02-10_12h04.10.165,orientation adjustment 1,2021.2.3,MacIntel,59.99880002,,,,,,,
,,,,,,,,,,,,,,,,,,,,,,29.44444444,41,20,75,196.4444444,24.55555556,24.55555556,106.4444444,0.240394965,-0.276775174,1,0,0,1.4171,submitButton,-0.202300347,-0.382161458,0,0,0,0,43,43,25,1,41,69850,1,180,2022-02-10_12h04.10.165,orientation adjustment 1,2021.2.3,MacIntel,59.99880002,,,,,,,
,,,,,,,,,,,,,,,,,,,,,,30.55555556,-28,20,75,42.55555556,70.55555556,70.55555556,-47.44444444,0.212864583,-0.300742187,1,0,0,0.117,submitButton,0.313845486,-0.410073785,1,0,0,0,44,44,12,1,28,69850,1,180,2022-02-10_12h04.10.165,orientation adjustment 1,2021.2.3,MacIntel,59.99880002,pause_continueButton,,,,,,
,,,,,,,,,,,,,,,,,,,,,,54.44444444,-58,20,75,-33.55555556,24.44444444,24.44444444,-123.5555556,-0.184466146,-0.426861979,1,0,0,0.8834,submitButton,0.104934896,-0.249900174,0,0,0,0,45,45,42,1,58,69850,1,180,2022-02-10_12h04.10.165,orientation adjustment 1,2021.2.3,MacIntel,59.99880002,,,,,,,
,,,,,,,,,,,,,,,,,,,,,,63.33333333,35,20,75,203.3333333,11.66666667,11.66666667,113.3333333,-0.211019965,-0.392643229,1,0,0,2.0507,submitButton,0.148155382,-0.235659722,0,0,0,0,46,46,19,1,35,69850,1,180,2022-02-10_12h04.10.165,orientation adjustment 1,2021.2.3,MacIntel,59.99880002,,,,,,,
,,,,,,,,,,,,,,,,,,,,,,26.66666667,59,20,75,197.6666667,41.33333333,41.33333333,107.6666667,-0.164561632,-0.389609375,1,0,0,2.2492,submitButton,0.076319444,-0.266692708,0,0,0,0,47,47,43,1,59,69850,1,180,2022-02-10_12h04.10.165,orientation adjustment 1,2021.2.3,MacIntel,59.99880002,,,,,,,
,,,,,,,,,,,,,,,,,,,,,,40.55555556,23,20,75,39.55555556,16.55555556,16.55555556,-50.44444444,0.362005208,-0.281636285,1,0,0,0.4671,submitButton,-0.252165799,-0.382526042,0,0,0,0,48,48,7,1,23,69850,1,180,2022-02-10_12h04.10.165,orientation adjustment 1,2021.2.3,MacIntel,59.99880002,,,,,,,
,,,,,,,,,,,,,,,,,,,,,,21.11111111,-65,20,75,-65.88888889,0.888888889,0.888888889,-155.8888889,0.401332465,-0.316358507,1,0,0,0.582,submitButton,-0.155234375,-0.397387153,0,0,0,0,49,49,49,1,65,69850,1,180,2022-02-10_12h04.10.165,orientation adjustment 1,2021.2.3,MacIntel,59.99880002,,,,,,,
,,,,,,,,,,,,,,,,,,,,,,-31.11111111,40,20,75,-41.11111111,81.11111111,81.11111111,-131.1111111,0.396519097,-0.315885417,1,0,0,0.3846,submitButton,-0.006132813,-0.334444444,0,0,0,0,50,50,24,1,40,69850,1,180,2022-02-10_12h04.10.165,orientation adjustment 1,2021.2.3,MacIntel,59.99880002,,,,,,,
,,,,,,,,,,,,,,,,,,,,,,41.66666667,26,20,75,210.6666667,4.666666667,4.666666667,120.6666667,0.194079861,-0.300052083,1,0,0,2.3346,submitButton,0.079900174,-0.33093316,0,0,0,0,51,51,10,1,26,69850,1,180,2022-02-10_12h04.10.165,orientation adjustment 1,2021.2.3,MacIntel,59.99880002,,,,,,,
,,,,,,,,,,,,,,,,,,,,,,-51.11111111,-33,20,75,-211.1111111,1.888888889,1.888888889,-301.1111111,0.389882813,-0.285711806,1,0,0,0.1493,submitButton,0.138815104,-0.32890625,0,0,0,0,52,52,17,1,33,69850,1,180,2022-02-10_12h04.10.165,orientation adjustment 1,2021.2.3,MacIntel,59.99880002,,,,,,,
,,,,,,,,,,,,,,,,,,,,,,38.88888889,36,20,75,206.8888889,9.111111111,9.111111111,116.8888889,-0.129201389,-0.411805556,1,0,0,2.7671,submitButton,0.087734375,-0.293736979,0,0,0,0,53,53,20,1,36,69850,1,180,2022-02-10_12h04.10.165,orientation adjustment 1,2021.2.3,MacIntel,59.99880002,,,,,,,
,,,,,,,,,,,,,,,,,,,,,,-63.33333333,30,20,75,24.66666667,5.333333333,5.333333333,-65.33333333,0.237460937,-0.303741319,1,0,0,0.8004,submitButton,0.139162326,-0.352200521,0,0,0,0,54,54,14,1,30,69850,1,180,2022-02-10_12h04.10.165,orientation adjustment 1,2021.2.3,MacIntel,59.99880002,,,,,,,
,,,,,,,,,,,,,,,,,,,,,,54.44444444,74,20,75,232.4444444,21.55555556,21.55555556,142.4444444,0.220651042,-0.29516059,1,0,0,0.4832,submitButton,-0.063268229,-0.360759549,0,0,0,0,55,55,58,1,74,69850,1,180,2022-02-10_12h04.10.165,orientation adjustment 1,2021.2.3,MacIntel,59.99880002,,,,,,,
,,,,,,,,,,,,,,,,,,,,,,67.22222222,-62,20,75,-36.77777778,25.22222222,25.22222222,-126.7777778,-0.135681424,-0.375881076,1,0,0,1.5163,submitButton,0.109882812,-0.284322917,0,0,0,0,56,56,46,1,62,69850,1,180,2022-02-10_12h04.10.165,orientation adjustment 1,2021.2.3,MacIntel,59.99880002,,,,,,,
,,,,,,,,,,,,,,,,,,,,,,-42.77777778,-38,20,75,-223.7777778,5.777777778,5.777777778,-313.7777778,0.395551215,-0.287322049,1,0,0,0.0665,submitButton,0.003376736,-0.393233507,0,0,0,0,57,57,22,1,38,69850,1,180,2022-02-10_12h04.10.165,orientation adjustment 1,2021.2.3,MacIntel,59.99880002,,,,,,,
,,,,,,,,,,,,,,,,,,,,,,63.88888889,54,20,75,224.8888889,9.111111111,9.111111111,134.8888889,-0.217365451,-0.426631944,1,0,0,2.9999,submitButton,0.08765625,-0.336974826,0,0,0,0,58,58,38,1,54,69850,1,180,2022-02-10_12h04.10.165,orientation adjustment 1,2021.2.3,MacIntel,59.99880002,,,,,,,
,,,,,,,,,,,,,,,,,,,,,,-62.77777778,-44,20,75,-106.7777778,62.77777778,62.77777778,-196.7777778,-0.178893229,-0.406918403,1,0,0,2.8002,submitButton,0.240707465,-0.417730035,1,0,0,0,59,59,28,1,44,69850,1,180,2022-02-10_12h04.10.165,orientation adjustment 1,2021.2.3,MacIntel,59.99880002,pause_continueButton,,,,,,
,,,,,,,,,,,,,,,,,,,,,,-68.33333333,45,20,75,28.66666667,16.33333333,16.33333333,-61.33333333,-0.212743056,-0.385477431,1,0,0,1.0678,submitButton,0.367261285,-0.292018229,0,0,0,1,0,60,29,1,45,69850,1,180,2022-02-10_12h04.10.165,orientation adjustment 1,2021.2.3,MacIntel,59.99880002,,,,,,,
,,,,,,,,,,,,,,,,,,,,,,-59.44444444,-44,20,75,-207.4444444,16.55555556,16.55555556,-297.4444444,0.418802083,-0.288858507,1,0,0,1.3499,submitButton,0.248728299,-0.284470486,0,0,0,1,1,61,28,1,44,69850,1,180,2022-02-10_12h04.10.165,orientation adjustment 1,2021.2.3,MacIntel,59.99880002,,,,,,,
,,,,,,,,,,,,,,,,,,,,,,69.44444444,-25,20,75,-23.55555556,1.444444444,1.444444444,-113.5555556,-0.370065104,-0.42547309,1,0,0,1.2172,submitButton,-0.214791667,-0.396006944,0,0,0,1,2,62,9,1,25,69850,1,180,2022-02-10_12h04.10.165,orientation adjustment 1,2021.2.3,MacIntel,59.99880002,,,,,,,
,,,,,,,,,,,,,,,,,,,,,,41.11111111,-55,20,75,-41.88888889,13.11111111,13.11111111,-131.8888889,0.231471354,-0.276545139,1,0,0,1.5492,submitButton,0.170585938,-0.310525174,0,0,0,1,3,63,39,1,55,69850,1,180,2022-02-10_12h04.10.165,orientation adjustment 1,2021.2.3,MacIntel,59.99880002,,,,,,,
,,,,,,,,,,,,,,,,,,,,,,-40,58,20,75,42,16,16,-48,0.217565104,-0.300546875,1,0,0,0.4497,submitButton,0.054305556,-0.314605035,0,0,0,1,4,64,42,1,58,69850,1,180,2022-02-10_12h04.10.165,orientation adjustment 1,2021.2.3,MacIntel,59.99880002,,,,,,,
,,,,,,,,,,,,,,,,,,,,,,27.22222222,31,20,75,197.2222222,13.77777778,13.77777778,107.2222222,0.226662326,-0.287764757,1,0,0,1.7331,submitButton,0.013893229,-0.364396701,0,0,0,1,5,65,15,1,31,69850,1,180,2022-02-10_12h04.10.165,orientation adjustment 1,2021.2.3,MacIntel,59.99880002,,,,,,,
,,,,,,,,,,,,,,,,,,,,,,-24.44444444,-47,20,75,-220.4444444,6.555555556,6.555555556,-310.4444444,0.374800347,-0.28312934,1,0,0,2.3003,submitButton,-0.100716146,-0.372769097,0,0,0,1,6,66,31,1,47,69850,1,180,2022-02-10_12h04.10.165,orientation adjustment 1,2021.2.3,MacIntel,59.99880002,,,,,,,
,,,,,,,,,,,,,,,,,,,,,,28.88888889,-49,20,75,-42.11111111,6.888888889,6.888888889,-132.1111111,0.378146701,-0.263138021,1,0,0,0.1673,submitButton,0.354184028,-0.313368056,0,0,0,1,7,67,33,1,49,69850,1,180,2022-02-10_12h04.10.165,orientation adjustment 1,2021.2.3,MacIntel,59.99880002,,,,,,,
,,,,,,,,,,,,,,,,,,,,,,-27.77777778,75,20,75,76.22222222,1.222222222,1.222222222,-13.77777778,0.267769097,-0.300763889,1,0,0,0.0655,submitButton,0.388528646,-0.295555556,0,0,0,1,8,68,59,1,75,69850,1,180,2022-02-10_12h04.10.165,orientation adjustment 1,2021.2.3,MacIntel,59.99880002,,,,,,,
,,,,,,,,,,,,,,,,,,,,,,28.33333333,-27,20,75,-22.66666667,4.333333333,4.333333333,-112.6666667,-0.127747396,-0.401688368,1,0,0,1.2328,submitButton,0.275598958,-0.288949653,0,0,0,1,9,69,11,1,27,69850,1,180,2022-02-10_12h04.10.165,orientation adjustment 1,2021.2.3,MacIntel,59.99880002,,,,,,,
,,,,,,,,,,,,,,,,,,,,,,57.22222222,-59,20,75,-39.77777778,19.22222222,19.22222222,-129.7777778,0.369236111,-0.304032118,1,0,0,0.0993,submitButton,0.275742188,-0.266597222,0,0,0,1,10,70,43,1,59,69850,1,180,2022-02-10_12h04.10.165,orientation adjustment 1,2021.2.3,MacIntel,59.99880002,,,,,,,
,,,,,,,,,,,,,,,,,,,,,,70.55555556,38,20,75,216.5555556,1.444444444,1.444444444,126.5555556,0.237491319,-0.279305556,1,0,0,1.4337,submitButton,0.031653646,-0.370243056,0,0,0,1,11,71,22,1,38,69850,1,180,2022-02-10_12h04.10.165,orientation adjustment 1,2021.2.3,MacIntel,59.99880002,,,,,,,
,,,,,,,,,,,,,,,,,,,,,,-40,39,20,75,-1,40,40,-91,-0.111302083,-0.391875,1,0,0,2.2011,submitButton,-0.111302083,-0.391875,0,0,0,1,12,72,23,1,39,69850,1,180,2022-02-10_12h04.10.165,orientation adjustment 1,2021.2.3,MacIntel,59.99880002,,,,,,,
,,,,,,,,,,,,,,,,,,,,,,39.44444444,33,20,75,52.44444444,19.44444444,19.44444444,-37.55555556,0.212942708,-0.298728299,1,0,0,0.3325,submitButton,0.105221354,-0.30984375,0,0,0,1,13,73,17,1,33,69850,1,180,2022-02-10_12h04.10.165,orientation adjustment 1,2021.2.3,MacIntel,59.99880002,,,,,,,
,,,,,,,,,,,,,,,,,,,,,,68.33333333,26,20,75,43.33333333,17.33333333,17.33333333,-46.66666667,0.41234375,-0.292178819,1,0,0,0.865,submitButton,0.393394097,-0.403932292,1,0,0,1,14,74,10,1,26,69850,1,180,2022-02-10_12h04.10.165,orientation adjustment 1,2021.2.3,MacIntel,59.99880002,pause_continueButton,,,,,,
,,,,,,,,,,,,,,,,,,,,,,-72.77777778,-29,20,75,-202.7777778,6.222222222,6.222222222,-292.7777778,0.396809896,-0.306080729,1,0,0,0.1328,submitButton,-0.008342014,-0.37608941,0,0,0,1,15,75,13,1,29,69850,1,180,2022-02-10_12h04.10.165,orientation adjustment 1,2021.2.3,MacIntel,59.99880002,,,,,,,
,,,,,,,,,,,,,,,,,,,,,,75,-18,20,75,-26,8,8,-116,-0.185833333,-0.397543403,1,0,0,2.5174,submitButton,0.017599826,-0.326514757,0,0,0,1,16,76,2,1,18,69850,1,180,2022-02-10_12h04.10.165,orientation adjustment 1,2021.2.3,MacIntel,59.99880002,,,,,,,
,,,,,,,,,,,,,,,,,,,,,,-45,-40,20,75,-215,5,5,-305,0.390789931,-0.280460069,1,0,0,0.1985,submitButton,-0.153576389,-0.387560764,0,0,0,1,17,77,24,1,40,69850,1,180,2022-02-10_12h04.10.165,orientation adjustment 1,2021.2.3,MacIntel,59.99880002,,,,,,,
,,,,,,,,,,,,,,,,,,,,,,71.66666667,52,20,75,207.6666667,24.33333333,24.33333333,117.6666667,-0.334262153,-0.403945312,1,0,0,2.4826,submitButton,-0.158537326,-0.394748264,0,0,0,1,18,78,36,1,52,69850,1,180,2022-02-10_12h04.10.165,orientation adjustment 1,2021.2.3,MacIntel,59.99880002,,,,,,,
,,,,,,,,,,,,,,,,,,,,,,58.88888889,67,20,75,217.8888889,29.11111111,29.11111111,127.8888889,-0.172400174,-0.385421007,1,0,0,3.0836,submitButton,-0.166202257,-0.378684896,0,0,0,1,19,79,51,1,67,69850,1,180,2022-02-10_12h04.10.165,orientation adjustment 1,2021.2.3,MacIntel,59.99880002,,,,,,,
,,,,,,,,,,,,,,,,,,,,,,37.77777778,34,20,75,71.77777778,37.77777778,37.77777778,-18.22222222,-0.150451389,-0.395572917,1,0,0,3.101,submitButton,-0.150451389,-0.395572917,0,0,0,1,20,80,18,1,34,69850,1,180,2022-02-10_12h04.10.165,orientation adjustment 1,2021.2.3,MacIntel,59.99880002,,,,,,,
,,,,,,,,,,,,,,,,,,,,,,25,-72,20,75,-63,9,9,-153,0.391770833,-0.286818576,1,0,0,1.466,submitButton,-0.208793403,-0.368424479,0,0,0,1,21,81,56,1,72,69850,1,180,2022-02-10_12h04.10.165,orientation adjustment 1,2021.2.3,MacIntel,59.99880002,,,,,,,
,,,,,,,,,,,,,,,,,,,,,,24.44444444,30,20,75,208.4444444,1.555555556,1.555555556,118.4444444,0.182100694,-0.315416667,1,0,0,0.0664,submitButton,-0.269049479,-0.383398438,0,0,0,1,22,82,14,1,30,69850,1,180,2022-02-10_12h04.10.165,orientation adjustment 1,2021.2.3,MacIntel,59.99880002,,,,,,,
,,,,,,,,,,,,,,,,,,,,,,-45.55555556,74,20,75,46.44444444,27.55555556,27.55555556,-43.55555556,0.227795139,-0.280716146,1,0,0,0.0836,submitButton,-0.164696181,-0.39202691,0,0,0,1,23,83,58,1,74,69850,1,180,2022-02-10_12h04.10.165,orientation adjustment 1,2021.2.3,MacIntel,59.99880002,,,,,,,
,,,,,,,,,,,,,,,,,,,,,,-26.11111111,-17,20,75,-77.11111111,60.11111111,60.11111111,-167.1111111,0.364392361,-0.284570312,1,0,0,3.1839,submitButton,-0.23312066,-0.378611111,0,0,0,1,24,84,1,1,17,69850,1,180,2022-02-10_12h04.10.165,orientation adjustment 1,2021.2.3,MacIntel,59.99880002,,,,,,,
,,,,,,,,,,,,,,,,,,,,,,-33.88888889,36,20,75,2.111111111,33.88888889,33.88888889,-87.88888889,-0.23312066,-0.378611111,1,0,0,5.6998,submitButton,-0.23312066,-0.378611111,0,0,0,1,25,85,20,1,36,69850,1,180,2022-02-10_12h04.10.165,orientation adjustment 1,2021.2.3,MacIntel,59.99880002,,,,,,,
,,,,,,,,,,,,,,,,,,,,,,63.88888889,-71,20,75,-46.11111111,24.88888889,24.88888889,-136.1111111,0.372443576,-0.318702257,1,0,0,0.3174,submitButton,-0.184921875,-0.392773437,0,0,0,1,26,86,55,1,71,69850,1,180,2022-02-10_12h04.10.165,orientation adjustment 1,2021.2.3,MacIntel,59.99880002,,,,,,,
,,,,,,,,,,,,,,,,,,,,,,-74.44444444,70,20,75,35.55555556,34.44444444,34.44444444,-54.44444444,0.176302083,-0.321332465,1,0,0,0.2163,submitButton,-0.216675347,-0.385881076,0,0,0,1,27,87,54,1,70,69850,1,180,2022-02-10_12h04.10.165,orientation adjustment 1,2021.2.3,MacIntel,59.99880002,,,,,,,
,,,,,,,,,,,,,,,,,,,,,,-46.66666667,28,20,75,32.33333333,4.333333333,4.333333333,-57.66666667,0.20296875,-0.316753472,1,0,0,0.7333,submitButton,-0.189414063,-0.381189236,0,0,0,1,28,88,12,1,28,69850,1,180,2022-02-10_12h04.10.165,orientation adjustment 1,2021.2.3,MacIntel,59.99880002,,,,,,,
,,,,,,,,,,,,,,,,,,,,,,-72.77777778,60,20,75,28.22222222,31.77777778,31.77777778,-61.77777778,0.199418403,-0.269852431,1,0,0,0.6327,submitButton,0.21249566,-0.384765625,1,0,0,1,29,89,44,1,60,69850,1,180,2022-02-10_12h04.10.165,orientation adjustment 1,2021.2.3,MacIntel,59.99880002,pause_continueButton,,,,,,
,,,,,,,,,,,,,,,,,,,,,,71.66666667,16,20,75,218.6666667,22.66666667,22.66666667,128.6666667,0.233498264,-0.296653646,1,0,0,0.0341,submitButton,0.057578125,-0.312955729,0,0,0,1,30,90,0,1,16,69850,1,180,2022-02-10_12h04.10.165,orientation adjustment 1,2021.2.3,MacIntel,59.99880002,,,,,,,
,,,,,,,,,,,,,,,,,,,,,,-69.44444444,57,20,75,37.55555556,19.44444444,19.44444444,-52.44444444,-0.16703559,-0.395486111,1,0,0,1.2327,submitButton,0.007278646,-0.336006944,0,0,0,1,31,91,41,1,57,69850,1,180,2022-02-10_12h04.10.165,orientation adjustment 1,2021.2.3,MacIntel,59.99880002,,,,,,,
,,,,,,,,,,,,,,,,,,,,,,51.66666667,35,20,75,214.6666667,0.333333333,0.333333333,124.6666667,-0.250494792,-0.390989583,1,0,0,2.8829,submitButton,0.166393229,-0.307725694,0,0,0,1,32,92,19,1,35,69850,1,180,2022-02-10_12h04.10.165,orientation adjustment 1,2021.2.3,MacIntel,59.99880002,,,,,,,
,,,,,,,,,,,,,,,,,,,,,,-24.44444444,51,20,75,47.55555556,3.444444444,3.444444444,-42.44444444,-0.245499132,-0.39687934,1,0,0,0.7999,submitButton,0.099279514,-0.303324653,0,0,0,1,33,93,35,1,51,69850,1,180,2022-02-10_12h04.10.165,orientation adjustment 1,2021.2.3,MacIntel,59.99880002,,,,,,,
,,,,,,,,,,,,,,,,,,,,,,55,21,20,75,200,1,1,110,-0.163871528,-0.388025174,1,0,0,2.982,submitButton,0.145451389,-0.312621528,0,0,0,1,34,94,5,1,21,69850,1,180,2022-02-10_12h04.10.165,orientation adjustment 1,2021.2.3,MacIntel,59.99880002,,,,,,,
,,,,,,,,,,,,,,,,,,,,,,31.11111111,-64,20,75,-49.88888889,14.11111111,14.11111111,-139.8888889,0.342361111,-0.265243056,1,0,0,0.4835,submitButton,-0.127291667,-0.389752604,0,0,0,1,35,95,48,1,64,69850,1,180,2022-02-10_12h04.10.165,orientation adjustment 1,2021.2.3,MacIntel,59.99880002,,,,,,,
,,,,,,,,,,,,,,,,,,,,,,24.44444444,-56,20,75,-31.55555556,24.44444444,24.44444444,-121.5555556,-0.129427083,-0.391059028,1,0,0,1.9826,submitButton,-0.129427083,-0.391059028,0,0,0,1,36,96,40,1,56,69850,1,180,2022-02-10_12h04.10.165,orientation adjustment 1,2021.2.3,MacIntel,59.99880002,,,,,,,
,,,,,,,,,,,,,,,,,,,,,,38.33333333,69,20,75,245.3333333,3.666666667,3.666666667,155.3333333,0.193897569,-0.307604167,1,0,0,1.6165,submitButton,0.239908854,-0.251914062,0,0,0,1,37,97,53,1,69,69850,1,180,2022-02-10_12h04.10.165,orientation adjustment 1,2021.2.3,MacIntel,59.99880002,,,,,,,
,,,,,,,,,,,,,,,,,,,,,,-60,63,20,75,34,29,29,-56,-0.234123264,-0.403832465,1,0,0,1.6007,submitButton,0.045434028,-0.296202257,0,0,0,1,38,98,47,1,63,69850,1,180,2022-02-10_12h04.10.165,orientation adjustment 1,2021.2.3,MacIntel,59.99880002,,,,,,,
,,,,,,,,,,,,,,,,,,,,,,-59.44444444,-65,20,75,-204.4444444,40.55555556,40.55555556,-294.4444444,0.390729167,-0.289852431,1,0,0,0.066,submitButton,-0.190828993,-0.386276042,0,0,0,1,39,99,49,1,65,69850,1,180,2022-02-10_12h04.10.165,orientation adjustment 1,2021.2.3,MacIntel,59.99880002,,,,,,,
,,,,,,,,,,,,,,,,,,,,,,66.11111111,73,20,75,212.1111111,40.88888889,40.88888889,122.1111111,-0.210811632,-0.387287326,1,0,0,2.6983,submitButton,-0.210811632,-0.387287326,0,0,0,1,40,100,57,1,73,69850,1,180,2022-02-10_12h04.10.165,orientation adjustment 1,2021.2.3,MacIntel,59.99880002,,,,,,,
,,,,,,,,,,,,,,,,,,,,,,-70,-46,20,75,-107,61,61,-197,0.163051215,-0.292009549,1,0,0,4.1505,submitButton,0.116423611,-0.273875868,0,0,0,1,41,101,30,1,46,69850,1,180,2022-02-10_12h04.10.165,orientation adjustment 1,2021.2.3,MacIntel,59.99880002,,,,,,,
,,,,,,,,,,,,,,,,,,,,,,-44.44444444,22,20,75,34.55555556,12.55555556,12.55555556,-55.44444444,0.194340278,-0.294796007,1,0,0,0.8165,submitButton,0.077248264,-0.27828559,0,0,0,1,42,102,6,1,22,69850,1,180,2022-02-10_12h04.10.165,orientation adjustment 1,2021.2.3,MacIntel,59.99880002,,,,,,,
,,,,,,,,,,,,,,,,,,,,,,65,66,20,75,167,79,79,77,0.203654514,-0.275099826,1,0,0,2.783,submitButton,-0.224830729,-0.373207465,0,0,0,1,43,103,50,1,66,69850,1,180,2022-02-10_12h04.10.165,orientation adjustment 1,2021.2.3,MacIntel,59.99880002,,,,,,,
,,,,,,,,,,,,,,,,,,,,,,33.33333333,-23,20,75,10.33333333,33.33333333,33.33333333,-79.66666667,-0.224830729,-0.373207465,1,0,0,13.7832,submitButton,0.301970486,-0.373294271,1,0,0,1,44,104,7,1,23,69850,1,180,2022-02-10_12h04.10.165,orientation adjustment 1,2021.2.3,MacIntel,59.99880002,pause_continueButton,,,,,,
,,,,,,,,,,,,,,,,,,,,,,64.44444444,48,20,75,203.4444444,24.55555556,24.55555556,113.4444444,-0.154492187,-0.411927083,1,0,0,2.2666,submitButton,0.260299479,-0.247638889,0,0,0,1,45,105,32,1,48,69850,1,180,2022-02-10_12h04.10.165,orientation adjustment 1,2021.2.3,MacIntel,59.99880002,,,,,,,
,,,,,,,,,,,,,,,,,,,,,,75,-43,20,75,-20,23,23,-110,-0.387864583,-0.385659722,1,0,0,2.2493,submitButton,0.216727431,-0.250243056,0,0,0,1,46,106,27,1,43,69850,1,180,2022-02-10_12h04.10.165,orientation adjustment 1,2021.2.3,MacIntel,59.99880002,,,,,,,
,,,,,,,,,,,,,,,,,,,,,,-60,50,20,75,33,17,17,-57,0.216627604,-0.268663194,1,0,0,0.0829,submitButton,0.230546875,-0.196306424,0,0,0,1,47,107,34,1,50,69850,1,180,2022-02-10_12h04.10.165,orientation adjustment 1,2021.2.3,MacIntel,59.99880002,,,,,,,
,,,,,,,,,,,,,,,,,,,,,,37.22222222,19,20,75,34.22222222,15.22222222,15.22222222,-55.77777778,0.38719184,-0.292022569,1,0,0,0.3324,submitButton,0.171688368,-0.203715278,0,0,0,1,48,108,3,1,19,69850,1,180,2022-02-10_12h04.10.165,orientation adjustment 1,2021.2.3,MacIntel,59.99880002,,,,,,,
,,,,,,,,,,,,,,,,,,,,,,-33.33333333,-37,20,75,-198.3333333,18.66666667,18.66666667,-288.3333333,0.400412326,-0.281536458,1,0,0,0.1993,submitButton,0.047482639,-0.234557292,0,0,0,1,49,109,21,1,37,69850,1,180,2022-02-10_12h04.10.165,orientation adjustment 1,2021.2.3,MacIntel,59.99880002,,,,,,,
,,,,,,,,,,,,,,,,,,,,,,-63.88888889,-62,20,75,-185.8888889,56.11111111,56.11111111,-275.8888889,0.15937066,-0.213541667,1,0,0,1.1334,submitButton,0.168411458,-0.29391059,0,0,0,1,50,110,46,1,62,69850,1,180,2022-02-10_12h04.10.165,orientation adjustment 1,2021.2.3,MacIntel,59.99880002,,,,,,,
,,,,,,,,,,,,,,,,,,,,,,28.88888889,54,20,75,220.8888889,13.11111111,13.11111111,130.8888889,-0.180915799,-0.422013889,1,0,0,3.2498,submitButton,0.135078125,-0.290394965,0,0,0,1,51,111,38,1,54,69850,1,180,2022-02-10_12h04.10.165,orientation adjustment 1,2021.2.3,MacIntel,59.99880002,,,,,,,
,,,,,,,,,,,,,,,,,,,,,,-68.33333333,-42,20,75,-206.3333333,15.66666667,15.66666667,-296.3333333,0.391440972,-0.270985243,1,0,0,0.6336,submitButton,-0.011901042,-0.281848958,0,0,0,1,52,112,26,1,42,69850,1,180,2022-02-10_12h04.10.165,orientation adjustment 1,2021.2.3,MacIntel,59.99880002,,,,,,,
,,,,,,,,,,,,,,,,,,,,,,72.77777778,-61,20,75,-36.22222222,24.77777778,24.77777778,-126.2222222,0.395225694,-0.276180556,1,0,0,0.2844,submitButton,-0.165164931,-0.384184028,0,0,0,1,53,113,45,1,61,69850,1,180,2022-02-10_12h04.10.165,orientation adjustment 1,2021.2.3,MacIntel,59.99880002,,,,,,,
,,,,,,,,,,,,,,,,,,,,,,-48.33333333,24,20,75,15.66666667,8.333333333,8.333333333,-74.33333333,0.18093316,-0.313940972,1,0,0,1.0001,submitButton,0.093554687,-0.279435764,0,0,0,1,54,114,8,1,24,69850,1,180,2022-02-10_12h04.10.165,orientation adjustment 1,2021.2.3,MacIntel,59.99880002,,,,,,,
,,,,,,,,,,,,,,,,,,,,,,70,20,20,75,126,74,74,36,0.164149306,-0.288224826,1,0,0,11.9335,submitButton,0.245755208,-0.221054688,0,0,0,1,55,115,4,1,20,69850,1,180,2022-02-10_12h04.10.165,orientation adjustment 1,2021.2.3,MacIntel,59.99880002,,,,,,,
,,,,,,,,,,,,,,,,,,,,,,23.33333333,53,20,75,53.33333333,0.333333333,0.333333333,-36.66666667,0.376896701,-0.289626736,1,0,0,0.2165,submitButton,0.216905382,-0.318949653,0,0,0,1,56,116,37,1,53,69850,1,180,2022-02-10_12h04.10.165,orientation adjustment 1,2021.2.3,MacIntel,59.99880002,,,,,,,
,,,,,,,,,,,,,,,,,,,,,,-55.55555556,-41,20,75,-200.5555556,20.44444444,20.44444444,-290.5555556,0.396167535,-0.299318576,1,0,0,0.5504,submitButton,0.384140625,-0.24984809,0,0,0,1,57,117,25,1,41,69850,1,180,2022-02-10_12h04.10.165,orientation adjustment 1,2021.2.3,MacIntel,59.99880002,,,,,,,
,,,,,,,,,,,,,,,,,,,,,,55,68,20,75,216,32,32,126,-0.242999132,-0.417200521,1,0,0,2.1502,submitButton,0.408480903,-0.238576389,0,0,0,1,58,118,52,1,68,69850,1,180,2022-02-10_12h04.10.165,orientation adjustment 1,2021.2.3,MacIntel,59.99880002,,,,,,,
,,,,,,,,,,,,,,,,,,,,,,75,32,20,75,198,14,14,108,-0.156132812,-0.381059028,1,0,0,2.3512,submitButton,0.412886285,-0.391866319,1,0,0,1,59,119,16,1,32,69850,1,180,2022-02-10_12h04.10.165,orientation adjustment 1,2021.2.3,MacIntel,59.99880002,pause_continueButton,,,,,,
,,,,,,,,,,,,,,,,,,,,,,-29.44444444,24,20,75,22.55555556,1.444444444,1.444444444,-67.44444444,-0.232990451,-0.396957465,1,0,0,1.6003,submitButton,0.256644965,-0.289474826,0,0,0,2,0,120,8,1,24,69850,1,180,2022-02-10_12h04.10.165,orientation adjustment 1,2021.2.3,MacIntel,59.99880002,,,,,,,
,,,,,,,,,,,,,,,,,,,,,,-40,-74,20,75,-206,48,48,-296,-0.109357639,-0.391753472,1,0,0,2.5505,submitButton,0.115690104,-0.307560764,0,0,0,2,1,121,58,1,74,69850,1,180,2022-02-10_12h04.10.165,orientation adjustment 1,2021.2.3,MacIntel,59.99880002,,,,,,,
,,,,,,,,,,,,,,,,,,,,,,-73.33333333,20,20,75,-43.33333333,63.33333333,63.33333333,-133.3333333,0.208732639,-0.292721354,1,0,0,1.7672,submitButton,-0.148519965,-0.392938368,0,0,0,2,2,122,4,1,20,69850,1,180,2022-02-10_12h04.10.165,orientation adjustment 1,2021.2.3,MacIntel,59.99880002,,,,,,,
,,,,,,,,,,,,,,,,,,,,,,-21.66666667,43,20,75,21.33333333,21.66666667,21.66666667,-68.66666667,-0.148519965,-0.392938368,1,0,0,4.5166,submitButton,0.310112847,-0.309969618,0,0,0,2,3,123,27,1,43,69850,1,180,2022-02-10_12h04.10.165,orientation adjustment 1,2021.2.3,MacIntel,59.99880002,,,,,,,
,,,,,,,,,,,,,,,,,,,,,,-31.66666667,50,20,75,40.33333333,9.666666667,9.666666667,-49.66666667,-0.229665799,-0.39843316,1,0,0,0.6161,submitButton,0.188797743,-0.272365451,0,0,0,2,4,124,34,1,50,69850,1,180,2022-02-10_12h04.10.165,orientation adjustment 1,2021.2.3,MacIntel,59.99880002,,,,,,,
,,,,,,,,,,,,,,,,,,,,,,-21.11111111,60,20,75,50.88888889,9.111111111,9.111111111,-39.11111111,-0.231397569,-0.382686632,1,0,0,0.5831,submitButton,0.248133681,-0.327769097,0,0,0,2,5,125,44,1,60,69850,1,180,2022-02-10_12h04.10.165,orientation adjustment 1,2021.2.3,MacIntel,59.99880002,,,,,,,
,,,,,,,,,,,,,,,,,,,,,,33.88888889,69,20,75,210.8888889,38.11111111,38.11111111,120.8888889,-0.200095486,-0.395724826,1,0,0,2.4834,submitButton,0.116792535,-0.253493924,0,0,0,2,6,126,53,1,69,69850,1,180,2022-02-10_12h04.10.165,orientation adjustment 1,2021.2.3,MacIntel,59.99880002,,,,,,,
,,,,,,,,,,,,,,,,,,,,,,-21.66666667,25,20,75,23.33333333,1.666666667,1.666666667,-66.66666667,-0.194127604,-0.381241319,1,0,0,0.9497,submitButton,0.171875,-0.305203993,0,0,0,2,7,127,9,1,25,69850,1,180,2022-02-10_12h04.10.165,orientation adjustment 1,2021.2.3,MacIntel,59.99880002,,,,,,,
,,,,,,,,,,,,,,,,,,,,,,-75,-38,20,75,-219,1,1,-309,0.386128472,-0.289809028,1,0,0,0.2006,submitButton,-0.008190104,-0.329960937,0,0,0,2,8,128,22,1,38,69850,1,180,2022-02-10_12h04.10.165,orientation adjustment 1,2021.2.3,MacIntel,59.99880002,,,,,,,
,,,,,,,,,,,,,,,,,,,,,,-49.44444444,-48,20,75,-221.4444444,6.555555556,6.555555556,-311.4444444,0.384592014,-0.295112847,1,0,0,0.1652,submitButton,-0.172118056,-0.37562066,0,0,0,2,9,129,32,1,48,69850,1,180,2022-02-10_12h04.10.165,orientation adjustment 1,2021.2.3,MacIntel,59.99880002,,,,,,,
,,,,,,,,,,,,,,,,,,,,,,67.22222222,-58,20,75,25.22222222,83.22222222,83.22222222,-64.77777778,0.229006076,-0.297391493,1,0,0,6.5667,submitButton,0.225533854,-0.200724826,0,0,0,2,10,130,42,1,58,69850,1,180,2022-02-10_12h04.10.165,orientation adjustment 1,2021.2.3,MacIntel,59.99880002,,,,,,,
,,,,,,,,,,,,,,,,,,,,,,-49.44444444,36,20,75,19.55555556,16.44444444,16.44444444,-70.44444444,-0.254661458,-0.386467014,1,0,0,0.85,submitButton,0.054960938,-0.304700521,0,0,0,2,11,131,20,1,36,69850,1,180,2022-02-10_12h04.10.165,orientation adjustment 1,2021.2.3,MacIntel,59.99880002,,,,,,,
,,,,,,,,,,,,,,,,,,,,,,46.66666667,45,20,75,197.6666667,27.33333333,27.33333333,107.6666667,-0.235507812,-0.387790799,1,0,0,2.5832,submitButton,0.007530382,-0.297534722,0,0,0,2,12,132,29,1,45,69850,1,180,2022-02-10_12h04.10.165,orientation adjustment 1,2021.2.3,MacIntel,59.99880002,,,,,,,
,,,,,,,,,,,,,,,,,,,,,,22.77777778,-67,20,75,-36.22222222,30.77777778,30.77777778,-126.2222222,0.197126736,-0.288272569,1,0,0,5.2002,submitButton,-0.173502604,-0.401263021,0,0,0,2,13,133,51,1,67,69850,1,180,2022-02-10_12h04.10.165,orientation adjustment 1,2021.2.3,MacIntel,59.99880002,,,,,,,
,,,,,,,,,,,,,,,,,,,,,,-30,-70,20,75,-65,5,5,-155,0.165707465,-0.294114583,1,0,0,7.3848,submitButton,0.365546875,-0.399001736,1,0,0,2,14,134,54,1,70,69850,1,180,2022-02-10_12h04.10.165,orientation adjustment 1,2021.2.3,MacIntel,59.99880002,pause_continueButton,,,,,,
,,,,,,,,,,,,,,,,,,,,,,-46.11111111,18,20,75,18.88888889,0.888888889,0.888888889,-71.11111111,0.227005208,-0.320872396,1,0,0,0.3495,submitButton,0.183519965,-0.267578125,0,0,0,2,15,135,2,1,18,69850,1,180,2022-02-10_12h04.10.165,orientation adjustment 1,2021.2.3,MacIntel,59.99880002,,,,,,,
,,,,,,,,,,,,,,,,,,,,,,68.33333333,-44,20,75,-24.66666667,19.33333333,19.33333333,-114.6666667,-0.253090278,-0.388506944,1,0,0,1.4658,submitButton,0.106467014,-0.267630208,0,0,0,2,16,136,28,1,44,69850,1,180,2022-02-10_12h04.10.165,orientation adjustment 1,2021.2.3,MacIntel,59.99880002,,,,,,,
,,,,,,,,,,,,,,,,,,,,,,36.66666667,-21,20,75,-18.33333333,2.666666667,2.666666667,-108.3333333,-0.346423611,-0.375134549,1,0,0,1.6158,submitButton,0.128259549,-0.274730903,0,0,0,2,17,137,5,1,21,69850,1,180,2022-02-10_12h04.10.165,orientation adjustment 1,2021.2.3,MacIntel,59.99880002,,,,,,,
,,,,,,,,,,,,,,,,,,,,,,27.22222222,-73,20,75,-68.77777778,4.222222222,4.222222222,-158.7777778,0.359600694,-0.284006076,1,0,0,0.0332,submitButton,-0.256462674,-0.377925347,0,0,0,2,18,138,57,1,73,69850,1,180,2022-02-10_12h04.10.165,orientation adjustment 1,2021.2.3,MacIntel,59.99880002,,,,,,,
,,,,,,,,,,,,,,,,,,,,,,25.55555556,57,20,75,132.5555556,75.55555556,75.55555556,42.55555556,0.183524306,-0.307365451,1,0,0,1.2155,submitButton,-0.164474826,-0.374079861,0,0,0,2,19,139,41,1,57,69850,1,180,2022-02-10_12h04.10.165,orientation adjustment 1,2021.2.3,MacIntel,59.99880002,,,,,,,
,,,,,,,,,,,,,,,,,,,,,,38.88888889,-61,20,75,-22.11111111,38.88888889,38.88888889,-112.1111111,-0.164474826,-0.374079861,1,0,0,0.7156,submitButton,0.479704861,-0.2165625,0,0,0,2,20,140,45,1,61,69850,1,180,2022-02-10_12h04.10.165,orientation adjustment 1,2021.2.3,MacIntel,59.99880002,,,,,,,
,,,,,,,,,,,,,,,,,,,,,,58.88888889,68,20,75,216.8888889,31.11111111,31.11111111,126.8888889,0.191536458,-0.289019097,1,0,0,0.5671,submitButton,0.203394097,-0.252009549,0,0,0,2,21,141,52,1,68,69850,1,180,2022-02-10_12h04.10.165,orientation adjustment 1,2021.2.3,MacIntel,59.99880002,,,,,,,
,,,,,,,,,,,,,,,,,,,,,,-37.77777778,39,20,75,35.22222222,3.777777778,3.777777778,-54.77777778,-0.226102431,-0.399288194,1,0,0,1.1336,submitButton,0.208780382,-0.295855035,0,0,0,2,22,142,23,1,39,69850,1,180,2022-02-10_12h04.10.165,orientation adjustment 1,2021.2.3,MacIntel,59.99880002,,,,,,,
,,,,,,,,,,,,,,,,,,,,,,72.22222222,-63,20,75,-29.77777778,33.22222222,33.22222222,-119.7777778,-0.202022569,-0.380381944,1,0,0,1.4831,submitButton,0.099822049,-0.28078125,0,0,0,2,23,143,47,1,63,69850,1,180,2022-02-10_12h04.10.165,orientation adjustment 1,2021.2.3,MacIntel,59.99880002,,,,,,,
,,,,,,,,,,,,,,,,,,,,,,58.33333333,54,20,75,213.3333333,20.66666667,20.66666667,123.3333333,-0.107139757,-0.374301215,1,0,0,3.4509,submitButton,-0.022608507,-0.357986111,0,0,0,2,24,144,38,1,54,69850,1,180,2022-02-10_12h04.10.165,orientation adjustment 1,2021.2.3,MacIntel,59.99880002,,,,,,,
,,,,,,,,,,,,,,,,,,,,,,-58.88888889,47,20,75,47.11111111,0.111111111,0.111111111,-42.88888889,0.160551215,-0.314253472,1,0,0,4.3163,submitButton,0.320976563,-0.300789931,0,0,0,2,25,145,31,1,47,69850,1,180,2022-02-10_12h04.10.165,orientation adjustment 1,2021.2.3,MacIntel,59.99880002,,,,,,,
,,,,,,,,,,,,,,,,,,,,,,57.77777778,-56,20,75,-34.22222222,21.77777778,21.77777778,-124.2222222,-0.282890625,-0.419522569,1,0,0,1.1013,submitButton,0.262569444,-0.329348958,0,0,0,2,26,146,40,1,56,69850,1,180,2022-02-10_12h04.10.165,orientation adjustment 1,2021.2.3,MacIntel,59.99880002,,,,,,,
,,,,,,,,,,,,,,,,,,,,,,-28.88888889,-32,20,75,-190.8888889,21.11111111,21.11111111,-280.8888889,-0.233133681,-0.391310764,1,0,0,2.9834,submitButton,0.009075521,-0.341475694,0,0,0,2,27,147,16,1,32,69850,1,180,2022-02-10_12h04.10.165,orientation adjustment 1,2021.2.3,MacIntel,59.99880002,,,,,,,
,,,,,,,,,,,,,,,,,,,,,,-70.55555556,-53,20,75,-211.5555556,21.44444444,21.44444444,-301.5555556,-0.237786458,-0.402764757,1,0,0,2.1004,submitButton,0.053255208,-0.280763889,0,0,0,2,28,148,37,1,53,69850,1,180,2022-02-10_12h04.10.165,orientation adjustment 1,2021.2.3,MacIntel,59.99880002,,,,,,,
,,,,,,,,,,,,,,,,,,,,,,39.44444444,-64,20,75,-52.55555556,11.44444444,11.44444444,-142.5555556,-0.252638889,-0.383680556,0,0,1,2.361,submitButton,0.310685764,-0.400859375,1,0,1,2,29,149,48,1,64,69850,1,180,2022-02-10_12h04.10.165,orientation adjustment 1,2021.2.3,MacIntel,59.99880002,pause_continueButton,,,,,,
,,,,,,,,,,,,,,,,,,,,,,-70,66,20,75,106,40,40,16,0.213368056,-0.310394965,0,0,1,0.1501,submitButton,0.386671007,-0.277929688,0,0,1,2,30,150,50,1,66,69850,1,180,2022-02-10_12h04.10.165,orientation adjustment 1,2021.2.3,MacIntel,59.99880002,,,,,,,
,,,,,,,,,,,,,,,,,,,,,,-46.66666667,-17,20,75,-137.6666667,59.33333333,59.33333333,-227.6666667,0.210269097,-0.303328993,1,0,1,1.4171,submitButton,-0.079427083,-0.374895833,0,0,1,2,31,151,1,1,17,69850,1,180,2022-02-10_12h04.10.165,orientation adjustment 1,2021.2.3,MacIntel,59.99880002,,,,,,,
,,,,,,,,,,,,,,,,,,,,,,-58.88888889,-29,20,75,-17.88888889,11.11111111,11.11111111,-107.8888889,0.200833333,-0.317981771,1,0,1,1.7826,submitButton,0.261818576,-0.37327691,0,0,1,2,32,152,13,1,29,69850,1,180,2022-02-10_12h04.10.165,orientation adjustment 1,2021.2.3,MacIntel,59.99880002,,,,,,,
,,,,,,,,,,,,,,,,,,,,,,-38.33333333,-62,20,75,3.666666667,65.66666667,65.66666667,-86.33333333,-0.175477431,-0.391293403,1,0,1,5.7853,submitButton,-0.140212674,-0.358415799,0,0,1,2,33,153,46,1,62,69850,1,180,2022-02-10_12h04.10.165,orientation adjustment 1,2021.2.3,MacIntel,59.99880002,,,,,,,
,,,,,,,,,,,,,,,,,,,,,,-37.22222222,19,20,75,15.77777778,3.222222222,3.222222222,-74.22222222,-0.261219618,-0.389852431,1,0,1,1.9179,submitButton,-0.053663194,-0.332591146,0,0,1,2,34,154,3,1,19,69850,1,180,2022-02-10_12h04.10.165,orientation adjustment 1,2021.2.3,MacIntel,59.99880002,,,,,,,
,,,,,,,,,,,,,,,,,,,,,,30.55555556,46,20,75,222.5555556,3.444444444,3.444444444,132.5555556,-0.235329861,-0.400993924,1,0,1,2.9498,submitButton,-0.235329861,-0.400993924,0,0,1,2,35,155,30,1,46,69850,1,180,2022-02-10_12h04.10.165,orientation adjustment 1,2021.2.3,MacIntel,59.99880002,,,,,,,
,,,,,,,,,,,,,,,,,,,,,,24.44444444,-51,20,75,61.44444444,67.55555556,67.55555556,-28.55555556,-0.203871528,-0.395099826,1,0,1,2.249,submitButton,-0.203871528,-0.395099826,0,0,1,2,36,156,35,1,51,69850,1,180,2022-02-10_12h04.10.165,orientation adjustment 1,2021.2.3,MacIntel,59.99880002,,,,,,,
,,,,,,,,,,,,,,,,,,,,,,37.77777778,-40,20,75,-38.22222222,1.777777778,1.777777778,-128.2222222,-0.068485243,-0.395603299,1,0,1,4.201,submitButton,-0.151540799,-0.412269965,0,0,1,2,37,157,24,1,40,69850,1,180,2022-02-10_12h04.10.165,orientation adjustment 1,2021.2.3,MacIntel,59.99880002,,,,,,,
,,,,,,,,,,,,,,,,,,,,,,41.66666667,-49,20,75,75.66666667,55.33333333,55.33333333,-14.33333333,0.20516059,-0.283411458,1,0,1,0.9325,submitButton,0.268563368,-0.243181424,0,0,1,2,38,158,33,1,49,69850,1,180,2022-02-10_12h04.10.165,orientation adjustment 1,2021.2.3,MacIntel,59.99880002,,,,,,,
,,,,,,,,,,,,,,,,,,,,,,-34.44444444,28,20,75,28.55555556,0.555555556,0.555555556,-61.44444444,-0.138988715,-0.385659722,1,0,1,1.2335,submitButton,-0.116996528,-0.377491319,0,0,1,2,39,159,12,1,28,69850,1,180,2022-02-10_12h04.10.165,orientation adjustment 1,2021.2.3,MacIntel,59.99880002,,,,,,,
,,,,,,,,,,,,,,,,,,,,,,-75,-23,20,75,-194,9,9,-284,-0.148537326,-0.426050347,1,0,1,7.9836,submitButton,-0.006866319,-0.369149306,0,0,1,2,40,160,7,1,23,69850,1,180,2022-02-10_12h04.10.165,orientation adjustment 1,2021.2.3,MacIntel,59.99880002,,,,,,,
,,,,,,,,,,,,,,,,,,,,,,45,-35,20,75,-24,11,11,-114,-0.184457465,-0.399717882,1,0,1,1.5336,submitButton,0.028550347,-0.302916667,0,0,1,2,41,161,19,1,35,69850,1,180,2022-02-10_12h04.10.165,orientation adjustment 1,2021.2.3,MacIntel,59.99880002,,,,,,,
,,,,,,,,,,,,,,,,,,,,,,45,65,20,75,208,37,37,118,-0.227105035,-0.379479167,1,0,1,2.6669,submitButton,0.01187066,-0.309075521,0,0,1,2,42,162,49,1,65,69850,1,180,2022-02-10_12h04.10.165,orientation adjustment 1,2021.2.3,MacIntel,59.99880002,,,,,,,
,,,,,,,,,,,,,,,,,,,,,,-31.11111111,34,20,75,-77.11111111,68.88888889,68.88888889,-167.1111111,-0.251892361,-0.390199653,1,0,1,4.3002,submitButton,-0.110416667,-0.281362847,0,0,1,2,43,163,18,1,34,69850,1,180,2022-02-10_12h04.10.165,orientation adjustment 1,2021.2.3,MacIntel,59.99880002,,,,,,,
,,,,,,,,,,,,,,,,,,,,,,21.11111111,26,20,75,194.1111111,11.88888889,11.88888889,104.1111111,-0.296610243,-0.395607639,1,0,1,7.4176,submitButton,0.288550347,-0.372751736,1,0,1,2,44,164,10,1,26,69850,1,180,2022-02-10_12h04.10.165,orientation adjustment 1,2021.2.3,MacIntel,59.99880002,pause_continueButton,,,,,,
,,,,,,,,,,,,,,,,,,,,,,42.22222222,31,20,75,9.222222222,21.77777778,21.77777778,-80.77777778,-0.230742188,-0.377578125,1,0,1,1.1162,submitButton,-0.269592014,-0.32577691,0,0,1,2,45,165,15,1,31,69850,1,180,2022-02-10_12h04.10.165,orientation adjustment 1,2021.2.3,MacIntel,59.99880002,,,,,,,
,,,,,,,,,,,,,,,,,,,,,,73.33333333,42,20,75,192.3333333,29.66666667,29.66666667,102.3333333,-0.398068576,-0.439709201,1,0,1,0.8826,submitButton,0.211115451,-0.350846354,0,0,1,2,46,166,26,1,42,69850,1,180,2022-02-10_12h04.10.165,orientation adjustment 1,2021.2.3,MacIntel,59.99880002,,,,,,,
,,,,,,,,,,,,,,,,,,,,,,-37.22222222,-41,20,75,-196.2222222,24.77777778,24.77777778,-286.2222222,-0.286618924,-0.418719618,1,0,1,2.199,submitButton,-0.115703125,-0.341584201,0,0,1,2,47,167,25,1,41,69850,1,180,2022-02-10_12h04.10.165,orientation adjustment 1,2021.2.3,MacIntel,59.99880002,,,,,,,
,,,,,,,,,,,,,,,,,,,,,,-47.22222222,-75,20,75,-4.222222222,70.77777778,70.77777778,-94.22222222,-0.269014757,-0.391736111,1,0,1,2.3343,submitButton,0.110421007,-0.147829861,0,0,1,2,48,168,59,1,75,69850,1,180,2022-02-10_12h04.10.165,orientation adjustment 1,2021.2.3,MacIntel,59.99880002,,,,,,,
,,,,,,,,,,,,,,,,,,,,,,27.77777778,-72,20,75,-201.2222222,50.77777778,50.77777778,-291.2222222,-0.246649306,-0.441727431,1,0,1,3.7501,submitButton,-0.220894097,-0.368389757,0,0,1,2,49,169,56,1,72,69850,1,180,2022-02-10_12h04.10.165,orientation adjustment 1,2021.2.3,MacIntel,59.99880002,,,,,,,
,,,,,,,,,,,,,,,,,,,,,,74.44444444,-37,20,75,-37.55555556,0.555555556,0.555555556,-127.5555556,-0.346458333,-0.398532986,1,0,1,2.3822,submitButton,0.127625868,-0.026792535,0,0,1,2,50,170,21,1,37,69850,1,180,2022-02-10_12h04.10.165,orientation adjustment 1,2021.2.3,MacIntel,59.99880002,,,,,,,
,,,,,,,,,,,,,,,,,,,,,,44.44444444,22,20,75,205.4444444,3.444444444,3.444444444,115.4444444,-0.217699653,-0.431180556,1,0,1,5.2165,submitButton,0.081892361,-0.166436632,0,0,1,2,51,171,6,1,22,69850,1,180,2022-02-10_12h04.10.165,orientation adjustment 1,2021.2.3,MacIntel,59.99880002,,,,,,,
,,,,,,,,,,,,,,,,,,,,,,-62.22222222,-52,20,75,-206.2222222,25.77777778,25.77777778,-296.2222222,-0.306809896,-0.393033854,1,0,1,2.8166,submitButton,-0.084114583,-0.127886285,0,0,1,2,52,172,36,1,52,69850,1,180,2022-02-10_12h04.10.165,orientation adjustment 1,2021.2.3,MacIntel,59.99880002,,,,,,,
,,,,,,,,,,,,,,,,,,,,,,49.44444444,55,20,75,205.4444444,29.55555556,29.55555556,115.4444444,-0.300798611,-0.384978299,1,0,1,2.982,submitButton,-0.300798611,-0.384978299,0,0,1,2,53,173,39,1,55,69850,1,180,2022-02-10_12h04.10.165,orientation adjustment 1,2021.2.3,MacIntel,59.99880002,,,,,,,
,,,,,,,,,,,,,,,,,,,,,,34.44444444,59,20,75,210.4444444,28.55555556,28.55555556,120.4444444,-0.248142361,-0.39905816,1,0,1,2.5174,submitButton,-0.248142361,-0.400104167,0,0,1,2,54,174,43,1,59,69850,1,180,2022-02-10_12h04.10.165,orientation adjustment 1,2021.2.3,MacIntel,59.99880002,,,,,,,
,,,,,,,,,,,,,,,,,,,,,,55.55555556,-33,20,75,-40.44444444,7.444444444,7.444444444,-130.4444444,-0.339626736,-0.394305556,1,0,1,2.9335,submitButton,-0.340143229,-0.394305556,0,0,1,2,55,175,17,1,33,69850,1,180,2022-02-10_12h04.10.165,orientation adjustment 1,2021.2.3,MacIntel,59.99880002,,,,,,,
,,,,,,,,,,,,,,,,,,,,,,-71.11111111,27,20,75,31.88888889,4.888888889,4.888888889,-58.11111111,-0.226419271,-0.398198785,1,0,1,1.668,submitButton,-0.226419271,-0.398198785,0,0,1,2,56,176,11,1,27,69850,1,180,2022-02-10_12h04.10.165,orientation adjustment 1,2021.2.3,MacIntel,59.99880002,,,,,,,
,,,,,,,,,,,,,,,,,,,,,,-20.55555556,16,20,75,33.44444444,17.44444444,17.44444444,-56.55555556,-0.335998264,-0.393046875,1,0,1,2.1839,submitButton,0.127278646,-0.257569444,0,0,1,2,57,177,0,1,16,69850,1,180,2022-02-10_12h04.10.165,orientation adjustment 1,2021.2.3,MacIntel,59.99880002,,,,,,,
,,,,,,,,,,,,,,,,,,,,,,-33.33333333,71,20,75,82.66666667,11.66666667,11.66666667,-7.333333333,-0.16187934,-0.418020833,1,0,1,0.6671,submitButton,0.067947049,-0.220564236,0,0,1,2,58,178,55,1,71,69850,1,180,2022-02-10_12h04.10.165,orientation adjustment 1,2021.2.3,MacIntel,59.99880002,,,,,,,
,,,,,,,,,,,,,,,,,,,,,,43.88888889,-30,20,75,34.88888889,64.88888889,64.88888889,-55.11111111,-0.164123264,-0.389162326,1,0,1,2.1505,submitButton,-0.164097222,-0.386597222,0,0,1,2,59,179,14,1,30,69850,1,180,2022-02-10_12h04.10.165,orientation adjustment 1,2021.2.3,MacIntel,59.99880002,,,,,,,
,,,,,,,,,,,,,,,,,,,,,,,,,,,,,,,,,,,,,,,,,,,,,,,,69850,1,180,2022-02-10_12h04.10.165,orientation adjustment 1,2021.2.3,MacIntel,59.99880002,,0.410416667,-0.389405382,1,0,1,EndButtonTxt
