consentMouse1.x,consentMouse1.y,consentMouse1.leftButton,consentMouse1.midButton,consentMouse1.rightButton,consentMouse1.clicked_name,consent_Mouse.x,consent_Mouse.y,consent_Mouse.leftButton,consent_Mouse.midButton,consent_Mouse.rightButton,consent_Mouse.clicked_name,startMouse.x,startMouse.y,startMouse.leftButton,startMouse.midButton,startMouse.rightButton,startMouse_2.x,startMouse_2.y,startMouse_2.leftButton,startMouse_2.midButton,startMouse_2.rightButton,start_distance,fixedOri,minimalDistance,maxOri,this_ori,accuracy,presented_accuracy,presented_this_ori,submitMouse.x,submitMouse.y,submitMouse.leftButton,submitMouse.midButton,submitMouse.rightButton,submitMouse.time,submitMouse.clicked_name,pauseMouse.x,pauseMouse.y,pauseMouse.leftButton,pauseMouse.midButton,pauseMouse.rightButton,trials.thisRepN,trials.thisTrialN,trials.thisN,trials.thisIndex,trials.ran,startOri,participant,condition,nTrials,date,expName,psychopyVersion,OS,frameRate,pauseMouse.clicked_name,EndButtonMouse.x,EndButtonMouse.y,EndButtonMouse.leftButton,EndButtonMouse.midButton,EndButtonMouse.rightButton,EndButtonMouse.clicked_name
0.362963,-0.400925953,1,0,0,consent_button1,0.404629668,-0.398148175,1,0,0,consent_button,0.155555587,-0.243518597,1,0,0,0.102777807,-0.356481507,1,0,0,47.77777778,54,20,75,178.7777778,55.22222222,55.22222222,88.77777778,0.213888922,-0.301851932,1,0,0,3.7615,submitButton,-0.036111086,-0.319444469,0,0,0,0,0,0,38,1,54,69862,1,180,2022-02-10_11h33.57.306,orientation adjustment 1,2021.2.3,Win32,60.93845216,,,,,,,
,,,,,,,,,,,,,,,,,,,,,,47.22222222,60,20,75,236.2222222,3.777777778,3.777777778,146.2222222,0.183333365,-0.306481506,1,0,0,0.13,submitButton,-0.454629588,-0.40833336,0,0,0,0,1,1,44,1,60,69862,1,180,2022-02-10_11h33.57.306,orientation adjustment 1,2021.2.3,Win32,60.93845216,,,,,,,
,,,,,,,,,,,,,,,,,,,,,,-45.55555556,53,20,75,30.44444444,22.55555556,22.55555556,-59.55555556,-0.26388887,-0.412037064,1,0,0,1.3983,submitButton,-0.26388887,-0.412037064,0,0,0,0,2,2,37,1,53,69862,1,180,2022-02-10_11h33.57.306,orientation adjustment 1,2021.2.3,Win32,60.93845216,,,,,,,
,,,,,,,,,,,,,,,,,,,,,,61.11111111,45,20,75,205.1111111,19.88888889,19.88888889,115.1111111,0.230555589,-0.296296377,1,0,0,1.1327,submitButton,-0.188888868,-0.405555583,0,0,0,0,3,3,29,1,45,69862,1,180,2022-02-10_11h33.57.306,orientation adjustment 1,2021.2.3,Win32,60.93845216,,,,,,,
,,,,,,,,,,,,,,,,,,,,,,-31.11111111,-55,20,75,-46.11111111,8.888888889,8.888888889,-136.1111111,0.217592626,-0.290740821,1,0,0,1.5986,submitButton,-0.317592576,-0.405555583,0,0,0,0,4,4,39,1,55,69862,1,180,2022-02-10_11h33.57.306,orientation adjustment 1,2021.2.3,Win32,60.93845216,,,,,,,
,,,,,,,,,,,,,,,,,,,,,,31.66666667,71,20,75,76.66666667,5.666666667,5.666666667,-13.33333333,0.221296329,-0.296296377,1,0,0,1.1158,submitButton,-0.135185163,-0.397222249,0,0,0,0,5,5,55,1,71,69862,1,180,2022-02-10_11h33.57.306,orientation adjustment 1,2021.2.3,Win32,60.93845216,,,,,,,
,,,,,,,,,,,,,,,,,,,,,,-55.55555556,67,20,75,48.44444444,18.55555556,18.55555556,-41.55555556,0.181481513,-0.293518599,1,0,0,0.5338,submitButton,-0.226851832,-0.399074157,0,0,0,0,6,6,51,1,67,69862,1,180,2022-02-10_11h33.57.306,orientation adjustment 1,2021.2.3,Win32,60.93845216,,,,,,,
,,,,,,,,,,,,,,,,,,,,,,72.77777778,27,20,75,27.77777778,0.777777778,0.777777778,-62.22222222,0.354629667,-0.296296377,1,0,0,0.4824,submitButton,-0.233333314,-0.387037063,0,0,0,0,7,7,11,1,27,69862,1,180,2022-02-10_11h33.57.306,orientation adjustment 1,2021.2.3,Win32,60.93845216,,,,,,,
,,,,,,,,,,,,,,,,,,,,,,72.77777778,-36,20,75,-20.22222222,15.77777778,15.77777778,-110.2222222,0.423148187,-0.28703706,1,0,0,0.8159,submitButton,-0.192592572,-0.400000027,1,0,0,0,8,8,20,1,36,69862,1,180,2022-02-10_11h33.57.306,orientation adjustment 1,2021.2.3,Win32,60.93845216,,,,,,,
,,,,,,,,,,,,,,,,,,,,,,-27.77777778,48,20,75,46.22222222,1.777777778,1.777777778,-43.77777778,0.197222255,-0.287963043,1,0,0,0.2151,submitButton,-0.218518499,-0.393518602,0,0,0,0,9,9,32,1,48,69862,1,180,2022-02-10_11h33.57.306,orientation adjustment 1,2021.2.3,Win32,60.93845216,,,,,,,
,,,,,,,,,,,,,,,,,,,,,,23.88888889,-57,20,75,-46.11111111,10.88888889,10.88888889,-136.1111111,0.391666705,-0.30555558,1,0,0,0.2826,submitButton,-0.154629608,-0.395370397,0,0,0,0,10,10,41,1,57,69862,1,180,2022-02-10_11h33.57.306,orientation adjustment 1,2021.2.3,Win32,60.93845216,,,,,,,
,,,,,,,,,,,,,,,,,,,,,,66.66666667,66,20,75,236.6666667,9.333333333,9.333333333,146.6666667,0.179629661,-0.29166669,1,0,0,0.4325,submitButton,-0.369444429,-0.393518602,0,0,0,0,11,11,50,1,66,69862,1,180,2022-02-10_11h33.57.306,orientation adjustment 1,2021.2.3,Win32,60.93845216,,,,,,,
,,,,,,,,,,,,,,,,,,,,,,-31.11111111,61,20,75,54.88888889,6.111111111,6.111111111,-35.11111111,0.203703736,-0.294444468,1,0,0,0.3498,submitButton,-0.225925906,-0.377777804,0,0,0,0,12,12,45,1,61,69862,1,180,2022-02-10_11h33.57.306,orientation adjustment 1,2021.2.3,Win32,60.93845216,,,,,,,
,,,,,,,,,,,,,,,,,,,,,,66.66666667,70,20,75,71.66666667,1.666666667,1.666666667,-18.33333333,0.37685189,-0.297222246,1,0,0,0.4823,submitButton,-0.159259181,-0.39629638,0,0,0,0,13,13,54,1,70,69862,1,180,2022-02-10_11h33.57.306,orientation adjustment 1,2021.2.3,Win32,60.93845216,,,,,,,
,,,,,,,,,,,,,,,,,,,,,,-58.88888889,25,20,75,20.11111111,4.888888889,4.888888889,-69.88888889,0.221296329,-0.30555558,1,0,0,0.2492,submitButton,0.342592629,-0.391666693,1,0,0,0,14,14,9,1,25,69862,1,180,2022-02-10_11h33.57.306,orientation adjustment 1,2021.2.3,Win32,60.93845216,pause_continueButton,,,,,,
,,,,,,,,,,,,,,,,,,,,,,-70.55555556,52,20,75,35.44444444,16.55555556,16.55555556,-54.55555556,0.209259292,-0.294444468,1,0,0,0.2286,submitButton,-0.191666646,-0.38333336,0,0,0,0,15,15,36,1,52,69862,1,180,2022-02-10_11h33.57.306,orientation adjustment 1,2021.2.3,Win32,60.93845216,,,,,,,
,,,,,,,,,,,,,,,,,,,,,,36.66666667,29,20,75,26.66666667,2.333333333,2.333333333,-63.33333333,0.356481519,-0.284259283,1,0,0,0.3723,submitButton,-0.165740719,-0.399074157,0,0,0,0,16,16,13,1,29,69862,1,180,2022-02-10_11h33.57.306,orientation adjustment 1,2021.2.3,Win32,60.93845216,,,,,,,
,,,,,,,,,,,,,,,,,,,,,,43.33333333,43,20,75,40.33333333,2.666666667,2.666666667,-49.66666667,0.425925965,-0.292592616,1,0,0,0.5823,submitButton,-0.149999978,-0.395370397,0,0,0,0,17,17,27,1,43,69862,1,180,2022-02-10_11h33.57.306,orientation adjustment 1,2021.2.3,Win32,60.93845216,,,,,,,
,,,,,,,,,,,,,,,,,,,,,,27.77777778,-72,20,75,-57.22222222,14.77777778,14.77777778,-147.2222222,0.404629668,-0.284259283,1,0,0,0.7164,submitButton,-0.162962941,-0.403703731,0,0,0,0,18,18,56,1,72,69862,1,180,2022-02-10_11h33.57.306,orientation adjustment 1,2021.2.3,Win32,60.93845216,,,,,,,
,,,,,,,,,,,,,,,,,,,,,,52.22222222,63,20,75,68.22222222,5.222222222,5.222222222,-21.77777778,0.353703741,-0.278703727,1,0,0,0.4492,submitButton,-0.165740719,-0.397222249,0,0,0,0,19,19,47,1,63,69862,1,180,2022-02-10_11h33.57.306,orientation adjustment 1,2021.2.3,Win32,60.93845216,,,,,,,
,,,,,,,,,,,,,,,,,,,,,,66.11111111,-17,20,75,-23.88888889,6.888888889,6.888888889,-113.8888889,0.37685189,-0.278703727,1,0,0,0.6328,submitButton,-0.203703683,-0.394444471,0,0,0,0,20,20,1,1,17,69862,1,180,2022-02-10_11h33.57.306,orientation adjustment 1,2021.2.3,Win32,60.93845216,,,,,,,
,,,,,,,,,,,,,,,,,,,,,,-74.44444444,-59,20,75,-66.44444444,7.444444444,7.444444444,-156.4444444,0.182407439,-0.286111135,1,0,0,0.3823,submitButton,-0.162036959,-0.398148175,0,0,0,0,21,21,43,1,59,69862,1,180,2022-02-10_11h33.57.306,orientation adjustment 1,2021.2.3,Win32,60.93845216,,,,,,,
,,,,,,,,,,,,,,,,,,,,,,-59.44444444,34,20,75,38.55555556,4.555555556,4.555555556,-51.44444444,0.213888922,-0.308333357,1,0,0,0.1832,submitButton,-0.303703686,-0.40833336,0,0,0,0,22,22,18,1,34,69862,1,180,2022-02-10_11h33.57.306,orientation adjustment 1,2021.2.3,Win32,60.93845216,,,,,,,
,,,,,,,,,,,,,,,,,,,,,,-52.77777778,-58,20,75,-232.7777778,5.222222222,5.222222222,-322.7777778,0.417592632,-0.296296377,1,0,0,1.4818,submitButton,-0.191666646,-0.405555583,0,0,0,0,23,23,42,1,58,69862,1,180,2022-02-10_11h33.57.306,orientation adjustment 1,2021.2.3,Win32,60.93845216,,,,,,,
,,,,,,,,,,,,,,,,,,,,,,72.22222222,-44,20,75,-41.77777778,2.222222222,2.222222222,-131.7777778,0.378703741,-0.300000024,1,0,0,0.3329,submitButton,-0.25925924,-0.404629713,0,0,0,0,24,24,28,1,44,69862,1,180,2022-02-10_11h33.57.306,orientation adjustment 1,2021.2.3,Win32,60.93845216,,,,,,,
,,,,,,,,,,,,,,,,,,,,,,52.22222222,22,20,75,209.2222222,7.222222222,7.222222222,119.2222222,0.192592625,-0.283333357,1,0,0,0.1002,submitButton,0.520370412,-0.244444467,0,0,0,0,25,25,6,1,22,69862,1,180,2022-02-10_11h33.57.306,orientation adjustment 1,2021.2.3,Win32,60.93845216,,,,,,,
,,,,,,,,,,,,,,,,,,,,,,71.66666667,51,20,75,51.66666667,0.666666667,0.666666667,-38.33333333,0.435185225,-0.283333357,1,0,0,0.1336,submitButton,-0.204629609,-0.40833336,0,0,0,0,26,26,35,1,51,69862,1,180,2022-02-10_11h33.57.306,orientation adjustment 1,2021.2.3,Win32,60.93845216,,,,,,,
,,,,,,,,,,,,,,,,,,,,,,35,31,20,75,39,8,8,-51,0.389814853,-0.314814839,1,0,0,0.2662,submitButton,-0.024074048,-0.335185267,0,0,0,0,27,27,15,1,31,69862,1,180,2022-02-10_11h33.57.306,orientation adjustment 1,2021.2.3,Win32,60.93845216,,,,,,,
,,,,,,,,,,,,,,,,,,,,,,-67.77777778,26,20,75,-153.7777778,0.222222222,0.222222222,-243.7777778,0.409259298,-0.306481506,1,0,0,0.9826,submitButton,-0.13425918,-0.409259286,0,0,0,0,28,28,10,1,26,69862,1,180,2022-02-10_11h33.57.306,orientation adjustment 1,2021.2.3,Win32,60.93845216,,,,,,,
,,,,,,,,,,,,,,,,,,,,,,-22.77777778,-73,20,75,-56.77777778,16.22222222,16.22222222,-146.7777778,0.400000038,-0.283333357,1,0,0,0.05,submitButton,0.432407447,-0.400000027,1,0,0,0,29,29,57,1,73,69862,1,180,2022-02-10_11h33.57.306,orientation adjustment 1,2021.2.3,Win32,60.93845216,pause_continueButton,,,,,,
,,,,,,,,,,,,,,,,,,,,,,59.44444444,-75,20,75,-77.55555556,2.555555556,2.555555556,-167.5555556,0.416666706,-0.301851932,1,0,0,0.1836,submitButton,-0.121296273,-0.413888916,0,0,0,0,30,30,59,1,75,69862,1,180,2022-02-10_11h33.57.306,orientation adjustment 1,2021.2.3,Win32,60.93845216,,,,,,,
,,,,,,,,,,,,,,,,,,,,,,37.22222222,65,20,75,59.22222222,5.777777778,5.777777778,-30.77777778,0.205555588,-0.295370394,1,0,0,0.7489,submitButton,0.01759262,-0.348148173,0,0,0,0,31,31,49,1,65,69862,1,180,2022-02-10_11h33.57.306,orientation adjustment 1,2021.2.3,Win32,60.93845216,,,,,,,
,,,,,,,,,,,,,,,,,,,,,,62.22222222,-18,20,75,-27.77777778,9.777777778,9.777777778,-117.7777778,0.399074112,-0.297222246,1,0,0,1.3813,submitButton,-0.180555534,-0.392592619,0,0,0,0,32,32,2,1,18,69862,1,180,2022-02-10_11h33.57.306,orientation adjustment 1,2021.2.3,Win32,60.93845216,,,,,,,
,,,,,,,,,,,,,,,,,,,,,,40,33,20,75,42,9,9,-48,0.182407439,-0.320370395,1,0,0,0.0173,submitButton,-0.212037017,-0.404629713,0,0,0,0,33,33,17,1,33,69862,1,180,2022-02-10_11h33.57.306,orientation adjustment 1,2021.2.3,Win32,60.93845216,,,,,,,
,,,,,,,,,,,,,,,,,,,,,,-57.22222222,69,20,75,62.77777778,6.222222222,6.222222222,-27.22222222,0.355555593,-0.290740821,1,0,0,0.5499,submitButton,-0.185185164,-0.389814841,0,0,0,0,34,34,53,1,69,69862,1,180,2022-02-10_11h33.57.306,orientation adjustment 1,2021.2.3,Win32,60.93845216,,,,,,,
,,,,,,,,,,,,,,,,,,,,,,-42.22222222,64,20,75,78.77777778,14.77777778,14.77777778,-11.22222222,0.222222255,-0.294444468,1,0,0,0.5169,submitButton,-0.274074056,-0.40833336,0,0,0,0,35,35,48,1,64,69862,1,180,2022-02-10_11h33.57.306,orientation adjustment 1,2021.2.3,Win32,60.93845216,,,,,,,
,,,,,,,,,,,,,,,,,,,,,,-73.33333333,-16,20,75,-219.3333333,23.33333333,23.33333333,-309.3333333,0.377777816,-0.286111135,1,0,0,0.2997,submitButton,-0.233333314,-0.425925954,0,0,0,0,36,36,0,1,16,69862,1,180,2022-02-10_11h33.57.306,orientation adjustment 1,2021.2.3,Win32,60.93845216,,,,,,,
,,,,,,,,,,,,,,,,,,,,,,-58.88888889,68,20,75,71.11111111,3.111111111,3.111111111,-18.88888889,0.198148181,-0.301851932,1,0,0,0.3671,submitButton,-0.204629609,-0.416666694,0,0,0,0,37,37,52,1,68,69862,1,180,2022-02-10_11h33.57.306,orientation adjustment 1,2021.2.3,Win32,60.93845216,,,,,,,
,,,,,,,,,,,,,,,,,,,,,,-44.44444444,19,20,75,34.55555556,15.55555556,15.55555556,-55.44444444,0.191666699,-0.30462971,1,0,0,0.4323,submitButton,-0.208333313,-0.401851935,0,0,0,0,38,38,3,1,19,69862,1,180,2022-02-10_11h33.57.306,orientation adjustment 1,2021.2.3,Win32,60.93845216,,,,,,,
,,,,,,,,,,,,,,,,,,,,,,48.33333333,-39,20,75,-34.66666667,4.333333333,4.333333333,-124.6666667,0.371296334,-0.278703727,1,0,0,0.4843,submitButton,-0.136111089,-0.40833336,0,0,0,0,39,39,23,1,39,69862,1,180,2022-02-10_11h33.57.306,orientation adjustment 1,2021.2.3,Win32,60.93845216,,,,,,,
,,,,,,,,,,,,,,,,,,,,,,-38.33333333,49,20,75,45.66666667,3.333333333,3.333333333,-44.33333333,-0.287962945,-0.418518602,1,0,0,1.2821,submitButton,0.254629664,-0.29166669,0,0,0,0,40,40,33,1,49,69862,1,180,2022-02-10_11h33.57.306,orientation adjustment 1,2021.2.3,Win32,60.93845216,,,,,,,
,,,,,,,,,,,,,,,,,,,,,,-35.55555556,24,20,75,22.44444444,1.555555556,1.555555556,-67.55555556,-0.149074052,-0.375925952,1,0,0,1.0321,submitButton,-0.149074052,-0.375925952,0,0,0,0,41,41,8,1,24,69862,1,180,2022-02-10_11h33.57.306,orientation adjustment 1,2021.2.3,Win32,60.93845216,,,,,,,
,,,,,,,,,,,,,,,,,,,,,,47.77777778,-62,20,75,-57.22222222,4.777777778,4.777777778,-147.2222222,0.21203707,-0.306481506,1,0,0,0.2167,submitButton,-0.112036957,-0.41759262,0,0,0,0,42,42,46,1,62,69862,1,180,2022-02-10_11h33.57.306,orientation adjustment 1,2021.2.3,Win32,60.93845216,,,,,,,
,,,,,,,,,,,,,,,,,,,,,,-39.44444444,-30,20,75,-43.44444444,13.44444444,13.44444444,-133.4444444,0.169444476,-0.313888913,1,0,0,0.5488,submitButton,-0.150925847,-0.390740824,0,0,0,0,43,43,14,1,30,69862,1,180,2022-02-10_11h33.57.306,orientation adjustment 1,2021.2.3,Win32,60.93845216,,,,,,,
,,,,,,,,,,,,,,,,,,,,,,39.44444444,-41,20,75,-41.55555556,0.555555556,0.555555556,-131.5555556,0.370370408,-0.268518598,1,0,0,0.5327,submitButton,0.282407442,-0.402777805,1,0,0,0,44,44,25,1,41,69862,1,180,2022-02-10_11h33.57.306,orientation adjustment 1,2021.2.3,Win32,60.93845216,pause_continueButton,,,,,,
,,,,,,,,,,,,,,,,,,,,,,-69.44444444,74,20,75,63.55555556,10.44444444,10.44444444,-26.44444444,0.20277781,-0.289814838,1,0,0,1.6317,submitButton,0.307407443,-0.28703706,0,0,0,0,45,45,58,1,74,69862,1,180,2022-02-10_11h33.57.306,orientation adjustment 1,2021.2.3,Win32,60.93845216,,,,,,,
,,,,,,,,,,,,,,,,,,,,,,47.77777778,-47,20,75,-51.22222222,4.222222222,4.222222222,-141.2222222,0.394444483,-0.295370394,1,0,0,0.5992,submitButton,-0.318518502,-0.405555583,0,0,0,0,46,46,31,1,47,69862,1,180,2022-02-10_11h33.57.306,orientation adjustment 1,2021.2.3,Win32,60.93845216,,,,,,,
,,,,,,,,,,,,,,,,,,,,,,-20.55555556,-50,20,75,-36.55555556,13.44444444,13.44444444,-126.5555556,0.219444477,-0.307407488,1,0,0,0.3327,submitButton,0.303703739,-0.348148173,0,0,0,0,47,47,34,1,50,69862,1,180,2022-02-10_11h33.57.306,orientation adjustment 1,2021.2.3,Win32,60.93845216,,,,,,,
,,,,,,,,,,,,,,,,,,,,,,-41.66666667,40,20,75,46.33333333,6.333333333,6.333333333,-43.66666667,0.238888922,-0.274074154,1,0,0,1.0154,submitButton,-0.137036958,-0.400925953,0,0,0,0,48,48,24,1,40,69862,1,180,2022-02-10_11h33.57.306,orientation adjustment 1,2021.2.3,Win32,60.93845216,,,,,,,
,,,,,,,,,,,,,,,,,,,,,,47.77777778,21,20,75,23.77777778,2.777777778,2.777777778,-66.22222222,0.410185224,-0.298148172,1,0,0,0.0668,submitButton,-0.15185183,-0.406481508,0,0,0,0,49,49,5,1,21,69862,1,180,2022-02-10_11h33.57.306,orientation adjustment 1,2021.2.3,Win32,60.93845216,,,,,,,
,,,,,,,,,,,,,,,,,,,,,,58.33333333,-56,20,75,-55.66666667,0.333333333,0.333333333,-145.6666667,-0.227777758,-0.402777805,1,0,0,1.5326,submitButton,-0.227777758,-0.402777805,0,0,0,0,50,50,40,1,56,69862,1,180,2022-02-10_11h33.57.306,orientation adjustment 1,2021.2.3,Win32,60.93845216,,,,,,,
,,,,,,,,,,,,,,,,,,,,,,-69.44444444,-38,20,75,-229.4444444,11.44444444,11.44444444,-319.4444444,0.382407445,-0.310185266,1,0,0,0.3333,submitButton,-0.130555533,-0.403703731,0,0,0,0,51,51,22,1,38,69862,1,180,2022-02-10_11h33.57.306,orientation adjustment 1,2021.2.3,Win32,60.93845216,,,,,,,
,,,,,,,,,,,,,,,,,,,,,,-59.44444444,-23,20,75,-36.44444444,13.44444444,13.44444444,-126.4444444,0.200925958,-0.292592616,1,0,0,0.1492,submitButton,-0.199999979,-0.385185268,0,0,0,0,52,52,7,1,23,69862,1,180,2022-02-10_11h33.57.306,orientation adjustment 1,2021.2.3,Win32,60.93845216,,,,,,,
,,,,,,,,,,,,,,,,,,,,,,44.44444444,-20,20,75,-26.55555556,6.555555556,6.555555556,-116.5555556,0.435185225,-0.292592616,1,0,0,0.1663,submitButton,-0.115740718,-0.395370397,0,0,0,0,53,53,4,1,20,69862,1,180,2022-02-10_11h33.57.306,orientation adjustment 1,2021.2.3,Win32,60.93845216,,,,,,,
,,,,,,,,,,,,,,,,,,,,,,29.44444444,42,20,75,58.44444444,16.44444444,16.44444444,-31.55555556,0.388888927,-0.282407487,1,0,0,1.2321,submitButton,0.035185269,-0.240740819,0,0,0,0,54,54,26,1,42,69862,1,180,2022-02-10_11h33.57.306,orientation adjustment 1,2021.2.3,Win32,60.93845216,,,,,,,
,,,,,,,,,,,,,,,,,,,,,,-51.66666667,32,20,75,36.33333333,4.333333333,4.333333333,-53.66666667,0.178703736,-0.282407487,1,0,0,0.0326,submitButton,-0.155555534,-0.38333336,0,0,0,0,55,55,16,1,32,69862,1,180,2022-02-10_11h33.57.306,orientation adjustment 1,2021.2.3,Win32,60.93845216,,,,,,,
,,,,,,,,,,,,,,,,,,,,,,55.55555556,-37,20,75,-24.44444444,12.55555556,12.55555556,-114.4444444,-0.138888867,-0.389814841,1,0,0,1.7324,submitButton,-0.138888867,-0.389814841,0,0,0,0,56,56,21,1,37,69862,1,180,2022-02-10_11h33.57.306,orientation adjustment 1,2021.2.3,Win32,60.93845216,,,,,,,
,,,,,,,,,,,,,,,,,,,,,,71.66666667,-35,20,75,-39.33333333,4.333333333,4.333333333,-129.3333333,0.366666704,-0.306481506,1,0,0,1.3652,submitButton,-0.153703625,-0.389814841,0,0,0,0,57,57,19,1,35,69862,1,180,2022-02-10_11h33.57.306,orientation adjustment 1,2021.2.3,Win32,60.93845216,,,,,,,
,,,,,,,,,,,,,,,,,,,,,,-65,-28,20,75,-231,23,23,-321,-0.204629609,-0.392592619,1,0,0,3.0083,submitButton,0.321296332,-0.255555578,0,0,0,0,58,58,12,1,28,69862,1,180,2022-02-10_11h33.57.306,orientation adjustment 1,2021.2.3,Win32,60.93845216,,,,,,,
,,,,,,,,,,,,,,,,,,,,,,-72.77777778,-46,20,75,-215.7777778,10.22222222,10.22222222,-305.7777778,-0.137036958,-0.401851935,1,0,0,1.9653,submitButton,0.462963003,-0.412037064,1,0,0,0,59,59,30,1,46,69862,1,180,2022-02-10_11h33.57.306,orientation adjustment 1,2021.2.3,Win32,60.93845216,pause_continueButton,,,,,,
,,,,,,,,,,,,,,,,,,,,,,34.44444444,-53,20,75,4.444444444,57.44444444,57.44444444,-85.55555556,0.172222254,-0.306481506,1,0,0,0.678,submitButton,0.358333371,-0.232407486,0,0,0,1,0,60,37,1,53,69862,1,180,2022-02-10_11h33.57.306,orientation adjustment 1,2021.2.3,Win32,60.93845216,,,,,,,
,,,,,,,,,,,,,,,,,,,,,,73.33333333,-55,20,75,-47.66666667,7.333333333,7.333333333,-137.6666667,0.423148187,-0.26666669,1,0,0,0.2831,submitButton,-0.312962946,-0.325925951,0,0,0,1,1,61,39,1,55,69862,1,180,2022-02-10_11h33.57.306,orientation adjustment 1,2021.2.3,Win32,60.93845216,,,,,,,
,,,,,,,,,,,,,,,,,,,,,,24.44444444,-69,20,75,-56.55555556,12.44444444,12.44444444,-146.5555556,0.393518557,-0.272222245,1,0,0,0.0994,submitButton,0.00833336,-0.320370395,0,0,0,1,2,62,53,1,69,69862,1,180,2022-02-10_11h33.57.306,orientation adjustment 1,2021.2.3,Win32,60.93845216,,,,,,,
,,,,,,,,,,,,,,,,,,,,,,73.88888889,39,20,75,46.88888889,7.888888889,7.888888889,-43.11111111,0.395370409,-0.281481505,1,0,0,0.5672,submitButton,0.203703736,-0.275000023,0,0,0,1,3,63,23,1,39,69862,1,180,2022-02-10_11h33.57.306,orientation adjustment 1,2021.2.3,Win32,60.93845216,,,,,,,
,,,,,,,,,,,,,,,,,,,,,,-31.11111111,27,20,75,35.88888889,8.888888889,8.888888889,-54.11111111,0.380555593,-0.274074154,1,0,0,0.1336,submitButton,0.386111149,-0.29166669,0,0,0,1,4,64,11,1,27,69862,1,180,2022-02-10_11h33.57.306,orientation adjustment 1,2021.2.3,Win32,60.93845216,,,,,,,
,,,,,,,,,,,,,,,,,,,,,,-60,34,20,75,41,7,7,-49,0.256481516,-0.293518599,1,0,0,0.9296,submitButton,-0.165740719,-0.404629713,0,0,0,1,5,65,18,1,34,69862,1,180,2022-02-10_11h33.57.306,orientation adjustment 1,2021.2.3,Win32,60.93845216,,,,,,,
,,,,,,,,,,,,,,,,,,,,,,-45.55555556,62,20,75,69.44444444,7.444444444,7.444444444,-20.55555556,0.178703736,-0.321296377,1,0,0,0.1164,submitButton,-0.287962945,-0.410185269,0,0,0,1,6,66,46,1,62,69862,1,180,2022-02-10_11h33.57.306,orientation adjustment 1,2021.2.3,Win32,60.93845216,,,,,,,
,,,,,,,,,,,,,,,,,,,,,,-51.11111111,-67,20,75,-70.11111111,3.111111111,3.111111111,-160.1111111,0.363888926,-0.290740821,1,0,0,0.4164,submitButton,-0.199074054,-0.390740824,0,0,0,1,7,67,51,1,67,69862,1,180,2022-02-10_11h33.57.306,orientation adjustment 1,2021.2.3,Win32,60.93845216,,,,,,,
,,,,,,,,,,,,,,,,,,,,,,-32.77777778,-37,20,75,-43.77777778,6.777777778,6.777777778,-133.7777778,0.211111144,-0.298148172,1,0,0,0.7625,submitButton,-0.233333314,-0.401851935,0,0,0,1,8,68,21,1,37,69862,1,180,2022-02-10_11h33.57.306,orientation adjustment 1,2021.2.3,Win32,60.93845216,,,,,,,
,,,,,,,,,,,,,,,,,,,,,,57.22222222,-44,20,75,-19.77777778,24.22222222,24.22222222,-109.7777778,0.40648152,-0.297222246,1,0,0,0.649,submitButton,-0.204629609,-0.399074157,0,0,0,1,9,69,28,1,44,69862,1,180,2022-02-10_11h33.57.306,orientation adjustment 1,2021.2.3,Win32,60.93845216,,,,,,,
,,,,,,,,,,,,,,,,,,,,,,-41.66666667,-49,20,75,-51.66666667,2.666666667,2.666666667,-141.6666667,0.398148187,-0.287963043,1,0,0,0.0332,submitButton,-0.152777756,-0.407407491,0,0,0,1,10,70,33,1,49,69862,1,180,2022-02-10_11h33.57.306,orientation adjustment 1,2021.2.3,Win32,60.93845216,,,,,,,
,,,,,,,,,,,,,,,,,,,,,,-63.33333333,30,20,75,26.66666667,3.333333333,3.333333333,-63.33333333,-0.25925924,-0.410185269,1,0,0,1.6152,submitButton,-0.25925924,-0.410185269,0,0,0,1,11,71,14,1,30,69862,1,180,2022-02-10_11h33.57.306,orientation adjustment 1,2021.2.3,Win32,60.93845216,,,,,,,
,,,,,,,,,,,,,,,,,,,,,,-58.88888889,-48,20,75,-52.88888889,4.888888889,4.888888889,-142.8888889,0.200000032,-0.310185266,1,0,0,0.8325,submitButton,-0.237962944,-0.425925954,0,0,0,1,12,72,32,1,48,69862,1,180,2022-02-10_11h33.57.306,orientation adjustment 1,2021.2.3,Win32,60.93845216,,,,,,,
,,,,,,,,,,,,,,,,,,,,,,26.11111111,41,20,75,38.11111111,2.888888889,2.888888889,-51.88888889,0.389814853,-0.287963043,1,0,0,0.8322,submitButton,-0.152777756,-0.393518602,0,0,0,1,13,73,25,1,41,69862,1,180,2022-02-10_11h33.57.306,orientation adjustment 1,2021.2.3,Win32,60.93845216,,,,,,,
,,,,,,,,,,,,,,,,,,,,,,-38.88888889,42,20,75,41.11111111,0.888888889,0.888888889,-48.88888889,0.219444477,-0.272222245,1,0,0,0.1335,submitButton,0.254629664,-0.400925953,1,0,0,1,14,74,26,1,42,69862,1,180,2022-02-10_11h33.57.306,orientation adjustment 1,2021.2.3,Win32,60.93845216,pause_continueButton,,,,,,
,,,,,,,,,,,,,,,,,,,,,,21.11111111,73,20,75,105.1111111,32.11111111,32.11111111,15.11111111,0.377777816,-0.292592616,1,0,0,2.0976,submitButton,-0.174074053,-0.390740824,0,0,0,1,15,75,57,1,73,69862,1,180,2022-02-10_11h33.57.306,orientation adjustment 1,2021.2.3,Win32,60.93845216,,,,,,,
,,,,,,,,,,,,,,,,,,,,,,-66.66666667,23,20,75,35.33333333,12.33333333,12.33333333,-54.66666667,0.189814847,-0.30462971,1,0,0,0.0666,submitButton,-0.212962943,-0.413888916,0,0,0,1,16,76,7,1,23,69862,1,180,2022-02-10_11h33.57.306,orientation adjustment 1,2021.2.3,Win32,60.93845216,,,,,,,
,,,,,,,,,,,,,,,,,,,,,,-51.11111111,35,20,75,43.88888889,8.888888889,8.888888889,-46.11111111,0.230555589,-0.274074154,1,0,0,0.4662,submitButton,-0.155555534,-0.39629638,0,0,0,1,17,77,19,1,35,69862,1,180,2022-02-10_11h33.57.306,orientation adjustment 1,2021.2.3,Win32,60.93845216,,,,,,,
,,,,,,,,,,,,,,,,,,,,,,40.55555556,68,20,75,242.5555556,5.444444444,5.444444444,152.5555556,0.201851884,-0.26203706,1,0,0,0.4325,submitButton,-0.211111091,-0.388888915,0,0,0,1,18,78,52,1,68,69862,1,180,2022-02-10_11h33.57.306,orientation adjustment 1,2021.2.3,Win32,60.93845216,,,,,,,
,,,,,,,,,,,,,,,,,,,,,,67.77777778,-72,20,75,-59.22222222,12.77777778,12.77777778,-149.2222222,0.399074112,-0.276851932,1,0,0,0.2826,submitButton,-0.170370292,-0.398148175,0,0,0,1,19,79,56,1,72,69862,1,180,2022-02-10_11h33.57.306,orientation adjustment 1,2021.2.3,Win32,60.93845216,,,,,,,
,,,,,,,,,,,,,,,,,,,,,,-33.88888889,-46,20,75,-45.88888889,0.111111111,0.111111111,-135.8888889,0.20277781,-0.301851932,1,0,0,0.2665,submitButton,-0.237962944,-0.390740824,0,0,0,1,20,80,30,1,46,69862,1,180,2022-02-10_11h33.57.306,orientation adjustment 1,2021.2.3,Win32,60.93845216,,,,,,,
,,,,,,,,,,,,,,,,,,,,,,31.11111111,-61,20,75,-51.88888889,9.111111111,9.111111111,-141.8888889,-0.231481462,-0.412037064,1,0,0,1.2324,submitButton,-0.231481462,-0.412037064,0,0,0,1,21,81,45,1,61,69862,1,180,2022-02-10_11h33.57.306,orientation adjustment 1,2021.2.3,Win32,60.93845216,,,,,,,
,,,,,,,,,,,,,,,,,,,,,,-47.77777778,65,20,75,64.22222222,0.777777778,0.777777778,-25.77777778,0.187962995,-0.293518599,1,0,0,0.696,submitButton,-0.222222202,-0.395370397,0,0,0,1,22,82,49,1,65,69862,1,180,2022-02-10_11h33.57.306,orientation adjustment 1,2021.2.3,Win32,60.93845216,,,,,,,
,,,,,,,,,,,,,,,,,,,,,,-42.77777778,66,20,75,78.22222222,12.22222222,12.22222222,-11.77777778,-0.280555537,-0.413888916,1,0,0,1.5819,submitButton,-0.280555537,-0.413888916,0,0,0,1,23,83,50,1,66,69862,1,180,2022-02-10_11h33.57.306,orientation adjustment 1,2021.2.3,Win32,60.93845216,,,,,,,
,,,,,,,,,,,,,,,,,,,,,,23.33333333,-36,20,75,-25.66666667,10.33333333,10.33333333,-115.6666667,0.397222261,-0.279629709,1,0,0,0.1833,submitButton,-0.276851834,-0.406481508,0,0,0,1,24,84,20,1,36,69862,1,180,2022-02-10_11h33.57.306,orientation adjustment 1,2021.2.3,Win32,60.93845216,,,,,,,
,,,,,,,,,,,,,,,,,,,,,,-23.33333333,-60,20,75,-54.33333333,5.666666667,5.666666667,-144.3333333,0.194444477,-0.298148172,1,0,0,0.3663,submitButton,-0.197222202,-0.38333336,0,0,0,1,25,85,44,1,60,69862,1,180,2022-02-10_11h33.57.306,orientation adjustment 1,2021.2.3,Win32,60.93845216,,,,,,,
,,,,,,,,,,,,,,,,,,,,,,-63.88888889,25,20,75,42.11111111,17.11111111,17.11111111,-47.88888889,0.219444477,-0.297222246,1,0,0,1.2988,submitButton,-0.153703625,-0.387037063,0,0,0,1,26,86,9,1,25,69862,1,180,2022-02-10_11h33.57.306,orientation adjustment 1,2021.2.3,Win32,60.93845216,,,,,,,
,,,,,,,,,,,,,,,,,,,,,,66.11111111,-58,20,75,-60.88888889,2.888888889,2.888888889,-150.8888889,-0.140740718,-0.413888916,1,0,0,2.1315,submitButton,-0.140740718,-0.413888916,0,0,0,1,27,87,42,1,58,69862,1,180,2022-02-10_11h33.57.306,orientation adjustment 1,2021.2.3,Win32,60.93845216,,,,,,,
,,,,,,,,,,,,,,,,,,,,,,-51.66666667,-47,20,75,-56.66666667,9.666666667,9.666666667,-146.6666667,0.179629661,-0.310185266,1,0,0,0.8487,submitButton,-0.23425924,-0.397222249,0,0,0,1,28,88,31,1,47,69862,1,180,2022-02-10_11h33.57.306,orientation adjustment 1,2021.2.3,Win32,60.93845216,,,,,,,
,,,,,,,,,,,,,,,,,,,,,,66.66666667,-28,20,75,-27.33333333,0.666666667,0.666666667,-117.3333333,0.432407447,-0.277777801,1,0,0,0.3323,submitButton,0.312962999,-0.41759262,1,0,0,1,29,89,12,1,28,69862,1,180,2022-02-10_11h33.57.306,orientation adjustment 1,2021.2.3,Win32,60.93845216,pause_continueButton,,,,,,
,,,,,,,,,,,,,,,,,,,,,,-47.77777778,-20,20,75,-32.77777778,12.77777778,12.77777778,-122.7777778,0.223148181,-0.306481506,1,0,0,0.0504,submitButton,0.478703744,-0.318518599,0,0,0,1,30,90,4,1,20,69862,1,180,2022-02-10_11h33.57.306,orientation adjustment 1,2021.2.3,Win32,60.93845216,,,,,,,
,,,,,,,,,,,,,,,,,,,,,,-41.11111111,-75,20,75,-69.11111111,5.888888889,5.888888889,-159.1111111,0.251851886,-0.284259283,1,0,0,0.4321,submitButton,-0.1472222,-0.385185268,0,0,0,1,31,91,59,1,75,69862,1,180,2022-02-10_11h33.57.306,orientation adjustment 1,2021.2.3,Win32,60.93845216,,,,,,,
,,,,,,,,,,,,,,,,,,,,,,-37.22222222,59,20,75,62.77777778,3.777777778,3.777777778,-27.22222222,0.208333366,-0.28703706,1,0,0,0.1996,submitButton,-0.231481462,-0.394444471,0,0,0,1,32,92,43,1,59,69862,1,180,2022-02-10_11h33.57.306,orientation adjustment 1,2021.2.3,Win32,60.93845216,,,,,,,
,,,,,,,,,,,,,,,,,,,,,,-33.88888889,-33,20,75,-43.88888889,10.88888889,10.88888889,-133.8888889,0.187037069,-0.290740821,1,0,0,0.3828,submitButton,-0.027777752,-0.306481506,0,0,0,1,33,93,17,1,33,69862,1,180,2022-02-10_11h33.57.306,orientation adjustment 1,2021.2.3,Win32,60.93845216,,,,,,,
,,,,,,,,,,,,,,,,,,,,,,75,-45,20,75,-36,9,9,-126,0.40648152,-0.274074154,1,0,0,0.1337,submitButton,-0.170370292,-0.410185269,0,0,0,1,34,94,29,1,45,69862,1,180,2022-02-10_11h33.57.306,orientation adjustment 1,2021.2.3,Win32,60.93845216,,,,,,,
,,,,,,,,,,,,,,,,,,,,,,-58.88888889,-64,20,75,-243.8888889,0.111111111,0.111111111,-333.8888889,0.368518556,-0.275000023,1,0,0,0.2159,submitButton,-0.431481468,-0.411111138,0,0,0,1,35,95,48,1,64,69862,1,180,2022-02-10_11h33.57.306,orientation adjustment 1,2021.2.3,Win32,60.93845216,,,,,,,
,,,,,,,,,,,,,,,,,,,,,,-30,-54,20,75,-65,11,11,-155,0.354629667,-0.286111135,1,0,0,0.1165,submitButton,-0.182407386,-0.393518602,0,0,0,1,36,96,38,1,54,69862,1,180,2022-02-10_11h33.57.306,orientation adjustment 1,2021.2.3,Win32,60.93845216,,,,,,,
,,,,,,,,,,,,,,,,,,,,,,42.77777778,-22,20,75,-24.22222222,2.222222222,2.222222222,-114.2222222,0.334259296,-0.28703706,1,0,0,0.1831,submitButton,-0.306481464,-0.405555583,0,0,0,1,37,97,6,1,22,69862,1,180,2022-02-10_11h33.57.306,orientation adjustment 1,2021.2.3,Win32,60.93845216,,,,,,,
,,,,,,,,,,,,,,,,,,,,,,23.88888889,32,20,75,35.88888889,3.888888889,3.888888889,-54.11111111,0.384259297,-0.283333357,1,0,0,0.5662,submitButton,-0.211111091,-0.392592619,0,0,0,1,38,98,16,1,32,69862,1,180,2022-02-10_11h33.57.306,orientation adjustment 1,2021.2.3,Win32,60.93845216,,,,,,,
,,,,,,,,,,,,,,,,,,,,,,-67.77777778,70,20,75,56.22222222,13.77777778,13.77777778,-33.77777778,0.179629661,-0.295370394,1,0,0,0.1336,submitButton,-0.187037016,-0.418518602,0,0,0,1,39,99,54,1,70,69862,1,180,2022-02-10_11h33.57.306,orientation adjustment 1,2021.2.3,Win32,60.93845216,,,,,,,
,,,,,,,,,,,,,,,,,,,,,,53.33333333,51,20,75,53.33333333,2.333333333,2.333333333,-36.66666667,0.187962995,-0.298148172,1,0,0,0.3003,submitButton,-0.224074054,-0.409259286,0,0,0,1,40,100,35,1,51,69862,1,180,2022-02-10_11h33.57.306,orientation adjustment 1,2021.2.3,Win32,60.93845216,,,,,,,
,,,,,,,,,,,,,,,,,,,,,,57.77777778,-17,20,75,-27.22222222,10.22222222,10.22222222,-117.2222222,0.350000037,-0.286111135,1,0,0,0.0837,submitButton,-0.172222201,-0.407407491,0,0,0,1,41,101,1,1,17,69862,1,180,2022-02-10_11h33.57.306,orientation adjustment 1,2021.2.3,Win32,60.93845216,,,,,,,
,,,,,,,,,,,,,,,,,,,,,,-66.11111111,24,20,75,27.88888889,3.888888889,3.888888889,-62.11111111,0.239814848,-0.316666691,1,0,0,0.0831,submitButton,-0.163888867,-0.414814842,0,0,0,1,42,102,8,1,24,69862,1,180,2022-02-10_11h33.57.306,orientation adjustment 1,2021.2.3,Win32,60.93845216,,,,,,,
,,,,,,,,,,,,,,,,,,,,,,-47.22222222,50,20,75,62.77777778,12.77777778,12.77777778,-27.22222222,0.363888926,-0.30092595,1,0,0,0.1166,submitButton,0.232407441,-0.26666669,0,0,0,1,43,103,34,1,50,69862,1,180,2022-02-10_11h33.57.306,orientation adjustment 1,2021.2.3,Win32,60.93845216,,,,,,,
,,,,,,,,,,,,,,,,,,,,,,-69.44444444,-16,20,75,-204.4444444,8.444444444,8.444444444,-294.4444444,-0.154629608,-0.400000027,1,0,0,2.7607,submitButton,0.362963,-0.380555582,1,0,0,1,44,104,0,1,16,69862,1,180,2022-02-10_11h33.57.306,orientation adjustment 1,2021.2.3,Win32,60.93845216,pause_continueButton,,,,,,
,,,,,,,,,,,,,,,,,,,,,,-63.88888889,-63,20,75,-246.8888889,3.888888889,3.888888889,-336.8888889,0.388888927,-0.321296377,1,0,0,0.2329,submitButton,-0.210185165,-0.419444472,0,0,0,1,45,105,47,1,63,69862,1,180,2022-02-10_11h33.57.306,orientation adjustment 1,2021.2.3,Win32,60.93845216,,,,,,,
,,,,,,,,,,,,,,,,,,,,,,-45,31,20,75,43,12,12,-47,0.2166667,-0.271296376,1,0,0,0.0337,submitButton,-0.260185166,-0.388888915,0,0,0,1,46,106,15,1,31,69862,1,180,2022-02-10_11h33.57.306,orientation adjustment 1,2021.2.3,Win32,60.93845216,,,,,,,
,,,,,,,,,,,,,,,,,,,,,,-33.33333333,29,20,75,30.66666667,1.666666667,1.666666667,-59.33333333,0.191666699,-0.288888912,1,0,0,0.0337,submitButton,-0.200925905,-0.402777805,0,0,0,1,47,107,13,1,29,69862,1,180,2022-02-10_11h33.57.306,orientation adjustment 1,2021.2.3,Win32,60.93845216,,,,,,,
,,,,,,,,,,,,,,,,,,,,,,-61.66666667,40,20,75,49.33333333,9.333333333,9.333333333,-40.66666667,-0.175925848,-0.404629713,1,0,0,1.6321,submitButton,-0.175925848,-0.404629713,0,0,0,1,48,108,24,1,40,69862,1,180,2022-02-10_11h33.57.306,orientation adjustment 1,2021.2.3,Win32,60.93845216,,,,,,,
,,,,,,,,,,,,,,,,,,,,,,-54.44444444,43,20,75,58.55555556,15.55555556,15.55555556,-31.44444444,-0.22499998,-0.410185269,1,0,0,1.482,submitButton,-0.22499998,-0.410185269,0,0,0,1,49,109,27,1,43,69862,1,180,2022-02-10_11h33.57.306,orientation adjustment 1,2021.2.3,Win32,60.93845216,,,,,,,
,,,,,,,,,,,,,,,,,,,,,,-31.11111111,38,20,75,39.88888889,1.888888889,1.888888889,-50.11111111,-0.131481402,-0.384259286,1,0,0,1.1156,submitButton,-0.131481402,-0.384259286,0,0,0,1,50,110,22,1,38,69862,1,180,2022-02-10_11h33.57.306,orientation adjustment 1,2021.2.3,Win32,60.93845216,,,,,,,
,,,,,,,,,,,,,,,,,,,,,,51.11111111,26,20,75,46.11111111,20.11111111,20.11111111,-43.88888889,0.399074112,-0.275000023,1,0,0,0.5322,submitButton,-0.180555534,-0.411111138,0,0,0,1,51,111,10,1,26,69862,1,180,2022-02-10_11h33.57.306,orientation adjustment 1,2021.2.3,Win32,60.93845216,,,,,,,
,,,,,,,,,,,,,,,,,,,,,,43.33333333,-71,20,75,-64.66666667,6.333333333,6.333333333,-154.6666667,0.343518555,-0.285185265,1,0,0,0.7495,submitButton,-0.255555537,-0.379629712,0,0,0,1,52,112,55,1,71,69862,1,180,2022-02-10_11h33.57.306,orientation adjustment 1,2021.2.3,Win32,60.93845216,,,,,,,
,,,,,,,,,,,,,,,,,,,,,,54.44444444,-74,20,75,-74.55555556,0.555555556,0.555555556,-164.5555556,-0.257407389,-0.416666694,1,0,0,1.4164,submitButton,-0.257407389,-0.416666694,0,0,0,1,53,113,58,1,74,69862,1,180,2022-02-10_11h33.57.306,orientation adjustment 1,2021.2.3,Win32,60.93845216,,,,,,,
,,,,,,,,,,,,,,,,,,,,,,72.77777778,-19,20,75,-27.22222222,8.222222222,8.222222222,-117.2222222,0.388888927,-0.287963043,1,0,0,1.0656,submitButton,-0.256481463,-0.425000028,0,0,0,1,54,114,3,1,19,69862,1,180,2022-02-10_11h33.57.306,orientation adjustment 1,2021.2.3,Win32,60.93845216,,,,,,,
,,,,,,,,,,,,,,,,,,,,,,-33.33333333,18,20,75,56.66666667,38.66666667,38.66666667,-33.33333333,0.185185217,-0.283333357,1,0,0,0.3658,submitButton,-0.205555535,-0.389814841,0,0,0,1,55,115,2,1,18,69862,1,180,2022-02-10_11h33.57.306,orientation adjustment 1,2021.2.3,Win32,60.93845216,,,,,,,
,,,,,,,,,,,,,,,,,,,,,,-31.11111111,57,20,75,58.88888889,1.888888889,1.888888889,-31.11111111,-0.193518498,-0.418518602,1,0,0,0.8824,submitButton,-0.193518498,-0.418518602,0,0,0,1,56,116,41,1,57,69862,1,180,2022-02-10_11h33.57.306,orientation adjustment 1,2021.2.3,Win32,60.93845216,,,,,,,
,,,,,,,,,,,,,,,,,,,,,,61.11111111,56,20,75,237.1111111,1.111111111,1.111111111,147.1111111,-0.222222202,-0.414814842,1,0,0,2.7809,submitButton,-0.222222202,-0.414814842,0,0,0,1,57,117,40,1,56,69862,1,180,2022-02-10_11h33.57.306,orientation adjustment 1,2021.2.3,Win32,60.93845216,,,,,,,
,,,,,,,,,,,,,,,,,,,,,,45.55555556,52,20,75,248.5555556,16.55555556,16.55555556,158.5555556,0.235185219,-0.298148172,1,0,0,0.7826,submitButton,-0.168518497,-0.401851935,0,0,0,1,58,118,36,1,52,69862,1,180,2022-02-10_11h33.57.306,orientation adjustment 1,2021.2.3,Win32,60.93845216,,,,,,,
,,,,,,,,,,,,,,,,,,,,,,27.77777778,-21,20,75,-25.22222222,4.222222222,4.222222222,-115.2222222,0.404629668,-0.310185266,1,0,0,1.499,submitButton,0.308333369,-0.386111138,1,0,0,1,59,119,5,1,21,69862,1,180,2022-02-10_11h33.57.306,orientation adjustment 1,2021.2.3,Win32,60.93845216,pause_continueButton,,,,,,
,,,,,,,,,,,,,,,,,,,,,,55,49,20,75,60,11,11,-30,0.384259297,-0.30462971,1,0,0,0.7489,submitButton,-0.137036958,-0.410185269,0,0,0,2,0,120,33,1,49,69862,1,180,2022-02-10_11h33.57.306,orientation adjustment 1,2021.2.3,Win32,60.93845216,,,,,,,
,,,,,,,,,,,,,,,,,,,,,,-36.11111111,-35,20,75,-47.11111111,12.11111111,12.11111111,-137.1111111,0.20277781,-0.28703706,1,0,0,0.3158,submitButton,-0.197222202,-0.394444471,0,0,0,2,1,121,19,1,35,69862,1,180,2022-02-10_11h33.57.306,orientation adjustment 1,2021.2.3,Win32,60.93845216,,,,,,,
,,,,,,,,,,,,,,,,,,,,,,-62.22222222,18,20,75,42.77777778,24.77777778,24.77777778,-47.22222222,0.211111144,-0.295370394,1,0,0,0.0167,submitButton,-0.201851831,-0.404629713,0,0,0,2,2,122,2,1,18,69862,1,180,2022-02-10_11h33.57.306,orientation adjustment 1,2021.2.3,Win32,60.93845216,,,,,,,
,,,,,,,,,,,,,,,,,,,,,,-61.11111111,28,20,75,32.88888889,4.888888889,4.888888889,-57.11111111,0.212962996,-0.30462971,1,0,0,0.1166,submitButton,-0.207407387,-0.418518602,0,0,0,2,3,123,12,1,28,69862,1,180,2022-02-10_11h33.57.306,orientation adjustment 1,2021.2.3,Win32,60.93845216,,,,,,,
,,,,,,,,,,,,,,,,,,,,,,-60,-39,20,75,-225,6,6,-315,-0.247222203,-0.418518602,1,0,0,2.9439,submitButton,-0.247222203,-0.418518602,0,0,0,2,4,124,23,1,39,69862,1,180,2022-02-10_11h33.57.306,orientation adjustment 1,2021.2.3,Win32,60.93845216,,,,,,,
,,,,,,,,,,,,,,,,,,,,,,27.22222222,29,20,75,23.22222222,5.777777778,5.777777778,-66.77777778,0.365740778,-0.28703706,1,0,0,0.4424,submitButton,-0.227777758,-0.375925952,0,0,0,2,5,125,13,1,29,69862,1,180,2022-02-10_11h33.57.306,orientation adjustment 1,2021.2.3,Win32,60.93845216,,,,,,,
,,,,,,,,,,,,,,,,,,,,,,-36.66666667,-69,20,75,-61.66666667,7.333333333,7.333333333,-151.6666667,0.223148181,-0.324074155,1,0,0,0.1999,submitButton,0.396296335,-0.249074153,0,0,0,2,6,126,53,1,69,69862,1,180,2022-02-10_11h33.57.306,orientation adjustment 1,2021.2.3,Win32,60.93845216,,,,,,,
,,,,,,,,,,,,,,,,,,,,,,60.55555556,-47,20,75,-53.44444444,6.444444444,6.444444444,-143.4444444,0.340740777,-0.302777802,1,0,0,0.3164,submitButton,-0.15185183,-0.387963046,0,0,0,2,7,127,31,1,47,69862,1,180,2022-02-10_11h33.57.306,orientation adjustment 1,2021.2.3,Win32,60.93845216,,,,,,,
,,,,,,,,,,,,,,,,,,,,,,-53.33333333,-51,20,75,-48.33333333,2.666666667,2.666666667,-138.3333333,0.185185217,-0.308333357,1,0,0,0.1822,submitButton,-0.182407386,-0.393518602,0,0,0,2,8,128,35,1,51,69862,1,180,2022-02-10_11h33.57.306,orientation adjustment 1,2021.2.3,Win32,60.93845216,,,,,,,
,,,,,,,,,,,,,,,,,,,,,,-38.33333333,20,20,75,41.66666667,21.66666667,21.66666667,-48.33333333,-0.283333315,-0.404629713,1,0,0,1.4653,submitButton,-0.283333315,-0.404629713,0,0,0,2,9,129,4,1,20,69862,1,180,2022-02-10_11h33.57.306,orientation adjustment 1,2021.2.3,Win32,60.93845216,,,,,,,
,,,,,,,,,,,,,,,,,,,,,,-62.22222222,36,20,75,29.77777778,6.222222222,6.222222222,-60.22222222,-0.172222201,-0.387037063,1,0,0,2.0647,submitButton,-0.172222201,-0.387037063,0,0,0,2,10,130,20,1,36,69862,1,180,2022-02-10_11h33.57.306,orientation adjustment 1,2021.2.3,Win32,60.93845216,,,,,,,
,,,,,,,,,,,,,,,,,,,,,,31.11111111,-61,20,75,-53.88888889,7.111111111,7.111111111,-143.8888889,-0.124999977,-0.39629638,1,0,0,1.2152,submitButton,-0.124999977,-0.39629638,0,0,0,2,11,131,45,1,61,69862,1,180,2022-02-10_11h33.57.306,orientation adjustment 1,2021.2.3,Win32,60.93845216,,,,,,,
,,,,,,,,,,,,,,,,,,,,,,-67.22222222,-56,20,75,-237.2222222,1.222222222,1.222222222,-327.2222222,0.37685189,-0.286111135,1,0,0,0.0168,submitButton,-0.371296281,-0.420370398,0,0,0,2,12,132,40,1,56,69862,1,180,2022-02-10_11h33.57.306,orientation adjustment 1,2021.2.3,Win32,60.93845216,,,,,,,
,,,,,,,,,,,,,,,,,,,,,,68.88888889,-17,20,75,-16.11111111,0.888888889,0.888888889,-106.1111111,0.356481519,-0.295370394,1,0,0,0.2497,submitButton,-0.112036957,-0.40833336,0,0,0,2,13,133,1,1,17,69862,1,180,2022-02-10_11h33.57.306,orientation adjustment 1,2021.2.3,Win32,60.93845216,,,,,,,
,,,,,,,,,,,,,,,,,,,,,,-52.77777778,-48,20,75,-50.77777778,2.777777778,2.777777778,-140.7777778,0.225000033,-0.322222247,1,0,0,0.266,submitButton,0.266666701,-0.387037063,1,0,0,2,14,134,32,1,48,69862,1,180,2022-02-10_11h33.57.306,orientation adjustment 1,2021.2.3,Win32,60.93845216,pause_continueButton,,,,,,
,,,,,,,,,,,,,,,,,,,,,,-50,21,20,75,24,3,3,-66,-0.197222202,-0.386111138,1,0,0,1.7318,submitButton,0.422222261,-0.281481505,0,0,0,2,15,135,5,1,21,69862,1,180,2022-02-10_11h33.57.306,orientation adjustment 1,2021.2.3,Win32,60.93845216,,,,,,,
,,,,,,,,,,,,,,,,,,,,,,-26.11111111,25,20,75,21.88888889,3.111111111,3.111111111,-68.11111111,-0.175925848,-0.402777805,1,0,0,1.3158,submitButton,-0.071296272,-0.350925951,0,0,0,2,16,136,9,1,25,69862,1,180,2022-02-10_11h33.57.306,orientation adjustment 1,2021.2.3,Win32,60.93845216,,,,,,,
,,,,,,,,,,,,,,,,,,,,,,-67.77777778,45,20,75,50.22222222,5.222222222,5.222222222,-39.77777778,-0.184259238,-0.412037064,1,0,0,1.8322,submitButton,-0.184259238,-0.412037064,0,0,0,2,17,137,29,1,45,69862,1,180,2022-02-10_11h33.57.306,orientation adjustment 1,2021.2.3,Win32,60.93845216,,,,,,,
,,,,,,,,,,,,,,,,,,,,,,47.77777778,23,20,75,34.77777778,11.77777778,11.77777778,-55.22222222,0.358333371,-0.323148173,1,0,0,1.0988,submitButton,-0.3898148,-0.400925953,0,0,0,2,18,138,7,1,23,69862,1,180,2022-02-10_11h33.57.306,orientation adjustment 1,2021.2.3,Win32,60.93845216,,,,,,,
,,,,,,,,,,,,,,,,,,,,,,66.66666667,60,20,75,55.66666667,4.333333333,4.333333333,-34.33333333,0.419444483,-0.296296377,1,0,0,0.4663,submitButton,-0.137962941,-0.385185268,0,0,0,2,19,139,44,1,60,69862,1,180,2022-02-10_11h33.57.306,orientation adjustment 1,2021.2.3,Win32,60.93845216,,,,,,,
,,,,,,,,,,,,,,,,,,,,,,-56.66666667,-75,20,75,-244.6666667,10.33333333,10.33333333,-334.6666667,0.425925965,-0.294444468,1,0,0,0.1501,submitButton,-0.22499998,-0.410185269,0,0,0,2,20,140,59,1,75,69862,1,180,2022-02-10_11h33.57.306,orientation adjustment 1,2021.2.3,Win32,60.93845216,,,,,,,
,,,,,,,,,,,,,,,,,,,,,,-54.44444444,26,20,75,38.55555556,12.55555556,12.55555556,-51.44444444,0.180555587,-0.26666669,1,0,0,0.2832,submitButton,0.204629662,-0.275000023,0,0,0,2,21,141,10,1,26,69862,1,180,2022-02-10_11h33.57.306,orientation adjustment 1,2021.2.3,Win32,60.93845216,,,,,,,
,,,,,,,,,,,,,,,,,,,,,,56.11111111,74,20,75,55.11111111,18.88888889,18.88888889,-34.88888889,0.386111149,-0.311111135,1,0,0,0.5666,submitButton,-0.149074052,-0.397222249,0,0,0,2,22,142,58,1,74,69862,1,180,2022-02-10_11h33.57.306,orientation adjustment 1,2021.2.3,Win32,60.93845216,,,,,,,
,,,,,,,,,,,,,,,,,,,,,,27.77777778,-38,20,75,-33.22222222,4.777777778,4.777777778,-123.2222222,-0.155555534,-0.400000027,1,0,0,0.9993,submitButton,0.362963,-0.217592614,0,0,0,2,23,143,22,1,38,69862,1,180,2022-02-10_11h33.57.306,orientation adjustment 1,2021.2.3,Win32,60.93845216,,,,,,,
,,,,,,,,,,,,,,,,,,,,,,-55,43,20,75,43,0,0,-47,0.191666699,-0.290740821,1,0,0,0.5499,submitButton,-0.165740719,-0.381481508,0,0,0,2,24,144,27,1,43,69862,1,180,2022-02-10_11h33.57.306,orientation adjustment 1,2021.2.3,Win32,60.93845216,,,,,,,
,,,,,,,,,,,,,,,,,,,,,,-41.66666667,-19,20,75,-37.66666667,18.66666667,18.66666667,-127.6666667,0.16388892,-0.302777802,1,0,0,0.5825,submitButton,-0.260185166,-0.384259286,0,0,0,2,25,145,3,1,19,69862,1,180,2022-02-10_11h33.57.306,orientation adjustment 1,2021.2.3,Win32,60.93845216,,,,,,,
,,,,,,,,,,,,,,,,,,,,,,63.88888889,-63,20,75,-58.11111111,4.888888889,4.888888889,-148.1111111,0.377777816,-0.296296377,1,0,0,0.0168,submitButton,-0.188888868,-0.385185268,0,0,0,2,26,146,47,1,63,69862,1,180,2022-02-10_11h33.57.306,orientation adjustment 1,2021.2.3,Win32,60.93845216,,,,,,,
,,,,,,,,,,,,,,,,,,,,,,-63.88888889,-30,20,75,-23.88888889,6.111111111,6.111111111,-113.8888889,0.228703737,-0.283333357,1,0,0,1.3824,submitButton,-0.149074052,-0.38240749,0,0,0,2,27,147,14,1,30,69862,1,180,2022-02-10_11h33.57.306,orientation adjustment 1,2021.2.3,Win32,60.93845216,,,,,,,
,,,,,,,,,,,,,,,,,,,,,,-73.33333333,-68,20,75,-242.3333333,5.666666667,5.666666667,-332.3333333,-0.257407389,-0.399074157,1,0,0,1.9817,submitButton,-0.257407389,-0.399074157,0,0,0,2,28,148,52,1,68,69862,1,180,2022-02-10_11h33.57.306,orientation adjustment 1,2021.2.3,Win32,60.93845216,,,,,,,
,,,,,,,,,,,,,,,,,,,,,,-72.77777778,-41,20,75,-227.7777778,6.777777778,6.777777778,-317.7777778,0.405555594,-0.271296376,1,0,0,0.4167,submitButton,0.536111154,-0.415740825,1,0,0,2,29,149,25,1,41,69862,1,180,2022-02-10_11h33.57.306,orientation adjustment 1,2021.2.3,Win32,60.93845216,pause_continueButton,,,,,,
,,,,,,,,,,,,,,,,,,,,,,59.44444444,44,20,75,225.4444444,1.444444444,1.444444444,135.4444444,0.227777811,-0.307407488,1,0,0,1.2492,submitButton,0.396296335,-0.225000022,0,0,0,2,30,150,28,1,44,69862,1,180,2022-02-10_11h33.57.306,orientation adjustment 1,2021.2.3,Win32,60.93845216,,,,,,,
,,,,,,,,,,,,,,,,,,,,,,-65,-58,20,75,-237,1,1,-327,-0.166666645,-0.411111138,1,0,0,2.7312,submitButton,0.384259297,-0.181481502,0,0,0,2,31,151,42,1,58,69862,1,180,2022-02-10_11h33.57.306,orientation adjustment 1,2021.2.3,Win32,60.93845216,,,,,,,
,,,,,,,,,,,,,,,,,,,,,,47.22222222,-40,20,75,-36.77777778,3.222222222,3.222222222,-126.7777778,-0.149999978,-0.389814841,1,0,0,1.3656,submitButton,-0.149999978,-0.389814841,0,0,0,2,32,152,24,1,40,69862,1,180,2022-02-10_11h33.57.306,orientation adjustment 1,2021.2.3,Win32,60.93845216,,,,,,,
,,,,,,,,,,,,,,,,,,,,,,75,67,20,75,62,5,5,-28,0.348148185,-0.296296377,1,0,0,0.2163,submitButton,-0.377777763,-0.377777804,0,0,0,2,33,153,51,1,67,69862,1,180,2022-02-10_11h33.57.306,orientation adjustment 1,2021.2.3,Win32,60.93845216,,,,,,,
,,,,,,,,,,,,,,,,,,,,,,-32.22222222,-33,20,75,-41.22222222,8.222222222,8.222222222,-131.2222222,0.196296329,-0.285185265,1,0,0,0.1988,submitButton,-0.155555534,-0.390740824,0,0,0,2,34,154,17,1,33,69862,1,180,2022-02-10_11h33.57.306,orientation adjustment 1,2021.2.3,Win32,60.93845216,,,,,,,
,,,,,,,,,,,,,,,,,,,,,,-36.11111111,-22,20,75,-8.111111111,13.88888889,13.88888889,-98.11111111,-0.257407389,-0.401851935,1,0,0,1.4155,submitButton,-0.257407389,-0.401851935,0,0,0,2,35,155,6,1,22,69862,1,180,2022-02-10_11h33.57.306,orientation adjustment 1,2021.2.3,Win32,60.93845216,,,,,,,
,,,,,,,,,,,,,,,,,,,,,,51.66666667,46,20,75,52.66666667,6.666666667,6.666666667,-37.33333333,0.384259297,-0.307407488,1,0,0,0.0167,submitButton,0.433333373,-0.30092595,0,0,0,2,36,156,30,1,46,69862,1,180,2022-02-10_11h33.57.306,orientation adjustment 1,2021.2.3,Win32,60.93845216,,,,,,,
,,,,,,,,,,,,,,,,,,,,,,-40.55555556,73,20,75,74.44444444,1.444444444,1.444444444,-15.55555556,0.217592626,-0.297222246,1,0,0,0.0335,submitButton,0.329629666,-0.289814838,0,0,0,2,37,157,57,1,73,69862,1,180,2022-02-10_11h33.57.306,orientation adjustment 1,2021.2.3,Win32,60.93845216,,,,,,,
,,,,,,,,,,,,,,,,,,,,,,-50,34,20,75,28,6,6,-62,0.20277781,-0.275925949,1,0,0,0.0836,submitButton,-0.177777757,-0.400000027,0,0,0,2,38,158,18,1,34,69862,1,180,2022-02-10_11h33.57.306,orientation adjustment 1,2021.2.3,Win32,60.93845216,,,,,,,
,,,,,,,,,,,,,,,,,,,,,,25,52,20,75,54,2,2,-36,0.384259297,-0.273148171,1,0,0,0.2161,submitButton,-0.22499998,-0.412963047,0,0,0,2,39,159,36,1,52,69862,1,180,2022-02-10_11h33.57.306,orientation adjustment 1,2021.2.3,Win32,60.93845216,,,,,,,
,,,,,,,,,,,,,,,,,,,,,,-58.88888889,64,20,75,61.11111111,2.888888889,2.888888889,-28.88888889,-0.169444423,-0.403703731,1,0,0,1.6991,submitButton,-0.169444423,-0.403703731,0,0,0,2,40,160,48,1,64,69862,1,180,2022-02-10_11h33.57.306,orientation adjustment 1,2021.2.3,Win32,60.93845216,,,,,,,
,,,,,,,,,,,,,,,,,,,,,,-47.77777778,59,20,75,64.22222222,5.222222222,5.222222222,-25.77777778,-0.251851833,-0.425000028,1,0,0,1.6322,submitButton,-0.251851833,-0.425000028,0,0,0,2,41,161,43,1,59,69862,1,180,2022-02-10_11h33.57.306,orientation adjustment 1,2021.2.3,Win32,60.93845216,,,,,,,
,,,,,,,,,,,,,,,,,,,,,,20.55555556,62,20,75,58.55555556,3.444444444,3.444444444,-31.44444444,0.354629667,-0.281481505,1,0,0,0.0661,submitButton,-0.14814807,-0.390740824,0,0,0,2,42,162,46,1,62,69862,1,180,2022-02-10_11h33.57.306,orientation adjustment 1,2021.2.3,Win32,60.93845216,,,,,,,
,,,,,,,,,,,,,,,,,,,,,,-46.66666667,-53,20,75,-53.66666667,0.666666667,0.666666667,-143.6666667,0.174074106,-0.290740821,1,0,0,0.2999,submitButton,-0.174074053,-0.395370397,0,0,0,2,43,163,37,1,53,69862,1,180,2022-02-10_11h33.57.306,orientation adjustment 1,2021.2.3,Win32,60.93845216,,,,,,,
,,,,,,,,,,,,,,,,,,,,,,41.11111111,-24,20,75,-28.88888889,4.888888889,4.888888889,-118.8888889,0.414814854,-0.28703706,1,0,0,0.0168,submitButton,0.346296333,-0.412037064,1,0,0,2,44,164,8,1,24,69862,1,180,2022-02-10_11h33.57.306,orientation adjustment 1,2021.2.3,Win32,60.93845216,pause_continueButton,,,,,,
,,,,,,,,,,,,,,,,,,,,,,-59.44444444,55,20,75,63.55555556,8.555555556,8.555555556,-26.44444444,-0.265740722,-0.416666694,1,0,0,1.4486,submitButton,0.347222259,-0.293518599,0,0,0,2,45,165,39,1,55,69862,1,180,2022-02-10_11h33.57.306,orientation adjustment 1,2021.2.3,Win32,60.93845216,,,,,,,
,,,,,,,,,,,,,,,,,,,,,,73.33333333,-16,20,75,-31.66666667,15.66666667,15.66666667,-121.6666667,0.403703742,-0.30092595,1,0,0,0.7835,submitButton,-0.138888867,-0.398148175,0,0,0,2,46,166,0,1,16,69862,1,180,2022-02-10_11h33.57.306,orientation adjustment 1,2021.2.3,Win32,60.93845216,,,,,,,
,,,,,,,,,,,,,,,,,,,,,,28.33333333,27,20,75,32.33333333,5.333333333,5.333333333,-57.66666667,0.361111148,-0.281481505,1,0,0,0.5663,submitButton,-0.165740719,-0.384259286,0,0,0,2,47,167,11,1,27,69862,1,180,2022-02-10_11h33.57.306,orientation adjustment 1,2021.2.3,Win32,60.93845216,,,,,,,
,,,,,,,,,,,,,,,,,,,,,,-63.33333333,-31,20,75,-207.3333333,3.666666667,3.666666667,-297.3333333,0.366666704,-0.282407487,1,0,0,0.1496,submitButton,-0.197222202,-0.400000027,0,0,0,2,48,168,15,1,31,69862,1,180,2022-02-10_11h33.57.306,orientation adjustment 1,2021.2.3,Win32,60.93845216,,,,,,,
,,,,,,,,,,,,,,,,,,,,,,-63.88888889,66,20,75,68.11111111,2.111111111,2.111111111,-21.88888889,0.242592626,-0.309259283,1,0,0,1.9814,submitButton,-0.145370292,-0.38240749,0,0,0,2,49,169,50,1,66,69862,1,180,2022-02-10_11h33.57.306,orientation adjustment 1,2021.2.3,Win32,60.93845216,,,,,,,
,,,,,,,,,,,,,,,,,,,,,,-35.55555556,-32,20,75,-35.55555556,3.555555556,3.555555556,-125.5555556,0.217592626,-0.292592616,1,0,0,0.2159,submitButton,-0.174074053,-0.389814841,0,0,0,2,50,170,16,1,32,69862,1,180,2022-02-10_11h33.57.306,orientation adjustment 1,2021.2.3,Win32,60.93845216,,,,,,,
,,,,,,,,,,,,,,,,,,,,,,65,-72,20,75,-56,16,16,-146,-0.176851831,-0.429629714,1,0,0,1.5151,submitButton,0.455555596,-0.271296376,0,0,0,2,51,171,56,1,72,69862,1,180,2022-02-10_11h33.57.306,orientation adjustment 1,2021.2.3,Win32,60.93845216,,,,,,,
,,,,,,,,,,,,,,,,,,,,,,-58.33333333,57,20,75,61.66666667,4.666666667,4.666666667,-28.33333333,-0.177777757,-0.387037063,1,0,0,1.8652,submitButton,-0.177777757,-0.387037063,0,0,0,2,52,172,41,1,57,69862,1,180,2022-02-10_11h33.57.306,orientation adjustment 1,2021.2.3,Win32,60.93845216,,,,,,,
,,,,,,,,,,,,,,,,,,,,,,-48.88888889,-50,20,75,-51.88888889,1.888888889,1.888888889,-141.8888889,0.229629663,-0.30555558,1,0,0,0.3327,submitButton,-0.199074054,-0.403703731,0,0,0,2,53,173,34,1,50,69862,1,180,2022-02-10_11h33.57.306,orientation adjustment 1,2021.2.3,Win32,60.93845216,,,,,,,
,,,,,,,,,,,,,,,,,,,,,,59.44444444,-42,20,75,-34.55555556,7.444444444,7.444444444,-124.5555556,0.379629667,-0.282407487,1,0,0,0.5831,submitButton,-0.211111091,-0.40833336,0,0,0,2,54,174,26,1,42,69862,1,180,2022-02-10_11h33.57.306,orientation adjustment 1,2021.2.3,Win32,60.93845216,,,,,,,
,,,,,,,,,,,,,,,,,,,,,,27.22222222,65,20,75,59.22222222,5.777777778,5.777777778,-30.77777778,0.362037074,-0.311111135,1,0,0,0.9486,submitButton,-0.187962942,-0.393518602,0,0,0,2,55,175,49,1,65,69862,1,180,2022-02-10_11h33.57.306,orientation adjustment 1,2021.2.3,Win32,60.93845216,,,,,,,
,,,,,,,,,,,,,,,,,,,,,,-20.55555556,-54,20,75,-51.55555556,2.444444444,2.444444444,-141.5555556,0.197222255,-0.280555579,1,0,0,0.249,submitButton,-0.194444424,-0.384259286,0,0,0,2,56,176,38,1,54,69862,1,180,2022-02-10_11h33.57.306,orientation adjustment 1,2021.2.3,Win32,60.93845216,,,,,,,
,,,,,,,,,,,,,,,,,,,,,,56.11111111,-37,20,75,-35.88888889,1.111111111,1.111111111,-125.8888889,-0.299074056,-0.420370398,1,0,0,1.6648,submitButton,-0.299074056,-0.420370398,0,0,0,2,57,177,21,1,37,69862,1,180,2022-02-10_11h33.57.306,orientation adjustment 1,2021.2.3,Win32,60.93845216,,,,,,,
,,,,,,,,,,,,,,,,,,,,,,-72.22222222,71,20,75,73.77777778,2.777777778,2.777777778,-16.22222222,0.188888921,-0.294444468,1,0,0,0.0835,submitButton,-0.200925905,-0.395370397,0,0,0,2,58,178,55,1,71,69862,1,180,2022-02-10_11h33.57.306,orientation adjustment 1,2021.2.3,Win32,60.93845216,,,,,,,
,,,,,,,,,,,,,,,,,,,,,,-63.33333333,-70,20,75,-242.3333333,7.666666667,7.666666667,-332.3333333,-0.179629608,-0.390740824,1,0,0,2.6479,submitButton,-0.179629608,-0.390740824,0,0,0,2,59,179,54,1,70,69862,1,180,2022-02-10_11h33.57.306,orientation adjustment 1,2021.2.3,Win32,60.93845216,,,,,,,
,,,,,,,,,,,,,,,,,,,,,,,,,,,,,,,,,,,,,,,,,,,,,,,,69862,1,180,2022-02-10_11h33.57.306,orientation adjustment 1,2021.2.3,Win32,60.93845216,,0.354629667,-0.405555583,1,0,0,EndButtonTxt
