"dataTT","ï..consentMouse1.x","consentMouse1.y","consentMouse1.leftButton","consentMouse1.midButton","consentMouse1.rightButton","consentMouse1.clicked_name","consent_Mouse.x","consent_Mouse.y","consent_Mouse.leftButton","consent_Mouse.midButton","consent_Mouse.rightButton","consent_Mouse.clicked_name","startMouse.x","startMouse.y","startMouse.leftButton","startMouse.midButton","startMouse.rightButton","startMouse_2.x","startMouse_2.y","startMouse_2.leftButton","startMouse_2.midButton","startMouse_2.rightButton","start_distance","fixedOri","minimalDistance","maxOri","this_ori","accuracy","presented_accuracy","presented_this_ori","submitMouse.x","submitMouse.y","submitMouse.leftButton","submitMouse.midButton","submitMouse.rightButton","submitMouse.time","submitMouse.clicked_name","pauseMouse.x","pauseMouse.y","pauseMouse.leftButton","pauseMouse.midButton","pauseMouse.rightButton","trials.thisRepN","trials.thisTrialN","trials.thisN","trials.thisIndex","trials.ran","startOri","participant","condition","nTrials","date","expName","psychopyVersion","OS","frameRate","pauseMouse.clicked_name","EndButtonMouse.x","EndButtonMouse.y","EndButtonMouse.leftButton","EndButtonMouse.midButton","EndButtonMouse.rightButton","EndButtonMouse.clicked_name"
"./67276_orientation_adjustment_1_2022-02-10_12h43.07.145.csv",0.362222222,-0.4,1,0,0,"consent_button1",0.362222222,-0.4,1,0,0,"consent_button",0.138888889,-0.143333333,1,0,0,0.163333333,-0.202222222,1,0,0,33.33333333,-70,20,75,-88.66666667,18.66666667,18.66666667,-178.6666667,0.194444444,-0.312222222,1,0,0,8.611,"submitButton",-0.25,-0.395555556,0,0,0,0,0,0,54,1,70,67276,1,180,"2022-02-10_12h43.07.145","orientation adjustment 1","2021.2.3","MacIntel",58.82352941,"",NA,NA,NA,NA,NA,""
"./67276_orientation_adjustment_1_2022-02-10_12h43.07.145.csv",NA,NA,NA,NA,NA,"",NA,NA,NA,NA,NA,"",NA,NA,NA,NA,NA,NA,NA,NA,NA,NA,-52.77777778,21,20,75,20.22222222,0.777777778,0.777777778,-69.77777778,0.215555556,-0.295555556,1,0,0,0.682,"submitButton",-0.263333333,-0.401111111,0,0,0,0,1,1,5,1,21,67276,1,180,"2022-02-10_12h43.07.145","orientation adjustment 1","2021.2.3","MacIntel",58.82352941,"",NA,NA,NA,NA,NA,""
"./67276_orientation_adjustment_1_2022-02-10_12h43.07.145.csv",NA,NA,NA,NA,NA,"",NA,NA,NA,NA,NA,"",NA,NA,NA,NA,NA,NA,NA,NA,NA,NA,-40,-68,20,75,-215,33,33,-305,0.387777778,-0.297777778,1,0,0,0.317,"submitButton",-0.288888889,-0.418888889,0,0,0,0,2,2,52,1,68,67276,1,180,"2022-02-10_12h43.07.145","orientation adjustment 1","2021.2.3","MacIntel",58.82352941,"",NA,NA,NA,NA,NA,""
"./67276_orientation_adjustment_1_2022-02-10_12h43.07.145.csv",NA,NA,NA,NA,NA,"",NA,NA,NA,NA,NA,"",NA,NA,NA,NA,NA,NA,NA,NA,NA,NA,-36.66666667,-56,20,75,-69.66666667,13.66666667,13.66666667,-159.6666667,0.394444444,-0.287777778,1,0,0,0.749,"submitButton",-0.237777778,-0.412222222,0,0,0,0,3,3,40,1,56,67276,1,180,"2022-02-10_12h43.07.145","orientation adjustment 1","2021.2.3","MacIntel",58.82352941,"",NA,NA,NA,NA,NA,""
"./67276_orientation_adjustment_1_2022-02-10_12h43.07.145.csv",NA,NA,NA,NA,NA,"",NA,NA,NA,NA,NA,"",NA,NA,NA,NA,NA,NA,NA,NA,NA,NA,-38.88888889,-40,20,75,-56.88888889,16.88888889,16.88888889,-146.8888889,0.198888889,-0.304444444,1,0,0,0.782,"submitButton",-0.155555556,-0.402222222,0,0,0,0,4,4,24,1,40,67276,1,180,"2022-02-10_12h43.07.145","orientation adjustment 1","2021.2.3","MacIntel",58.82352941,"",NA,NA,NA,NA,NA,""
"./67276_orientation_adjustment_1_2022-02-10_12h43.07.145.csv",NA,NA,NA,NA,NA,"",NA,NA,NA,NA,NA,"",NA,NA,NA,NA,NA,NA,NA,NA,NA,NA,26.66666667,51,20,75,56.66666667,5.666666667,5.666666667,-33.33333333,0.396666667,-0.29,1,0,0,0.45,"submitButton",-0.271111111,-0.41,0,0,0,0,5,5,35,1,51,67276,1,180,"2022-02-10_12h43.07.145","orientation adjustment 1","2021.2.3","MacIntel",58.82352941,"",NA,NA,NA,NA,NA,""
"./67276_orientation_adjustment_1_2022-02-10_12h43.07.145.csv",NA,NA,NA,NA,NA,"",NA,NA,NA,NA,NA,"",NA,NA,NA,NA,NA,NA,NA,NA,NA,NA,36.66666667,-18,20,75,-13.33333333,4.666666667,4.666666667,-103.3333333,0.412222222,-0.28,1,0,0,0.183,"submitButton",-0.307777778,-0.402222222,0,0,0,0,6,6,2,1,18,67276,1,180,"2022-02-10_12h43.07.145","orientation adjustment 1","2021.2.3","MacIntel",58.82352941,"",NA,NA,NA,NA,NA,""
"./67276_orientation_adjustment_1_2022-02-10_12h43.07.145.csv",NA,NA,NA,NA,NA,"",NA,NA,NA,NA,NA,"",NA,NA,NA,NA,NA,NA,NA,NA,NA,NA,40,-32,20,75,-24,8,8,-114,0.421111111,-0.305555556,1,0,0,0.103,"submitButton",-0.243333333,-0.417777778,0,0,0,0,7,7,16,1,32,67276,1,180,"2022-02-10_12h43.07.145","orientation adjustment 1","2021.2.3","MacIntel",58.82352941,"",NA,NA,NA,NA,NA,""
"./67276_orientation_adjustment_1_2022-02-10_12h43.07.145.csv",NA,NA,NA,NA,NA,"",NA,NA,NA,NA,NA,"",NA,NA,NA,NA,NA,NA,NA,NA,NA,NA,-69.44444444,-58,20,75,-228.4444444,9.555555556,9.555555556,-318.4444444,0.388888889,-0.302222222,1,0,0,0.133,"submitButton",-0.277777778,-0.4,0,0,0,0,8,8,42,1,58,67276,1,180,"2022-02-10_12h43.07.145","orientation adjustment 1","2021.2.3","MacIntel",58.82352941,"",NA,NA,NA,NA,NA,""
"./67276_orientation_adjustment_1_2022-02-10_12h43.07.145.csv",NA,NA,NA,NA,NA,"",NA,NA,NA,NA,NA,"",NA,NA,NA,NA,NA,NA,NA,NA,NA,NA,-67.22222222,60,20,75,27.77777778,32.22222222,32.22222222,-62.22222222,0.213333333,-0.302222222,1,0,0,0.579,"submitButton",-0.282222222,-0.407777778,0,0,0,0,9,9,44,1,60,67276,1,180,"2022-02-10_12h43.07.145","orientation adjustment 1","2021.2.3","MacIntel",58.82352941,"",NA,NA,NA,NA,NA,""
"./67276_orientation_adjustment_1_2022-02-10_12h43.07.145.csv",NA,NA,NA,NA,NA,"",NA,NA,NA,NA,NA,"",NA,NA,NA,NA,NA,NA,NA,NA,NA,NA,68.88888889,-45,20,75,-39.11111111,5.888888889,5.888888889,-129.1111111,0.396666667,-0.307777778,1,0,0,0.133,"submitButton",-0.182222222,-0.391111111,0,0,0,0,10,10,29,1,45,67276,1,180,"2022-02-10_12h43.07.145","orientation adjustment 1","2021.2.3","MacIntel",58.82352941,"",NA,NA,NA,NA,NA,""
"./67276_orientation_adjustment_1_2022-02-10_12h43.07.145.csv",NA,NA,NA,NA,NA,"",NA,NA,NA,NA,NA,"",NA,NA,NA,NA,NA,NA,NA,NA,NA,NA,-22.77777778,57,20,75,49.22222222,7.777777778,7.777777778,-40.77777778,0.233333333,-0.273333333,1,0,0,0.299,"submitButton",-0.232222222,-0.377777778,0,0,0,0,11,11,41,1,57,67276,1,180,"2022-02-10_12h43.07.145","orientation adjustment 1","2021.2.3","MacIntel",58.82352941,"",NA,NA,NA,NA,NA,""
"./67276_orientation_adjustment_1_2022-02-10_12h43.07.145.csv",NA,NA,NA,NA,NA,"",NA,NA,NA,NA,NA,"",NA,NA,NA,NA,NA,NA,NA,NA,NA,NA,47.77777778,-24,20,75,-8.222222222,15.77777778,15.77777778,-98.22222222,0.373333333,-0.291111111,1,0,0,0.016,"submitButton",-0.294444444,-0.407777778,0,0,0,0,12,12,8,1,24,67276,1,180,"2022-02-10_12h43.07.145","orientation adjustment 1","2021.2.3","MacIntel",58.82352941,"",NA,NA,NA,NA,NA,""
"./67276_orientation_adjustment_1_2022-02-10_12h43.07.145.csv",NA,NA,NA,NA,NA,"",NA,NA,NA,NA,NA,"",NA,NA,NA,NA,NA,NA,NA,NA,NA,NA,73.33333333,-23,20,75,-11.66666667,11.33333333,11.33333333,-101.6666667,0.387777778,-0.304444444,1,0,0,0.049,"submitButton",-0.251111111,-0.404444444,0,0,0,0,13,13,7,1,23,67276,1,180,"2022-02-10_12h43.07.145","orientation adjustment 1","2021.2.3","MacIntel",58.82352941,"",NA,NA,NA,NA,NA,""
"./67276_orientation_adjustment_1_2022-02-10_12h43.07.145.csv",NA,NA,NA,NA,NA,"",NA,NA,NA,NA,NA,"",NA,NA,NA,NA,NA,NA,NA,NA,NA,NA,-66.11111111,54,20,75,36.88888889,17.11111111,17.11111111,-53.11111111,0.215555556,-0.312222222,1,0,0,0.083,"submitButton",0.503333333,-0.386666667,1,0,0,0,14,14,38,1,54,67276,1,180,"2022-02-10_12h43.07.145","orientation adjustment 1","2021.2.3","MacIntel",58.82352941,"pause_continueButton",NA,NA,NA,NA,NA,""
"./67276_orientation_adjustment_1_2022-02-10_12h43.07.145.csv",NA,NA,NA,NA,NA,"",NA,NA,NA,NA,NA,"",NA,NA,NA,NA,NA,NA,NA,NA,NA,NA,-57.77777778,71,20,75,34.22222222,36.77777778,36.77777778,-55.77777778,0.213333333,-0.301111111,1,0,0,0.017,"submitButton",0.237777778,-0.3,0,0,0,0,15,15,55,1,71,67276,1,180,"2022-02-10_12h43.07.145","orientation adjustment 1","2021.2.3","MacIntel",58.82352941,"",NA,NA,NA,NA,NA,""
"./67276_orientation_adjustment_1_2022-02-10_12h43.07.145.csv",NA,NA,NA,NA,NA,"",NA,NA,NA,NA,NA,"",NA,NA,NA,NA,NA,NA,NA,NA,NA,NA,31.66666667,-17,20,75,-8.333333333,8.666666667,8.666666667,-98.33333333,0.434444444,-0.324444444,1,0,0,0.284,"submitButton",-0.311111111,-0.401111111,0,0,0,0,16,16,1,1,17,67276,1,180,"2022-02-10_12h43.07.145","orientation adjustment 1","2021.2.3","MacIntel",58.82352941,"",NA,NA,NA,NA,NA,""
"./67276_orientation_adjustment_1_2022-02-10_12h43.07.145.csv",NA,NA,NA,NA,NA,"",NA,NA,NA,NA,NA,"",NA,NA,NA,NA,NA,NA,NA,NA,NA,NA,-22.22222222,-20,20,75,-25.22222222,5.222222222,5.222222222,-115.2222222,0.183333333,-0.3,1,0,0,0.134,"submitButton",-0.293333333,-0.413333333,0,0,0,0,17,17,4,1,20,67276,1,180,"2022-02-10_12h43.07.145","orientation adjustment 1","2021.2.3","MacIntel",58.82352941,"",NA,NA,NA,NA,NA,""
"./67276_orientation_adjustment_1_2022-02-10_12h43.07.145.csv",NA,NA,NA,NA,NA,"",NA,NA,NA,NA,NA,"",NA,NA,NA,NA,NA,NA,NA,NA,NA,NA,-36.66666667,52,20,75,42.33333333,9.666666667,9.666666667,-47.66666667,0.191111111,-0.307777778,1,0,0,0.113,"submitButton",-0.244444444,-0.422222222,0,0,0,0,18,18,36,1,52,67276,1,180,"2022-02-10_12h43.07.145","orientation adjustment 1","2021.2.3","MacIntel",58.82352941,"",NA,NA,NA,NA,NA,""
"./67276_orientation_adjustment_1_2022-02-10_12h43.07.145.csv",NA,NA,NA,NA,NA,"",NA,NA,NA,NA,NA,"",NA,NA,NA,NA,NA,NA,NA,NA,NA,NA,67.22222222,-69,20,75,-28.77777778,40.22222222,40.22222222,-118.7777778,0.406666667,-0.303333333,1,0,0,0.133,"submitButton",-0.275555556,-0.407777778,0,0,0,0,19,19,53,1,69,67276,1,180,"2022-02-10_12h43.07.145","orientation adjustment 1","2021.2.3","MacIntel",58.82352941,"",NA,NA,NA,NA,NA,""
"./67276_orientation_adjustment_1_2022-02-10_12h43.07.145.csv",NA,NA,NA,NA,NA,"",NA,NA,NA,NA,NA,"",NA,NA,NA,NA,NA,NA,NA,NA,NA,NA,-22.22222222,64,20,75,58.77777778,5.222222222,5.222222222,-31.22222222,0.205555556,-0.327777778,1,0,0,0.034,"submitButton",-0.254444444,-0.413333333,0,0,0,0,20,20,48,1,64,67276,1,180,"2022-02-10_12h43.07.145","orientation adjustment 1","2021.2.3","MacIntel",58.82352941,"",NA,NA,NA,NA,NA,""
"./67276_orientation_adjustment_1_2022-02-10_12h43.07.145.csv",NA,NA,NA,NA,NA,"",NA,NA,NA,NA,NA,"",NA,NA,NA,NA,NA,NA,NA,NA,NA,NA,58.33333333,43,20,75,229.3333333,6.333333333,6.333333333,139.3333333,0.243333333,-0.323333333,1,0,0,0.1,"submitButton",-0.216666667,-0.373333333,0,0,0,0,21,21,27,1,43,67276,1,180,"2022-02-10_12h43.07.145","orientation adjustment 1","2021.2.3","MacIntel",58.82352941,"",NA,NA,NA,NA,NA,""
"./67276_orientation_adjustment_1_2022-02-10_12h43.07.145.csv",NA,NA,NA,NA,NA,"",NA,NA,NA,NA,NA,"",NA,NA,NA,NA,NA,NA,NA,NA,NA,NA,31.11111111,-42,20,75,-26.88888889,15.11111111,15.11111111,-116.8888889,0.408888889,-0.305555556,1,0,0,0.033,"submitButton",0.132222222,-0.372222222,0,0,0,0,22,22,26,1,42,67276,1,180,"2022-02-10_12h43.07.145","orientation adjustment 1","2021.2.3","MacIntel",58.82352941,"",NA,NA,NA,NA,NA,""
"./67276_orientation_adjustment_1_2022-02-10_12h43.07.145.csv",NA,NA,NA,NA,NA,"",NA,NA,NA,NA,NA,"",NA,NA,NA,NA,NA,NA,NA,NA,NA,NA,-53.33333333,-34,20,75,-65.33333333,31.33333333,31.33333333,-155.3333333,0.21,-0.325555556,1,0,0,0.283,"submitButton",-0.266666667,-0.405555556,0,0,0,0,23,23,18,1,34,67276,1,180,"2022-02-10_12h43.07.145","orientation adjustment 1","2021.2.3","MacIntel",58.82352941,"",NA,NA,NA,NA,NA,""
"./67276_orientation_adjustment_1_2022-02-10_12h43.07.145.csv",NA,NA,NA,NA,NA,"",NA,NA,NA,NA,NA,"",NA,NA,NA,NA,NA,NA,NA,NA,NA,NA,-71.11111111,-46,20,75,-217.1111111,8.888888889,8.888888889,-307.1111111,0.358888889,-0.301111111,1,0,0,0.028,"submitButton",0.233333333,-0.378888889,0,0,0,0,24,24,30,1,46,67276,1,180,"2022-02-10_12h43.07.145","orientation adjustment 1","2021.2.3","MacIntel",58.82352941,"",NA,NA,NA,NA,NA,""
"./67276_orientation_adjustment_1_2022-02-10_12h43.07.145.csv",NA,NA,NA,NA,NA,"",NA,NA,NA,NA,NA,"",NA,NA,NA,NA,NA,NA,NA,NA,NA,NA,33.88888889,37,20,75,44.88888889,7.888888889,7.888888889,-45.11111111,0.415555556,-0.286666667,1,0,0,0.356,"submitButton",-0.194444444,-0.373333333,0,0,0,0,25,25,21,1,37,67276,1,180,"2022-02-10_12h43.07.145","orientation adjustment 1","2021.2.3","MacIntel",58.82352941,"",NA,NA,NA,NA,NA,""
"./67276_orientation_adjustment_1_2022-02-10_12h43.07.145.csv",NA,NA,NA,NA,NA,"",NA,NA,NA,NA,NA,"",NA,NA,NA,NA,NA,NA,NA,NA,NA,NA,-43.33333333,-49,20,75,-231.3333333,2.333333333,2.333333333,-321.3333333,0.401111111,-0.311111111,1,0,0,0.099,"submitButton",-0.175555556,-0.427777778,0,0,0,0,26,26,33,1,49,67276,1,180,"2022-02-10_12h43.07.145","orientation adjustment 1","2021.2.3","MacIntel",58.82352941,"",NA,NA,NA,NA,NA,""
"./67276_orientation_adjustment_1_2022-02-10_12h43.07.145.csv",NA,NA,NA,NA,NA,"",NA,NA,NA,NA,NA,"",NA,NA,NA,NA,NA,NA,NA,NA,NA,NA,-35,-33,20,75,-226,13,13,-316,0.417777778,-0.294444444,1,0,0,0.067,"submitButton",0.073333333,-0.357777778,0,0,0,0,27,27,17,1,33,67276,1,180,"2022-02-10_12h43.07.145","orientation adjustment 1","2021.2.3","MacIntel",58.82352941,"",NA,NA,NA,NA,NA,""
"./67276_orientation_adjustment_1_2022-02-10_12h43.07.145.csv",NA,NA,NA,NA,NA,"",NA,NA,NA,NA,NA,"",NA,NA,NA,NA,NA,NA,NA,NA,NA,NA,-46.11111111,74,20,75,45.88888889,28.11111111,28.11111111,-44.11111111,0.225555556,-0.272222222,1,0,0,0.184,"submitButton",-0.26,-0.39,0,0,0,0,28,28,58,1,74,67276,1,180,"2022-02-10_12h43.07.145","orientation adjustment 1","2021.2.3","MacIntel",58.82352941,"",NA,NA,NA,NA,NA,""
"./67276_orientation_adjustment_1_2022-02-10_12h43.07.145.csv",NA,NA,NA,NA,NA,"",NA,NA,NA,NA,NA,"",NA,NA,NA,NA,NA,NA,NA,NA,NA,NA,34.44444444,-31,20,75,-31.55555556,0.555555556,0.555555556,-121.5555556,0.365555556,-0.295555556,1,0,0,0.063,"submitButton",0.27,-0.396666667,1,0,0,0,29,29,15,1,31,67276,1,180,"2022-02-10_12h43.07.145","orientation adjustment 1","2021.2.3","MacIntel",58.82352941,"pause_continueButton",NA,NA,NA,NA,NA,""
"./67276_orientation_adjustment_1_2022-02-10_12h43.07.145.csv",NA,NA,NA,NA,NA,"",NA,NA,NA,NA,NA,"",NA,NA,NA,NA,NA,NA,NA,NA,NA,NA,-66.66666667,19,20,75,23.33333333,4.333333333,4.333333333,-66.66666667,0.208888889,-0.304444444,1,0,0,0.966,"submitButton",-0.26,-0.395555556,0,0,0,0,30,30,3,1,19,67276,1,180,"2022-02-10_12h43.07.145","orientation adjustment 1","2021.2.3","MacIntel",58.82352941,"",NA,NA,NA,NA,NA,""
"./67276_orientation_adjustment_1_2022-02-10_12h43.07.145.csv",NA,NA,NA,NA,NA,"",NA,NA,NA,NA,NA,"",NA,NA,NA,NA,NA,NA,NA,NA,NA,NA,-57.22222222,-67,20,75,-243.2222222,3.777777778,3.777777778,-333.2222222,0.437777778,-0.292222222,1,0,0,0.116,"submitButton",-0.151111111,-0.394444444,0,0,0,0,31,31,51,1,67,67276,1,180,"2022-02-10_12h43.07.145","orientation adjustment 1","2021.2.3","MacIntel",58.82352941,"",NA,NA,NA,NA,NA,""
"./67276_orientation_adjustment_1_2022-02-10_12h43.07.145.csv",NA,NA,NA,NA,NA,"",NA,NA,NA,NA,NA,"",NA,NA,NA,NA,NA,NA,NA,NA,NA,NA,60,63,20,75,222,21,21,132,0.192222222,-0.255555556,1,0,0,0.35,"submitButton",-0.258888889,-0.383333333,0,0,0,0,32,32,47,1,63,67276,1,180,"2022-02-10_12h43.07.145","orientation adjustment 1","2021.2.3","MacIntel",58.82352941,"",NA,NA,NA,NA,NA,""
"./67276_orientation_adjustment_1_2022-02-10_12h43.07.145.csv",NA,NA,NA,NA,NA,"",NA,NA,NA,NA,NA,"",NA,NA,NA,NA,NA,NA,NA,NA,NA,NA,61.66666667,28,20,75,42.66666667,14.66666667,14.66666667,-47.33333333,0.407777778,-0.29,1,0,0,0.512,"submitButton",-0.26,-0.4,0,0,0,0,33,33,12,1,28,67276,1,180,"2022-02-10_12h43.07.145","orientation adjustment 1","2021.2.3","MacIntel",58.82352941,"",NA,NA,NA,NA,NA,""
"./67276_orientation_adjustment_1_2022-02-10_12h43.07.145.csv",NA,NA,NA,NA,NA,"",NA,NA,NA,NA,NA,"",NA,NA,NA,NA,NA,NA,NA,NA,NA,NA,-28.33333333,-62,20,75,-70.33333333,8.333333333,8.333333333,-160.3333333,0.176666667,-0.334444444,1,0,0,0.665,"submitButton",0.373333333,-0.365555556,0,0,0,0,34,34,46,1,62,67276,1,180,"2022-02-10_12h43.07.145","orientation adjustment 1","2021.2.3","MacIntel",58.82352941,"",NA,NA,NA,NA,NA,""
"./67276_orientation_adjustment_1_2022-02-10_12h43.07.145.csv",NA,NA,NA,NA,NA,"",NA,NA,NA,NA,NA,"",NA,NA,NA,NA,NA,NA,NA,NA,NA,NA,-40.55555556,48,20,75,38.44444444,9.555555556,9.555555556,-51.55555556,-0.198888889,-0.431111111,1,0,0,1.166,"submitButton",0.32,-0.406666667,0,0,0,0,35,35,32,1,48,67276,1,180,"2022-02-10_12h43.07.145","orientation adjustment 1","2021.2.3","MacIntel",58.82352941,"",NA,NA,NA,NA,NA,""
"./67276_orientation_adjustment_1_2022-02-10_12h43.07.145.csv",NA,NA,NA,NA,NA,"",NA,NA,NA,NA,NA,"",NA,NA,NA,NA,NA,NA,NA,NA,NA,NA,-48.88888889,-38,20,75,-57.88888889,19.88888889,19.88888889,-147.8888889,0.192222222,-0.313333333,1,0,0,0.084,"submitButton",0.262222222,-0.302222222,0,0,0,0,36,36,22,1,38,67276,1,180,"2022-02-10_12h43.07.145","orientation adjustment 1","2021.2.3","MacIntel",58.82352941,"",NA,NA,NA,NA,NA,""
"./67276_orientation_adjustment_1_2022-02-10_12h43.07.145.csv",NA,NA,NA,NA,NA,"",NA,NA,NA,NA,NA,"",NA,NA,NA,NA,NA,NA,NA,NA,NA,NA,-48.88888889,-39,20,75,-60.88888889,21.88888889,21.88888889,-150.8888889,0.175555556,-0.296666667,1,0,0,0.081,"submitButton",0.182222222,-0.308888889,0,0,0,0,37,37,23,1,39,67276,1,180,"2022-02-10_12h43.07.145","orientation adjustment 1","2021.2.3","MacIntel",58.82352941,"",NA,NA,NA,NA,NA,""
"./67276_orientation_adjustment_1_2022-02-10_12h43.07.145.csv",NA,NA,NA,NA,NA,"",NA,NA,NA,NA,NA,"",NA,NA,NA,NA,NA,NA,NA,NA,NA,NA,60.55555556,26,20,75,218.5555556,12.55555556,12.55555556,128.5555556,0.204444444,-0.286666667,1,0,0,1.948,"submitButton",-0.218888889,-0.398888889,0,0,0,0,38,38,10,1,26,67276,1,180,"2022-02-10_12h43.07.145","orientation adjustment 1","2021.2.3","MacIntel",58.82352941,"",NA,NA,NA,NA,NA,""
"./67276_orientation_adjustment_1_2022-02-10_12h43.07.145.csv",NA,NA,NA,NA,NA,"",NA,NA,NA,NA,NA,"",NA,NA,NA,NA,NA,NA,NA,NA,NA,NA,48.88888889,-55,20,75,-36.11111111,18.88888889,18.88888889,-126.1111111,0.4,-0.305555556,1,0,0,0.082,"submitButton",-0.184444444,-0.422222222,0,0,0,0,39,39,39,1,55,67276,1,180,"2022-02-10_12h43.07.145","orientation adjustment 1","2021.2.3","MacIntel",58.82352941,"",NA,NA,NA,NA,NA,""
"./67276_orientation_adjustment_1_2022-02-10_12h43.07.145.csv",NA,NA,NA,NA,NA,"",NA,NA,NA,NA,NA,"",NA,NA,NA,NA,NA,NA,NA,NA,NA,NA,-26.66666667,47,20,75,41.33333333,5.666666667,5.666666667,-48.66666667,-0.205555556,-0.41,1,0,0,0.9,"submitButton",-0.205555556,-0.41,0,0,0,0,40,40,31,1,47,67276,1,180,"2022-02-10_12h43.07.145","orientation adjustment 1","2021.2.3","MacIntel",58.82352941,"",NA,NA,NA,NA,NA,""
"./67276_orientation_adjustment_1_2022-02-10_12h43.07.145.csv",NA,NA,NA,NA,NA,"",NA,NA,NA,NA,NA,"",NA,NA,NA,NA,NA,NA,NA,NA,NA,NA,22.77777778,-53,20,75,-50.22222222,2.777777778,2.777777778,-140.2222222,-0.12,-0.395555556,1,0,0,0.55,"submitButton",-0.12,-0.395555556,0,0,0,0,41,41,37,1,53,67276,1,180,"2022-02-10_12h43.07.145","orientation adjustment 1","2021.2.3","MacIntel",58.82352941,"",NA,NA,NA,NA,NA,""
"./67276_orientation_adjustment_1_2022-02-10_12h43.07.145.csv",NA,NA,NA,NA,NA,"",NA,NA,NA,NA,NA,"",NA,NA,NA,NA,NA,NA,NA,NA,NA,NA,-20.55555556,-29,20,75,-31.55555556,2.555555556,2.555555556,-121.5555556,0.14,-0.32,1,0,0,0.716,"submitButton",-0.136666667,-0.413333333,0,0,0,0,42,42,13,1,29,67276,1,180,"2022-02-10_12h43.07.145","orientation adjustment 1","2021.2.3","MacIntel",58.82352941,"",NA,NA,NA,NA,NA,""
"./67276_orientation_adjustment_1_2022-02-10_12h43.07.145.csv",NA,NA,NA,NA,NA,"",NA,NA,NA,NA,NA,"",NA,NA,NA,NA,NA,NA,NA,NA,NA,NA,-69.44444444,-59,20,75,-220.4444444,18.55555556,18.55555556,-310.4444444,0.363333333,-0.304444444,1,0,0,0.383,"submitButton",0.141111111,-0.325555556,0,0,0,0,43,43,43,1,59,67276,1,180,"2022-02-10_12h43.07.145","orientation adjustment 1","2021.2.3","MacIntel",58.82352941,"",NA,NA,NA,NA,NA,""
"./67276_orientation_adjustment_1_2022-02-10_12h43.07.145.csv",NA,NA,NA,NA,NA,"",NA,NA,NA,NA,NA,"",NA,NA,NA,NA,NA,NA,NA,NA,NA,NA,-28.33333333,-22,20,75,-41.33333333,19.33333333,19.33333333,-131.3333333,-0.134444444,-0.427777778,1,0,0,0.973,"submitButton",0.313333333,-0.394444444,1,0,0,0,44,44,6,1,22,67276,1,180,"2022-02-10_12h43.07.145","orientation adjustment 1","2021.2.3","MacIntel",58.82352941,"pause_continueButton",NA,NA,NA,NA,NA,""
"./67276_orientation_adjustment_1_2022-02-10_12h43.07.145.csv",NA,NA,NA,NA,NA,"",NA,NA,NA,NA,NA,"",NA,NA,NA,NA,NA,NA,NA,NA,NA,NA,-50.55555556,30,20,75,18.44444444,11.55555556,11.55555556,-71.55555556,0.217777778,-0.271111111,1,0,0,0.273,"submitButton",0.385555556,-0.334444444,0,0,0,0,45,45,14,1,30,67276,1,180,"2022-02-10_12h43.07.145","orientation adjustment 1","2021.2.3","MacIntel",58.82352941,"",NA,NA,NA,NA,NA,""
"./67276_orientation_adjustment_1_2022-02-10_12h43.07.145.csv",NA,NA,NA,NA,NA,"",NA,NA,NA,NA,NA,"",NA,NA,NA,NA,NA,NA,NA,NA,NA,NA,-37.77777778,-65,20,75,-72.77777778,7.777777778,7.777777778,-162.7777778,0.373333333,-0.298888889,1,0,0,0.1,"submitButton",-0.2,-0.385555556,0,0,0,0,46,46,49,1,65,67276,1,180,"2022-02-10_12h43.07.145","orientation adjustment 1","2021.2.3","MacIntel",58.82352941,"",NA,NA,NA,NA,NA,""
"./67276_orientation_adjustment_1_2022-02-10_12h43.07.145.csv",NA,NA,NA,NA,NA,"",NA,NA,NA,NA,NA,"",NA,NA,NA,NA,NA,NA,NA,NA,NA,NA,-26.66666667,-41,20,75,-48.66666667,7.666666667,7.666666667,-138.6666667,0.183333333,-0.344444444,1,0,0,0.05,"submitButton",-0.131111111,-0.402222222,0,0,0,0,47,47,25,1,41,67276,1,180,"2022-02-10_12h43.07.145","orientation adjustment 1","2021.2.3","MacIntel",58.82352941,"",NA,NA,NA,NA,NA,""
"./67276_orientation_adjustment_1_2022-02-10_12h43.07.145.csv",NA,NA,NA,NA,NA,"",NA,NA,NA,NA,NA,"",NA,NA,NA,NA,NA,NA,NA,NA,NA,NA,-44.44444444,-75,20,75,-231.4444444,23.55555556,23.55555556,-321.4444444,-0.232222222,-0.383333333,1,0,0,2.531,"submitButton",-0.232222222,-0.383333333,0,0,0,0,48,48,59,1,75,67276,1,180,"2022-02-10_12h43.07.145","orientation adjustment 1","2021.2.3","MacIntel",58.82352941,"",NA,NA,NA,NA,NA,""
"./67276_orientation_adjustment_1_2022-02-10_12h43.07.145.csv",NA,NA,NA,NA,NA,"",NA,NA,NA,NA,NA,"",NA,NA,NA,NA,NA,NA,NA,NA,NA,NA,-70,-61,20,75,-228,13,13,-318,0.33,-0.293333333,1,0,0,0.287,"submitButton",-0.155555556,-0.391111111,0,0,0,0,49,49,45,1,61,67276,1,180,"2022-02-10_12h43.07.145","orientation adjustment 1","2021.2.3","MacIntel",58.82352941,"",NA,NA,NA,NA,NA,""
"./67276_orientation_adjustment_1_2022-02-10_12h43.07.145.csv",NA,NA,NA,NA,NA,"",NA,NA,NA,NA,NA,"",NA,NA,NA,NA,NA,NA,NA,NA,NA,NA,44.44444444,50,20,75,67.44444444,17.44444444,17.44444444,-22.55555556,0.17,-0.305555556,1,0,0,0.083,"submitButton",-0.181111111,-0.407777778,0,0,0,0,50,50,34,1,50,67276,1,180,"2022-02-10_12h43.07.145","orientation adjustment 1","2021.2.3","MacIntel",58.82352941,"",NA,NA,NA,NA,NA,""
"./67276_orientation_adjustment_1_2022-02-10_12h43.07.145.csv",NA,NA,NA,NA,NA,"",NA,NA,NA,NA,NA,"",NA,NA,NA,NA,NA,NA,NA,NA,NA,NA,30.55555556,-16,20,75,-12.44444444,3.555555556,3.555555556,-102.4444444,0.377777778,-0.296666667,1,0,0,0.072,"submitButton",-0.183333333,-0.41,0,0,0,0,51,51,0,1,16,67276,1,180,"2022-02-10_12h43.07.145","orientation adjustment 1","2021.2.3","MacIntel",58.82352941,"",NA,NA,NA,NA,NA,""
"./67276_orientation_adjustment_1_2022-02-10_12h43.07.145.csv",NA,NA,NA,NA,NA,"",NA,NA,NA,NA,NA,"",NA,NA,NA,NA,NA,NA,NA,NA,NA,NA,-40.55555556,72,20,75,59.44444444,12.55555556,12.55555556,-30.55555556,-0.124444444,-0.367777778,1,0,0,0.723,"submitButton",-0.152222222,-0.416666667,0,0,0,0,52,52,56,1,72,67276,1,180,"2022-02-10_12h43.07.145","orientation adjustment 1","2021.2.3","MacIntel",58.82352941,"",NA,NA,NA,NA,NA,""
"./67276_orientation_adjustment_1_2022-02-10_12h43.07.145.csv",NA,NA,NA,NA,NA,"",NA,NA,NA,NA,NA,"",NA,NA,NA,NA,NA,NA,NA,NA,NA,NA,-67.22222222,-36,20,75,-211.2222222,4.777777778,4.777777778,-301.2222222,-0.113333333,-0.395555556,1,0,0,2.338,"submitButton",-0.114444444,-0.394444444,0,0,0,0,53,53,20,1,36,67276,1,180,"2022-02-10_12h43.07.145","orientation adjustment 1","2021.2.3","MacIntel",58.82352941,"",NA,NA,NA,NA,NA,""
"./67276_orientation_adjustment_1_2022-02-10_12h43.07.145.csv",NA,NA,NA,NA,NA,"",NA,NA,NA,NA,NA,"",NA,NA,NA,NA,NA,NA,NA,NA,NA,NA,67.22222222,73,20,75,213.2222222,39.77777778,39.77777778,123.2222222,0.193333333,-0.317777778,1,0,0,1.184,"submitButton",-0.11,-0.293333333,0,0,0,0,54,54,57,1,73,67276,1,180,"2022-02-10_12h43.07.145","orientation adjustment 1","2021.2.3","MacIntel",58.82352941,"",NA,NA,NA,NA,NA,""
"./67276_orientation_adjustment_1_2022-02-10_12h43.07.145.csv",NA,NA,NA,NA,NA,"",NA,NA,NA,NA,NA,"",NA,NA,NA,NA,NA,NA,NA,NA,NA,NA,61.66666667,-27,20,75,-25.33333333,1.666666667,1.666666667,-115.3333333,-0.16,-0.407777778,1,0,0,1.349,"submitButton",-0.16,-0.407777778,0,0,0,0,55,55,11,1,27,67276,1,180,"2022-02-10_12h43.07.145","orientation adjustment 1","2021.2.3","MacIntel",58.82352941,"",NA,NA,NA,NA,NA,""
"./67276_orientation_adjustment_1_2022-02-10_12h43.07.145.csv",NA,NA,NA,NA,NA,"",NA,NA,NA,NA,NA,"",NA,NA,NA,NA,NA,NA,NA,NA,NA,NA,-74.44444444,-66,20,75,-216.4444444,29.55555556,29.55555556,-306.4444444,-0.266666667,-0.408888889,1,0,0,2.148,"submitButton",-0.266666667,-0.408888889,0,0,0,0,56,56,50,1,66,67276,1,180,"2022-02-10_12h43.07.145","orientation adjustment 1","2021.2.3","MacIntel",58.82352941,"",NA,NA,NA,NA,NA,""
"./67276_orientation_adjustment_1_2022-02-10_12h43.07.145.csv",NA,NA,NA,NA,NA,"",NA,NA,NA,NA,NA,"",NA,NA,NA,NA,NA,NA,NA,NA,NA,NA,-33.33333333,-35,20,75,-35.33333333,0.333333333,0.333333333,-125.3333333,0.171111111,-0.321111111,1,0,0,0.292,"submitButton",-0.207777778,-0.42,0,0,0,0,57,57,19,1,35,67276,1,180,"2022-02-10_12h43.07.145","orientation adjustment 1","2021.2.3","MacIntel",58.82352941,"",NA,NA,NA,NA,NA,""
"./67276_orientation_adjustment_1_2022-02-10_12h43.07.145.csv",NA,NA,NA,NA,NA,"",NA,NA,NA,NA,NA,"",NA,NA,NA,NA,NA,NA,NA,NA,NA,NA,-62.22222222,-44,20,75,-220.2222222,3.777777778,3.777777778,-310.2222222,-0.182222222,-0.405555556,1,0,0,2.508,"submitButton",-0.182222222,-0.405555556,0,0,0,0,58,58,28,1,44,67276,1,180,"2022-02-10_12h43.07.145","orientation adjustment 1","2021.2.3","MacIntel",58.82352941,"",NA,NA,NA,NA,NA,""
"./67276_orientation_adjustment_1_2022-02-10_12h43.07.145.csv",NA,NA,NA,NA,NA,"",NA,NA,NA,NA,NA,"",NA,NA,NA,NA,NA,NA,NA,NA,NA,NA,-35,-25,20,75,-32,7,7,-122,0.226666667,-0.332222222,1,0,0,0.617,"submitButton",0.331111111,-0.384444444,1,0,0,0,59,59,9,1,25,67276,1,180,"2022-02-10_12h43.07.145","orientation adjustment 1","2021.2.3","MacIntel",58.82352941,"pause_continueButton",NA,NA,NA,NA,NA,""
"./67276_orientation_adjustment_1_2022-02-10_12h43.07.145.csv",NA,NA,NA,NA,NA,"",NA,NA,NA,NA,NA,"",NA,NA,NA,NA,NA,NA,NA,NA,NA,NA,-65,-31,20,75,-56,25,25,-146,0.205555556,-0.3,1,0,0,0.034,"submitButton",0.592222222,-0.337777778,0,0,0,1,0,60,15,1,31,67276,1,180,"2022-02-10_12h43.07.145","orientation adjustment 1","2021.2.3","MacIntel",58.82352941,"",NA,NA,NA,NA,NA,""
"./67276_orientation_adjustment_1_2022-02-10_12h43.07.145.csv",NA,NA,NA,NA,NA,"",NA,NA,NA,NA,NA,"",NA,NA,NA,NA,NA,NA,NA,NA,NA,NA,-40,-71,20,75,-71,0,0,-161,0.416666667,-0.301111111,1,0,0,0.468,"submitButton",0.046666667,-0.293333333,0,0,0,1,1,61,55,1,71,67276,1,180,"2022-02-10_12h43.07.145","orientation adjustment 1","2021.2.3","MacIntel",58.82352941,"",NA,NA,NA,NA,NA,""
"./67276_orientation_adjustment_1_2022-02-10_12h43.07.145.csv",NA,NA,NA,NA,NA,"",NA,NA,NA,NA,NA,"",NA,NA,NA,NA,NA,NA,NA,NA,NA,NA,32.22222222,-70,20,75,-51.77777778,18.22222222,18.22222222,-141.7777778,0.382222222,-0.292222222,1,0,0,0.067,"submitButton",0.285555556,-0.332222222,0,0,0,1,2,62,54,1,70,67276,1,180,"2022-02-10_12h43.07.145","orientation adjustment 1","2021.2.3","MacIntel",58.82352941,"",NA,NA,NA,NA,NA,""
"./67276_orientation_adjustment_1_2022-02-10_12h43.07.145.csv",NA,NA,NA,NA,NA,"",NA,NA,NA,NA,NA,"",NA,NA,NA,NA,NA,NA,NA,NA,NA,NA,47.22222222,-53,20,75,-49.77777778,3.222222222,3.222222222,-139.7777778,0.395555556,-0.296666667,1,0,0,0.749,"submitButton",-0.258888889,-0.42,0,0,0,1,3,63,37,1,53,67276,1,180,"2022-02-10_12h43.07.145","orientation adjustment 1","2021.2.3","MacIntel",58.82352941,"",NA,NA,NA,NA,NA,""
"./67276_orientation_adjustment_1_2022-02-10_12h43.07.145.csv",NA,NA,NA,NA,NA,"",NA,NA,NA,NA,NA,"",NA,NA,NA,NA,NA,NA,NA,NA,NA,NA,-27.22222222,-21,20,75,-32.22222222,11.22222222,11.22222222,-122.2222222,0.191111111,-0.273333333,1,0,0,0.117,"submitButton",-0.238888889,-0.423333333,0,0,0,1,4,64,5,1,21,67276,1,180,"2022-02-10_12h43.07.145","orientation adjustment 1","2021.2.3","MacIntel",58.82352941,"",NA,NA,NA,NA,NA,""
"./67276_orientation_adjustment_1_2022-02-10_12h43.07.145.csv",NA,NA,NA,NA,NA,"",NA,NA,NA,NA,NA,"",NA,NA,NA,NA,NA,NA,NA,NA,NA,NA,66.66666667,62,20,75,220.6666667,21.33333333,21.33333333,130.6666667,-0.184444444,-0.408888889,1,0,0,2.13,"submitButton",-0.18,-0.408888889,0,0,0,1,5,65,46,1,62,67276,1,180,"2022-02-10_12h43.07.145","orientation adjustment 1","2021.2.3","MacIntel",58.82352941,"",NA,NA,NA,NA,NA,""
"./67276_orientation_adjustment_1_2022-02-10_12h43.07.145.csv",NA,NA,NA,NA,NA,"",NA,NA,NA,NA,NA,"",NA,NA,NA,NA,NA,NA,NA,NA,NA,NA,-42.22222222,57,20,75,44.77777778,12.22222222,12.22222222,-45.22222222,-0.165555556,-0.377777778,1,0,0,0.683,"submitButton",-0.165555556,-0.377777778,0,0,0,1,6,66,41,1,57,67276,1,180,"2022-02-10_12h43.07.145","orientation adjustment 1","2021.2.3","MacIntel",58.82352941,"",NA,NA,NA,NA,NA,""
"./67276_orientation_adjustment_1_2022-02-10_12h43.07.145.csv",NA,NA,NA,NA,NA,"",NA,NA,NA,NA,NA,"",NA,NA,NA,NA,NA,NA,NA,NA,NA,NA,-68.88888889,55,20,75,39.11111111,15.88888889,15.88888889,-50.88888889,-0.178888889,-0.416666667,1,0,0,1.033,"submitButton",0.367777778,-0.341111111,0,0,0,1,7,67,39,1,55,67276,1,180,"2022-02-10_12h43.07.145","orientation adjustment 1","2021.2.3","MacIntel",58.82352941,"",NA,NA,NA,NA,NA,""
"./67276_orientation_adjustment_1_2022-02-10_12h43.07.145.csv",NA,NA,NA,NA,NA,"",NA,NA,NA,NA,NA,"",NA,NA,NA,NA,NA,NA,NA,NA,NA,NA,63.88888889,27,20,75,46.88888889,19.88888889,19.88888889,-43.11111111,0.406666667,-0.287777778,1,0,0,0.316,"submitButton",-0.137777778,-0.413333333,0,0,0,1,8,68,11,1,27,67276,1,180,"2022-02-10_12h43.07.145","orientation adjustment 1","2021.2.3","MacIntel",58.82352941,"",NA,NA,NA,NA,NA,""
"./67276_orientation_adjustment_1_2022-02-10_12h43.07.145.csv",NA,NA,NA,NA,NA,"",NA,NA,NA,NA,NA,"",NA,NA,NA,NA,NA,NA,NA,NA,NA,NA,28.33333333,-75,20,75,-54.66666667,20.33333333,20.33333333,-144.6666667,0.351111111,-0.308888889,1,0,0,0.237,"submitButton",0.26,-0.294444444,0,0,0,1,9,69,59,1,75,67276,1,180,"2022-02-10_12h43.07.145","orientation adjustment 1","2021.2.3","MacIntel",58.82352941,"",NA,NA,NA,NA,NA,""
"./67276_orientation_adjustment_1_2022-02-10_12h43.07.145.csv",NA,NA,NA,NA,NA,"",NA,NA,NA,NA,NA,"",NA,NA,NA,NA,NA,NA,NA,NA,NA,NA,-49.44444444,32,20,75,28.55555556,3.444444444,3.444444444,-61.44444444,-0.161111111,-0.375555556,1,0,0,0.617,"submitButton",-0.161111111,-0.375555556,0,0,0,1,10,70,16,1,32,67276,1,180,"2022-02-10_12h43.07.145","orientation adjustment 1","2021.2.3","MacIntel",58.82352941,"",NA,NA,NA,NA,NA,""
"./67276_orientation_adjustment_1_2022-02-10_12h43.07.145.csv",NA,NA,NA,NA,NA,"",NA,NA,NA,NA,NA,"",NA,NA,NA,NA,NA,NA,NA,NA,NA,NA,-43.33333333,-64,20,75,-74.33333333,10.33333333,10.33333333,-164.3333333,-0.213333333,-0.385555556,1,0,0,0.595,"submitButton",-0.213333333,-0.385555556,0,0,0,1,11,71,48,1,64,67276,1,180,"2022-02-10_12h43.07.145","orientation adjustment 1","2021.2.3","MacIntel",58.82352941,"",NA,NA,NA,NA,NA,""
"./67276_orientation_adjustment_1_2022-02-10_12h43.07.145.csv",NA,NA,NA,NA,NA,"",NA,NA,NA,NA,NA,"",NA,NA,NA,NA,NA,NA,NA,NA,NA,NA,47.22222222,-72,20,75,-59.77777778,12.22222222,12.22222222,-149.7777778,0.413333333,-0.286666667,1,0,0,0.112,"submitButton",-0.277777778,-0.384444444,0,0,0,1,12,72,56,1,72,67276,1,180,"2022-02-10_12h43.07.145","orientation adjustment 1","2021.2.3","MacIntel",58.82352941,"",NA,NA,NA,NA,NA,""
"./67276_orientation_adjustment_1_2022-02-10_12h43.07.145.csv",NA,NA,NA,NA,NA,"",NA,NA,NA,NA,NA,"",NA,NA,NA,NA,NA,NA,NA,NA,NA,NA,-47.77777778,44,20,75,30.22222222,13.77777778,13.77777778,-59.77777778,-0.238888889,-0.396666667,1,0,0,0.526,"submitButton",-0.238888889,-0.396666667,0,0,0,1,13,73,28,1,44,67276,1,180,"2022-02-10_12h43.07.145","orientation adjustment 1","2021.2.3","MacIntel",58.82352941,"",NA,NA,NA,NA,NA,""
"./67276_orientation_adjustment_1_2022-02-10_12h43.07.145.csv",NA,NA,NA,NA,NA,"",NA,NA,NA,NA,NA,"",NA,NA,NA,NA,NA,NA,NA,NA,NA,NA,-67.77777778,-29,20,75,-228.7777778,19.77777778,19.77777778,-318.7777778,0.384444444,-0.277777778,1,0,0,0.123,"submitButton",0.28,-0.374444444,1,0,0,1,14,74,13,1,29,67276,1,180,"2022-02-10_12h43.07.145","orientation adjustment 1","2021.2.3","MacIntel",58.82352941,"pause_continueButton",NA,NA,NA,NA,NA,""
"./67276_orientation_adjustment_1_2022-02-10_12h43.07.145.csv",NA,NA,NA,NA,NA,"",NA,NA,NA,NA,NA,"",NA,NA,NA,NA,NA,NA,NA,NA,NA,NA,22.22222222,60,20,75,61.22222222,1.222222222,1.222222222,-28.77777778,0.383333333,-0.273333333,1,0,0,0.295,"submitButton",-0.195555556,-0.387777778,0,0,0,1,15,75,44,1,60,67276,1,180,"2022-02-10_12h43.07.145","orientation adjustment 1","2021.2.3","MacIntel",58.82352941,"",NA,NA,NA,NA,NA,""
"./67276_orientation_adjustment_1_2022-02-10_12h43.07.145.csv",NA,NA,NA,NA,NA,"",NA,NA,NA,NA,NA,"",NA,NA,NA,NA,NA,NA,NA,NA,NA,NA,-52.77777778,63,20,75,49.22222222,13.77777778,13.77777778,-40.77777778,-0.121111111,-0.388888889,1,0,0,0.649,"submitButton",-0.121111111,-0.388888889,0,0,0,1,16,76,47,1,63,67276,1,180,"2022-02-10_12h43.07.145","orientation adjustment 1","2021.2.3","MacIntel",58.82352941,"",NA,NA,NA,NA,NA,""
"./67276_orientation_adjustment_1_2022-02-10_12h43.07.145.csv",NA,NA,NA,NA,NA,"",NA,NA,NA,NA,NA,"",NA,NA,NA,NA,NA,NA,NA,NA,NA,NA,-49.44444444,66,20,75,55.55555556,10.44444444,10.44444444,-34.44444444,-0.18,-0.41,1,0,0,0.75,"submitButton",-0.18,-0.41,0,0,0,1,17,77,50,1,66,67276,1,180,"2022-02-10_12h43.07.145","orientation adjustment 1","2021.2.3","MacIntel",58.82352941,"",NA,NA,NA,NA,NA,""
"./67276_orientation_adjustment_1_2022-02-10_12h43.07.145.csv",NA,NA,NA,NA,NA,"",NA,NA,NA,NA,NA,"",NA,NA,NA,NA,NA,NA,NA,NA,NA,NA,-20,-35,20,75,-51,16,16,-141,-0.202222222,-0.434444444,1,0,0,0.333,"submitButton",-0.222222222,-0.397777778,0,0,0,1,18,78,19,1,35,67276,1,180,"2022-02-10_12h43.07.145","orientation adjustment 1","2021.2.3","MacIntel",58.82352941,"",NA,NA,NA,NA,NA,""
"./67276_orientation_adjustment_1_2022-02-10_12h43.07.145.csv",NA,NA,NA,NA,NA,"",NA,NA,NA,NA,NA,"",NA,NA,NA,NA,NA,NA,NA,NA,NA,NA,20,-47,20,75,-47,0,0,-137,-0.198888889,-0.441111111,1,0,0,0.732,"submitButton",-0.217777778,-0.407777778,0,0,0,1,19,79,31,1,47,67276,1,180,"2022-02-10_12h43.07.145","orientation adjustment 1","2021.2.3","MacIntel",58.82352941,"",NA,NA,NA,NA,NA,""
"./67276_orientation_adjustment_1_2022-02-10_12h43.07.145.csv",NA,NA,NA,NA,NA,"",NA,NA,NA,NA,NA,"",NA,NA,NA,NA,NA,NA,NA,NA,NA,NA,73.33333333,59,20,75,220.3333333,18.66666667,18.66666667,130.3333333,-0.197777778,-0.388888889,1,0,0,1.516,"submitButton",-0.197777778,-0.388888889,0,0,0,1,20,80,43,1,59,67276,1,180,"2022-02-10_12h43.07.145","orientation adjustment 1","2021.2.3","MacIntel",58.82352941,"",NA,NA,NA,NA,NA,""
"./67276_orientation_adjustment_1_2022-02-10_12h43.07.145.csv",NA,NA,NA,NA,NA,"",NA,NA,NA,NA,NA,"",NA,NA,NA,NA,NA,NA,NA,NA,NA,NA,56.66666667,17,20,75,45.66666667,28.66666667,28.66666667,-44.33333333,0.42,-0.285555556,1,0,0,0.078,"submitButton",-0.235555556,-0.422222222,0,0,0,1,21,81,1,1,17,67276,1,180,"2022-02-10_12h43.07.145","orientation adjustment 1","2021.2.3","MacIntel",58.82352941,"",NA,NA,NA,NA,NA,""
"./67276_orientation_adjustment_1_2022-02-10_12h43.07.145.csv",NA,NA,NA,NA,NA,"",NA,NA,NA,NA,NA,"",NA,NA,NA,NA,NA,NA,NA,NA,NA,NA,-40,-51,20,75,-63,12,12,-153,0.182222222,-0.32,1,0,0,0.671,"submitButton",-0.163333333,-0.41,0,0,0,1,22,82,35,1,51,67276,1,180,"2022-02-10_12h43.07.145","orientation adjustment 1","2021.2.3","MacIntel",58.82352941,"",NA,NA,NA,NA,NA,""
"./67276_orientation_adjustment_1_2022-02-10_12h43.07.145.csv",NA,NA,NA,NA,NA,"",NA,NA,NA,NA,NA,"",NA,NA,NA,NA,NA,NA,NA,NA,NA,NA,43.88888889,-22,20,75,-16.11111111,5.888888889,5.888888889,-106.1111111,0.347777778,-0.292222222,1,0,0,0.234,"submitButton",-0.203333333,-0.417777778,0,0,0,1,23,83,6,1,22,67276,1,180,"2022-02-10_12h43.07.145","orientation adjustment 1","2021.2.3","MacIntel",58.82352941,"",NA,NA,NA,NA,NA,""
"./67276_orientation_adjustment_1_2022-02-10_12h43.07.145.csv",NA,NA,NA,NA,NA,"",NA,NA,NA,NA,NA,"",NA,NA,NA,NA,NA,NA,NA,NA,NA,NA,50,-68,20,75,-36,32,32,-126,0.404444444,-0.31,1,0,0,0.051,"submitButton",0.255555556,-0.3,0,0,0,1,24,84,52,1,68,67276,1,180,"2022-02-10_12h43.07.145","orientation adjustment 1","2021.2.3","MacIntel",58.82352941,"",NA,NA,NA,NA,NA,""
"./67276_orientation_adjustment_1_2022-02-10_12h43.07.145.csv",NA,NA,NA,NA,NA,"",NA,NA,NA,NA,NA,"",NA,NA,NA,NA,NA,NA,NA,NA,NA,NA,68.33333333,-56,20,75,-45.66666667,10.33333333,10.33333333,-135.6666667,0.345555556,-0.306666667,1,0,0,0.982,"submitButton",-0.104444444,-0.383333333,0,0,0,1,25,85,40,1,56,67276,1,180,"2022-02-10_12h43.07.145","orientation adjustment 1","2021.2.3","MacIntel",58.82352941,"",NA,NA,NA,NA,NA,""
"./67276_orientation_adjustment_1_2022-02-10_12h43.07.145.csv",NA,NA,NA,NA,NA,"",NA,NA,NA,NA,NA,"",NA,NA,NA,NA,NA,NA,NA,NA,NA,NA,-65,-69,20,75,-240,9,9,-330,-0.191111111,-0.446666667,1,0,0,2.273,"submitButton",-0.228888889,-0.417777778,0,0,0,1,26,86,53,1,69,67276,1,180,"2022-02-10_12h43.07.145","orientation adjustment 1","2021.2.3","MacIntel",58.82352941,"",NA,NA,NA,NA,NA,""
"./67276_orientation_adjustment_1_2022-02-10_12h43.07.145.csv",NA,NA,NA,NA,NA,"",NA,NA,NA,NA,NA,"",NA,NA,NA,NA,NA,NA,NA,NA,NA,NA,63.33333333,58,20,75,227.3333333,10.66666667,10.66666667,137.3333333,-0.204444444,-0.408888889,1,0,0,2.132,"submitButton",-0.204444444,-0.408888889,0,0,0,1,27,87,42,1,58,67276,1,180,"2022-02-10_12h43.07.145","orientation adjustment 1","2021.2.3","MacIntel",58.82352941,"",NA,NA,NA,NA,NA,""
"./67276_orientation_adjustment_1_2022-02-10_12h43.07.145.csv",NA,NA,NA,NA,NA,"",NA,NA,NA,NA,NA,"",NA,NA,NA,NA,NA,NA,NA,NA,NA,NA,33.33333333,20,20,75,32.33333333,12.33333333,12.33333333,-57.66666667,0.358888889,-0.27,1,0,0,0.121,"submitButton",-0.202222222,-0.393333333,0,0,0,1,28,88,4,1,20,67276,1,180,"2022-02-10_12h43.07.145","orientation adjustment 1","2021.2.3","MacIntel",58.82352941,"",NA,NA,NA,NA,NA,""
"./67276_orientation_adjustment_1_2022-02-10_12h43.07.145.csv",NA,NA,NA,NA,NA,"",NA,NA,NA,NA,NA,"",NA,NA,NA,NA,NA,NA,NA,NA,NA,NA,-22.22222222,-24,20,75,-26.22222222,2.222222222,2.222222222,-116.2222222,0.163333333,-0.29,1,0,0,0.262,"submitButton",0.275555556,-0.417777778,1,0,0,1,29,89,8,1,24,67276,1,180,"2022-02-10_12h43.07.145","orientation adjustment 1","2021.2.3","MacIntel",58.82352941,"pause_continueButton",NA,NA,NA,NA,NA,""
"./67276_orientation_adjustment_1_2022-02-10_12h43.07.145.csv",NA,NA,NA,NA,NA,"",NA,NA,NA,NA,NA,"",NA,NA,NA,NA,NA,NA,NA,NA,NA,NA,27.77777778,16,20,75,18.77777778,2.777777778,2.777777778,-71.22222222,0.376666667,-0.323333333,1,0,0,0.238,"submitButton",-0.225555556,-0.407777778,0,0,0,1,30,90,0,1,16,67276,1,180,"2022-02-10_12h43.07.145","orientation adjustment 1","2021.2.3","MacIntel",58.82352941,"",NA,NA,NA,NA,NA,""
"./67276_orientation_adjustment_1_2022-02-10_12h43.07.145.csv",NA,NA,NA,NA,NA,"",NA,NA,NA,NA,NA,"",NA,NA,NA,NA,NA,NA,NA,NA,NA,NA,31.11111111,-52,20,75,-41.88888889,10.11111111,10.11111111,-131.8888889,-0.15,-0.414444444,1,0,0,0.632,"submitButton",-0.15,-0.414444444,0,0,0,1,31,91,36,1,52,67276,1,180,"2022-02-10_12h43.07.145","orientation adjustment 1","2021.2.3","MacIntel",58.82352941,"",NA,NA,NA,NA,NA,""
"./67276_orientation_adjustment_1_2022-02-10_12h43.07.145.csv",NA,NA,NA,NA,NA,"",NA,NA,NA,NA,NA,"",NA,NA,NA,NA,NA,NA,NA,NA,NA,NA,-71.66666667,-38,20,75,-202.6666667,15.33333333,15.33333333,-292.6666667,-0.241111111,-0.412222222,1,0,0,2.139,"submitButton",-0.234444444,-0.406666667,0,0,0,1,32,92,22,1,38,67276,1,180,"2022-02-10_12h43.07.145","orientation adjustment 1","2021.2.3","MacIntel",58.82352941,"",NA,NA,NA,NA,NA,""
"./67276_orientation_adjustment_1_2022-02-10_12h43.07.145.csv",NA,NA,NA,NA,NA,"",NA,NA,NA,NA,NA,"",NA,NA,NA,NA,NA,NA,NA,NA,NA,NA,56.66666667,18,20,75,197.6666667,0.333333333,0.333333333,107.6666667,0.24,-0.296666667,1,0,0,1.664,"submitButton",-0.294444444,-0.421111111,0,0,0,1,33,93,2,1,18,67276,1,180,"2022-02-10_12h43.07.145","orientation adjustment 1","2021.2.3","MacIntel",58.82352941,"",NA,NA,NA,NA,NA,""
"./67276_orientation_adjustment_1_2022-02-10_12h43.07.145.csv",NA,NA,NA,NA,NA,"",NA,NA,NA,NA,NA,"",NA,NA,NA,NA,NA,NA,NA,NA,NA,NA,42.77777778,-61,20,75,-54.22222222,6.777777778,6.777777778,-144.2222222,-0.171111111,-0.407777778,1,0,0,0.933,"submitButton",-0.171111111,-0.407777778,0,0,0,1,34,94,45,1,61,67276,1,180,"2022-02-10_12h43.07.145","orientation adjustment 1","2021.2.3","MacIntel",58.82352941,"",NA,NA,NA,NA,NA,""
"./67276_orientation_adjustment_1_2022-02-10_12h43.07.145.csv",NA,NA,NA,NA,NA,"",NA,NA,NA,NA,NA,"",NA,NA,NA,NA,NA,NA,NA,NA,NA,NA,-46.11111111,-65,20,75,-240.1111111,4.888888889,4.888888889,-330.1111111,-0.176666667,-0.393333333,1,0,0,2.664,"submitButton",-0.178888889,-0.396666667,0,0,0,1,35,95,49,1,65,67276,1,180,"2022-02-10_12h43.07.145","orientation adjustment 1","2021.2.3","MacIntel",58.82352941,"",NA,NA,NA,NA,NA,""
"./67276_orientation_adjustment_1_2022-02-10_12h43.07.145.csv",NA,NA,NA,NA,NA,"",NA,NA,NA,NA,NA,"",NA,NA,NA,NA,NA,NA,NA,NA,NA,NA,41.11111111,34,20,75,51.11111111,17.11111111,17.11111111,-38.88888889,0.395555556,-0.295555556,1,0,0,0.2,"submitButton",0.168888889,-0.29,0,0,0,1,36,96,18,1,34,67276,1,180,"2022-02-10_12h43.07.145","orientation adjustment 1","2021.2.3","MacIntel",58.82352941,"",NA,NA,NA,NA,NA,""
"./67276_orientation_adjustment_1_2022-02-10_12h43.07.145.csv",NA,NA,NA,NA,NA,"",NA,NA,NA,NA,NA,"",NA,NA,NA,NA,NA,NA,NA,NA,NA,NA,58.88888889,73,20,75,231.8888889,21.11111111,21.11111111,141.8888889,-0.221111111,-0.367777778,1,0,0,1.749,"submitButton",0.103333333,-0.324444444,0,0,0,1,37,97,57,1,73,67276,1,180,"2022-02-10_12h43.07.145","orientation adjustment 1","2021.2.3","MacIntel",58.82352941,"",NA,NA,NA,NA,NA,""
"./67276_orientation_adjustment_1_2022-02-10_12h43.07.145.csv",NA,NA,NA,NA,NA,"",NA,NA,NA,NA,NA,"",NA,NA,NA,NA,NA,NA,NA,NA,NA,NA,60.55555556,23,20,75,48.55555556,25.55555556,25.55555556,-41.44444444,0.338888889,-0.293333333,1,0,0,0.033,"submitButton",0.155555556,-0.271111111,0,0,0,1,38,98,7,1,23,67276,1,180,"2022-02-10_12h43.07.145","orientation adjustment 1","2021.2.3","MacIntel",58.82352941,"",NA,NA,NA,NA,NA,""
"./67276_orientation_adjustment_1_2022-02-10_12h43.07.145.csv",NA,NA,NA,NA,NA,"",NA,NA,NA,NA,NA,"",NA,NA,NA,NA,NA,NA,NA,NA,NA,NA,-55.55555556,25,20,75,21.44444444,3.555555556,3.555555556,-68.55555556,-0.195555556,-0.416666667,1,0,0,1.016,"submitButton",0.393333333,-0.241111111,0,0,0,1,39,99,9,1,25,67276,1,180,"2022-02-10_12h43.07.145","orientation adjustment 1","2021.2.3","MacIntel",58.82352941,"",NA,NA,NA,NA,NA,""
"./67276_orientation_adjustment_1_2022-02-10_12h43.07.145.csv",NA,NA,NA,NA,NA,"",NA,NA,NA,NA,NA,"",NA,NA,NA,NA,NA,NA,NA,NA,NA,NA,65.55555556,-19,20,75,-17.44444444,1.555555556,1.555555556,-107.4444444,-0.112222222,-0.392222222,1,0,0,1.481,"submitButton",-0.112222222,-0.392222222,0,0,0,1,40,100,3,1,19,67276,1,180,"2022-02-10_12h43.07.145","orientation adjustment 1","2021.2.3","MacIntel",58.82352941,"",NA,NA,NA,NA,NA,""
"./67276_orientation_adjustment_1_2022-02-10_12h43.07.145.csv",NA,NA,NA,NA,NA,"",NA,NA,NA,NA,NA,"",NA,NA,NA,NA,NA,NA,NA,NA,NA,NA,21.11111111,-43,20,75,-16.88888889,26.11111111,26.11111111,-106.8888889,0.337777778,-0.31,1,0,0,0.349,"submitButton",-0.258888889,-0.414444444,0,0,0,1,41,101,27,1,43,67276,1,180,"2022-02-10_12h43.07.145","orientation adjustment 1","2021.2.3","MacIntel",58.82352941,"",NA,NA,NA,NA,NA,""
"./67276_orientation_adjustment_1_2022-02-10_12h43.07.145.csv",NA,NA,NA,NA,NA,"",NA,NA,NA,NA,NA,"",NA,NA,NA,NA,NA,NA,NA,NA,NA,NA,-46.11111111,-74,20,75,-229.1111111,24.88888889,24.88888889,-319.1111111,-0.221111111,-0.416666667,1,0,0,2.082,"submitButton",0.287777778,-0.272222222,0,0,0,1,42,102,58,1,74,67276,1,180,"2022-02-10_12h43.07.145","orientation adjustment 1","2021.2.3","MacIntel",58.82352941,"",NA,NA,NA,NA,NA,""
"./67276_orientation_adjustment_1_2022-02-10_12h43.07.145.csv",NA,NA,NA,NA,NA,"",NA,NA,NA,NA,NA,"",NA,NA,NA,NA,NA,NA,NA,NA,NA,NA,39.44444444,28,20,75,223.4444444,15.44444444,15.44444444,133.4444444,-0.122222222,-0.368888889,1,0,0,2.682,"submitButton",0.206666667,-0.308888889,0,0,0,1,43,103,12,1,28,67276,1,180,"2022-02-10_12h43.07.145","orientation adjustment 1","2021.2.3","MacIntel",58.82352941,"",NA,NA,NA,NA,NA,""
"./67276_orientation_adjustment_1_2022-02-10_12h43.07.145.csv",NA,NA,NA,NA,NA,"",NA,NA,NA,NA,NA,"",NA,NA,NA,NA,NA,NA,NA,NA,NA,NA,-68.33333333,-41,20,75,-226.3333333,5.333333333,5.333333333,-316.3333333,0.392222222,-0.312222222,1,0,0,1.582,"submitButton",0.262222222,-0.375555556,1,0,0,1,44,104,25,1,41,67276,1,180,"2022-02-10_12h43.07.145","orientation adjustment 1","2021.2.3","MacIntel",58.82352941,"pause_continueButton",NA,NA,NA,NA,NA,""
"./67276_orientation_adjustment_1_2022-02-10_12h43.07.145.csv",NA,NA,NA,NA,NA,"",NA,NA,NA,NA,NA,"",NA,NA,NA,NA,NA,NA,NA,NA,NA,NA,47.77777778,-40,20,75,-34.22222222,5.777777778,5.777777778,-124.2222222,-0.258888889,-0.416666667,1,0,0,1.115,"submitButton",0.351111111,-0.315555556,0,0,0,1,45,105,24,1,40,67276,1,180,"2022-02-10_12h43.07.145","orientation adjustment 1","2021.2.3","MacIntel",58.82352941,"",NA,NA,NA,NA,NA,""
"./67276_orientation_adjustment_1_2022-02-10_12h43.07.145.csv",NA,NA,NA,NA,NA,"",NA,NA,NA,NA,NA,"",NA,NA,NA,NA,NA,NA,NA,NA,NA,NA,-48.88888889,48,20,75,32.11111111,15.88888889,15.88888889,-57.88888889,-0.231111111,-0.415555556,1,0,0,0.242,"submitButton",0.317777778,-0.268888889,0,0,0,1,46,106,32,1,48,67276,1,180,"2022-02-10_12h43.07.145","orientation adjustment 1","2021.2.3","MacIntel",58.82352941,"",NA,NA,NA,NA,NA,""
"./67276_orientation_adjustment_1_2022-02-10_12h43.07.145.csv",NA,NA,NA,NA,NA,"",NA,NA,NA,NA,NA,"",NA,NA,NA,NA,NA,NA,NA,NA,NA,NA,41.11111111,-46,20,75,-28.88888889,17.11111111,17.11111111,-118.8888889,-0.173333333,-0.462222222,1,0,0,0.638,"submitButton",-0.204444444,-0.417777778,0,0,0,1,47,107,30,1,46,67276,1,180,"2022-02-10_12h43.07.145","orientation adjustment 1","2021.2.3","MacIntel",58.82352941,"",NA,NA,NA,NA,NA,""
"./67276_orientation_adjustment_1_2022-02-10_12h43.07.145.csv",NA,NA,NA,NA,NA,"",NA,NA,NA,NA,NA,"",NA,NA,NA,NA,NA,NA,NA,NA,NA,NA,-24.44444444,-67,20,75,-58.44444444,8.555555556,8.555555556,-148.4444444,-0.207777778,-0.325555556,1,0,0,0.423,"submitButton",-0.227777778,-0.416666667,0,0,0,1,48,108,51,1,67,67276,1,180,"2022-02-10_12h43.07.145","orientation adjustment 1","2021.2.3","MacIntel",58.82352941,"",NA,NA,NA,NA,NA,""
"./67276_orientation_adjustment_1_2022-02-10_12h43.07.145.csv",NA,NA,NA,NA,NA,"",NA,NA,NA,NA,NA,"",NA,NA,NA,NA,NA,NA,NA,NA,NA,NA,50,-36,20,75,-30,6,6,-120,0.346666667,-0.304444444,1,0,0,0.038,"submitButton",-0.173333333,-0.413333333,0,0,0,1,49,109,20,1,36,67276,1,180,"2022-02-10_12h43.07.145","orientation adjustment 1","2021.2.3","MacIntel",58.82352941,"",NA,NA,NA,NA,NA,""
"./67276_orientation_adjustment_1_2022-02-10_12h43.07.145.csv",NA,NA,NA,NA,NA,"",NA,NA,NA,NA,NA,"",NA,NA,NA,NA,NA,NA,NA,NA,NA,NA,-63.33333333,39,20,75,30.66666667,8.333333333,8.333333333,-59.33333333,0.218888889,-0.34,1,0,0,0.167,"submitButton",-0.155555556,-0.424444444,0,0,0,1,50,110,23,1,39,67276,1,180,"2022-02-10_12h43.07.145","orientation adjustment 1","2021.2.3","MacIntel",58.82352941,"",NA,NA,NA,NA,NA,""
"./67276_orientation_adjustment_1_2022-02-10_12h43.07.145.csv",NA,NA,NA,NA,NA,"",NA,NA,NA,NA,NA,"",NA,NA,NA,NA,NA,NA,NA,NA,NA,NA,-74.44444444,-50,20,75,-220.4444444,9.555555556,9.555555556,-310.4444444,0.353333333,-0.286666667,1,0,0,0.099,"submitButton",-0.114444444,-0.372222222,0,0,0,1,51,111,34,1,50,67276,1,180,"2022-02-10_12h43.07.145","orientation adjustment 1","2021.2.3","MacIntel",58.82352941,"",NA,NA,NA,NA,NA,""
"./67276_orientation_adjustment_1_2022-02-10_12h43.07.145.csv",NA,NA,NA,NA,NA,"",NA,NA,NA,NA,NA,"",NA,NA,NA,NA,NA,NA,NA,NA,NA,NA,55,42,20,75,55,13,13,-35,0.143333333,-0.305555556,1,0,0,0.352,"submitButton",-0.148888889,-0.375555556,0,0,0,1,52,112,26,1,42,67276,1,180,"2022-02-10_12h43.07.145","orientation adjustment 1","2021.2.3","MacIntel",58.82352941,"",NA,NA,NA,NA,NA,""
"./67276_orientation_adjustment_1_2022-02-10_12h43.07.145.csv",NA,NA,NA,NA,NA,"",NA,NA,NA,NA,NA,"",NA,NA,NA,NA,NA,NA,NA,NA,NA,NA,28.33333333,30,20,75,37.33333333,7.333333333,7.333333333,-52.66666667,0.31,-0.297777778,1,0,0,0.461,"submitButton",-0.135555556,-0.416666667,0,0,0,1,53,113,14,1,30,67276,1,180,"2022-02-10_12h43.07.145","orientation adjustment 1","2021.2.3","MacIntel",58.82352941,"",NA,NA,NA,NA,NA,""
"./67276_orientation_adjustment_1_2022-02-10_12h43.07.145.csv",NA,NA,NA,NA,NA,"",NA,NA,NA,NA,NA,"",NA,NA,NA,NA,NA,NA,NA,NA,NA,NA,-25.55555556,26,20,75,35.44444444,9.444444444,9.444444444,-54.55555556,0.374444444,-0.303333333,1,0,0,0.983,"submitButton",0.011111111,-0.197777778,0,0,0,1,54,114,10,1,26,67276,1,180,"2022-02-10_12h43.07.145","orientation adjustment 1","2021.2.3","MacIntel",58.82352941,"",NA,NA,NA,NA,NA,""
"./67276_orientation_adjustment_1_2022-02-10_12h43.07.145.csv",NA,NA,NA,NA,NA,"",NA,NA,NA,NA,NA,"",NA,NA,NA,NA,NA,NA,NA,NA,NA,NA,49.44444444,-45,20,75,-14.55555556,30.44444444,30.44444444,-104.5555556,0.387777778,-0.29,1,0,0,0.316,"submitButton",-0.297777778,-0.421111111,0,0,0,1,55,115,29,1,45,67276,1,180,"2022-02-10_12h43.07.145","orientation adjustment 1","2021.2.3","MacIntel",58.82352941,"",NA,NA,NA,NA,NA,""
"./67276_orientation_adjustment_1_2022-02-10_12h43.07.145.csv",NA,NA,NA,NA,NA,"",NA,NA,NA,NA,NA,"",NA,NA,NA,NA,NA,NA,NA,NA,NA,NA,20,-54,20,75,-34,20,20,-124,0.405555556,-0.326666667,1,0,0,0.279,"submitButton",-0.263333333,-0.42,0,0,0,1,56,116,38,1,54,67276,1,180,"2022-02-10_12h43.07.145","orientation adjustment 1","2021.2.3","MacIntel",58.82352941,"",NA,NA,NA,NA,NA,""
"./67276_orientation_adjustment_1_2022-02-10_12h43.07.145.csv",NA,NA,NA,NA,NA,"",NA,NA,NA,NA,NA,"",NA,NA,NA,NA,NA,NA,NA,NA,NA,NA,-38.33333333,33,20,75,39.66666667,6.666666667,6.666666667,-50.33333333,-0.167777778,-0.382222222,1,0,0,0.835,"submitButton",-0.167777778,-0.382222222,0,0,0,1,57,117,17,1,33,67276,1,180,"2022-02-10_12h43.07.145","orientation adjustment 1","2021.2.3","MacIntel",58.82352941,"",NA,NA,NA,NA,NA,""
"./67276_orientation_adjustment_1_2022-02-10_12h43.07.145.csv",NA,NA,NA,NA,NA,"",NA,NA,NA,NA,NA,"",NA,NA,NA,NA,NA,NA,NA,NA,NA,NA,68.33333333,37,20,75,208.3333333,8.666666667,8.666666667,118.3333333,-0.221111111,-0.386666667,1,0,0,2.05,"submitButton",0.22,-0.292222222,0,0,0,1,58,118,21,1,37,67276,1,180,"2022-02-10_12h43.07.145","orientation adjustment 1","2021.2.3","MacIntel",58.82352941,"",NA,NA,NA,NA,NA,""
"./67276_orientation_adjustment_1_2022-02-10_12h43.07.145.csv",NA,NA,NA,NA,NA,"",NA,NA,NA,NA,NA,"",NA,NA,NA,NA,NA,NA,NA,NA,NA,NA,-50,-49,20,75,-217,12,12,-307,0.401111111,-0.332222222,1,0,0,1.716,"submitButton",0.303333333,-0.413333333,1,0,0,1,59,119,33,1,49,67276,1,180,"2022-02-10_12h43.07.145","orientation adjustment 1","2021.2.3","MacIntel",58.82352941,"pause_continueButton",NA,NA,NA,NA,NA,""
"./67276_orientation_adjustment_1_2022-02-10_12h43.07.145.csv",NA,NA,NA,NA,NA,"",NA,NA,NA,NA,NA,"",NA,NA,NA,NA,NA,NA,NA,NA,NA,NA,55.55555556,-62,20,75,-35.44444444,26.55555556,26.55555556,-125.4444444,-0.16,-0.365555556,1,0,0,1.767,"submitButton",-0.171111111,-0.35,0,0,0,2,0,120,46,1,62,67276,1,180,"2022-02-10_12h43.07.145","orientation adjustment 1","2021.2.3","MacIntel",58.82352941,"",NA,NA,NA,NA,NA,""
"./67276_orientation_adjustment_1_2022-02-10_12h43.07.145.csv",NA,NA,NA,NA,NA,"",NA,NA,NA,NA,NA,"",NA,NA,NA,NA,NA,NA,NA,NA,NA,NA,54.44444444,19,20,75,46.44444444,27.44444444,27.44444444,-43.55555556,0.358888889,-0.305555556,1,0,0,0.194,"submitButton",-0.24,-0.407777778,0,0,0,2,1,121,3,1,19,67276,1,180,"2022-02-10_12h43.07.145","orientation adjustment 1","2021.2.3","MacIntel",58.82352941,"",NA,NA,NA,NA,NA,""
"./67276_orientation_adjustment_1_2022-02-10_12h43.07.145.csv",NA,NA,NA,NA,NA,"",NA,NA,NA,NA,NA,"",NA,NA,NA,NA,NA,NA,NA,NA,NA,NA,41.11111111,32,20,75,40.11111111,8.111111111,8.111111111,-49.88888889,0.377777778,-0.288888889,1,0,0,0.095,"submitButton",-0.213333333,-0.377777778,0,0,0,2,2,122,16,1,32,67276,1,180,"2022-02-10_12h43.07.145","orientation adjustment 1","2021.2.3","MacIntel",58.82352941,"",NA,NA,NA,NA,NA,""
"./67276_orientation_adjustment_1_2022-02-10_12h43.07.145.csv",NA,NA,NA,NA,NA,"",NA,NA,NA,NA,NA,"",NA,NA,NA,NA,NA,NA,NA,NA,NA,NA,35,-34,20,75,-26,8,8,-116,-0.178888889,-0.425555556,1,0,0,0.715,"submitButton",-0.176666667,-0.414444444,0,0,0,2,3,123,18,1,34,67276,1,180,"2022-02-10_12h43.07.145","orientation adjustment 1","2021.2.3","MacIntel",58.82352941,"",NA,NA,NA,NA,NA,""
"./67276_orientation_adjustment_1_2022-02-10_12h43.07.145.csv",NA,NA,NA,NA,NA,"",NA,NA,NA,NA,NA,"",NA,NA,NA,NA,NA,NA,NA,NA,NA,NA,52.22222222,16,20,75,43.22222222,27.22222222,27.22222222,-46.77777778,0.378888889,-0.304444444,1,0,0,0.449,"submitButton",-0.264444444,-0.388888889,0,0,0,2,4,124,0,1,16,67276,1,180,"2022-02-10_12h43.07.145","orientation adjustment 1","2021.2.3","MacIntel",58.82352941,"",NA,NA,NA,NA,NA,""
"./67276_orientation_adjustment_1_2022-02-10_12h43.07.145.csv",NA,NA,NA,NA,NA,"",NA,NA,NA,NA,NA,"",NA,NA,NA,NA,NA,NA,NA,NA,NA,NA,-70.55555556,65,20,75,38.44444444,26.55555556,26.55555556,-51.55555556,0.171111111,-0.347777778,1,0,0,0.4,"submitButton",0.334444444,-0.331111111,0,0,0,2,5,125,49,1,65,67276,1,180,"2022-02-10_12h43.07.145","orientation adjustment 1","2021.2.3","MacIntel",58.82352941,"",NA,NA,NA,NA,NA,""
"./67276_orientation_adjustment_1_2022-02-10_12h43.07.145.csv",NA,NA,NA,NA,NA,"",NA,NA,NA,NA,NA,"",NA,NA,NA,NA,NA,NA,NA,NA,NA,NA,52.77777778,-48,20,75,-33.22222222,14.77777778,14.77777778,-123.2222222,0.39,-0.315555556,1,0,0,0.3,"submitButton",0.085555556,-0.361111111,0,0,0,2,6,126,32,1,48,67276,1,180,"2022-02-10_12h43.07.145","orientation adjustment 1","2021.2.3","MacIntel",58.82352941,"",NA,NA,NA,NA,NA,""
"./67276_orientation_adjustment_1_2022-02-10_12h43.07.145.csv",NA,NA,NA,NA,NA,"",NA,NA,NA,NA,NA,"",NA,NA,NA,NA,NA,NA,NA,NA,NA,NA,-40.55555556,22,20,75,20.44444444,1.555555556,1.555555556,-69.55555556,-0.19,-0.405555556,1,0,0,0.784,"submitButton",-0.19,-0.405555556,0,0,0,2,7,127,6,1,22,67276,1,180,"2022-02-10_12h43.07.145","orientation adjustment 1","2021.2.3","MacIntel",58.82352941,"",NA,NA,NA,NA,NA,""
"./67276_orientation_adjustment_1_2022-02-10_12h43.07.145.csv",NA,NA,NA,NA,NA,"",NA,NA,NA,NA,NA,"",NA,NA,NA,NA,NA,NA,NA,NA,NA,NA,-72.77777778,-67,20,75,-162.7777778,84.22222222,84.22222222,-252.7777778,0.41,-0.298888889,1,0,0,0.678,"submitButton",0.098888889,-0.293333333,0,0,0,2,8,128,51,1,67,67276,1,180,"2022-02-10_12h43.07.145","orientation adjustment 1","2021.2.3","MacIntel",58.82352941,"",NA,NA,NA,NA,NA,""
"./67276_orientation_adjustment_1_2022-02-10_12h43.07.145.csv",NA,NA,NA,NA,NA,"",NA,NA,NA,NA,NA,"",NA,NA,NA,NA,NA,NA,NA,NA,NA,NA,55,25,20,75,54,29,29,-36,0.351111111,-0.287777778,1,0,0,0.158,"submitButton",0.341111111,-0.324444444,0,0,0,2,9,129,9,1,25,67276,1,180,"2022-02-10_12h43.07.145","orientation adjustment 1","2021.2.3","MacIntel",58.82352941,"",NA,NA,NA,NA,NA,""
"./67276_orientation_adjustment_1_2022-02-10_12h43.07.145.csv",NA,NA,NA,NA,NA,"",NA,NA,NA,NA,NA,"",NA,NA,NA,NA,NA,NA,NA,NA,NA,NA,59.44444444,28,20,75,42.44444444,14.44444444,14.44444444,-47.55555556,0.402222222,-0.304444444,1,0,0,0.283,"submitButton",-0.175555556,-0.392222222,0,0,0,2,10,130,12,1,28,67276,1,180,"2022-02-10_12h43.07.145","orientation adjustment 1","2021.2.3","MacIntel",58.82352941,"",NA,NA,NA,NA,NA,""
"./67276_orientation_adjustment_1_2022-02-10_12h43.07.145.csv",NA,NA,NA,NA,NA,"",NA,NA,NA,NA,NA,"",NA,NA,NA,NA,NA,NA,NA,NA,NA,NA,-33.88888889,-36,20,75,-43.88888889,7.888888889,7.888888889,-133.8888889,0.155555556,-0.296666667,1,0,0,0.084,"submitButton",0.2,-0.32,0,0,0,2,11,131,20,1,36,67276,1,180,"2022-02-10_12h43.07.145","orientation adjustment 1","2021.2.3","MacIntel",58.82352941,"",NA,NA,NA,NA,NA,""
"./67276_orientation_adjustment_1_2022-02-10_12h43.07.145.csv",NA,NA,NA,NA,NA,"",NA,NA,NA,NA,NA,"",NA,NA,NA,NA,NA,NA,NA,NA,NA,NA,30,31,20,75,52,21,21,-38,0.373333333,-0.295555556,1,0,0,0.314,"submitButton",0.15,-0.341111111,0,0,0,2,12,132,15,1,31,67276,1,180,"2022-02-10_12h43.07.145","orientation adjustment 1","2021.2.3","MacIntel",58.82352941,"",NA,NA,NA,NA,NA,""
"./67276_orientation_adjustment_1_2022-02-10_12h43.07.145.csv",NA,NA,NA,NA,NA,"",NA,NA,NA,NA,NA,"",NA,NA,NA,NA,NA,NA,NA,NA,NA,NA,36.66666667,-63,20,75,-49.33333333,13.66666667,13.66666667,-139.3333333,-0.134444444,-0.412222222,1,0,0,0.599,"submitButton",-0.134444444,-0.412222222,0,0,0,2,13,133,47,1,63,67276,1,180,"2022-02-10_12h43.07.145","orientation adjustment 1","2021.2.3","MacIntel",58.82352941,"",NA,NA,NA,NA,NA,""
"./67276_orientation_adjustment_1_2022-02-10_12h43.07.145.csv",NA,NA,NA,NA,NA,"",NA,NA,NA,NA,NA,"",NA,NA,NA,NA,NA,NA,NA,NA,NA,NA,56.11111111,-38,20,75,-31.88888889,6.111111111,6.111111111,-121.8888889,-0.175555556,-0.414444444,1,0,0,1.232,"submitButton",0.314444444,-0.425555556,1,0,0,2,14,134,22,1,38,67276,1,180,"2022-02-10_12h43.07.145","orientation adjustment 1","2021.2.3","MacIntel",58.82352941,"pause_continueButton",NA,NA,NA,NA,NA,""
"./67276_orientation_adjustment_1_2022-02-10_12h43.07.145.csv",NA,NA,NA,NA,NA,"",NA,NA,NA,NA,NA,"",NA,NA,NA,NA,NA,NA,NA,NA,NA,NA,74.44444444,49,20,75,199.4444444,29.55555556,29.55555556,109.4444444,0.242222222,-0.315555556,1,0,0,0.178,"submitButton",0.274444444,-0.338888889,0,0,0,2,15,135,33,1,49,67276,1,180,"2022-02-10_12h43.07.145","orientation adjustment 1","2021.2.3","MacIntel",58.82352941,"",NA,NA,NA,NA,NA,""
"./67276_orientation_adjustment_1_2022-02-10_12h43.07.145.csv",NA,NA,NA,NA,NA,"",NA,NA,NA,NA,NA,"",NA,NA,NA,NA,NA,NA,NA,NA,NA,NA,-55,-45,20,75,-60,15,15,-150,0.215555556,-0.322222222,1,0,0,0.455,"submitButton",-0.18,-0.414444444,0,0,0,2,16,136,29,1,45,67276,1,180,"2022-02-10_12h43.07.145","orientation adjustment 1","2021.2.3","MacIntel",58.82352941,"",NA,NA,NA,NA,NA,""
"./67276_orientation_adjustment_1_2022-02-10_12h43.07.145.csv",NA,NA,NA,NA,NA,"",NA,NA,NA,NA,NA,"",NA,NA,NA,NA,NA,NA,NA,NA,NA,NA,26.66666667,-56,20,75,-55.33333333,0.666666667,0.666666667,-145.3333333,0.367777778,-0.297777778,1,0,0,0.498,"submitButton",-0.153333333,-0.397777778,0,0,0,2,17,137,40,1,56,67276,1,180,"2022-02-10_12h43.07.145","orientation adjustment 1","2021.2.3","MacIntel",58.82352941,"",NA,NA,NA,NA,NA,""
"./67276_orientation_adjustment_1_2022-02-10_12h43.07.145.csv",NA,NA,NA,NA,NA,"",NA,NA,NA,NA,NA,"",NA,NA,NA,NA,NA,NA,NA,NA,NA,NA,-67.22222222,-39,20,75,-229.2222222,10.22222222,10.22222222,-319.2222222,0.401111111,-0.304444444,1,0,0,0.317,"submitButton",-0.198888889,-0.41,0,0,0,2,18,138,23,1,39,67276,1,180,"2022-02-10_12h43.07.145","orientation adjustment 1","2021.2.3","MacIntel",58.82352941,"",NA,NA,NA,NA,NA,""
"./67276_orientation_adjustment_1_2022-02-10_12h43.07.145.csv",NA,NA,NA,NA,NA,"",NA,NA,NA,NA,NA,"",NA,NA,NA,NA,NA,NA,NA,NA,NA,NA,-23.88888889,-53,20,75,-62.88888889,9.888888889,9.888888889,-152.8888889,0.156666667,-0.297777778,1,0,0,0.533,"submitButton",-0.054444444,-0.227777778,0,0,0,2,19,139,37,1,53,67276,1,180,"2022-02-10_12h43.07.145","orientation adjustment 1","2021.2.3","MacIntel",58.82352941,"",NA,NA,NA,NA,NA,""
"./67276_orientation_adjustment_1_2022-02-10_12h43.07.145.csv",NA,NA,NA,NA,NA,"",NA,NA,NA,NA,NA,"",NA,NA,NA,NA,NA,NA,NA,NA,NA,NA,-52.77777778,-73,20,75,-236.7777778,16.22222222,16.22222222,-326.7777778,0.381111111,-0.304444444,1,0,0,2.299,"submitButton",-0.195555556,-0.386666667,0,0,0,2,20,140,57,1,73,67276,1,180,"2022-02-10_12h43.07.145","orientation adjustment 1","2021.2.3","MacIntel",58.82352941,"",NA,NA,NA,NA,NA,""
"./67276_orientation_adjustment_1_2022-02-10_12h43.07.145.csv",NA,NA,NA,NA,NA,"",NA,NA,NA,NA,NA,"",NA,NA,NA,NA,NA,NA,NA,NA,NA,NA,-73.88888889,-59,20,75,-223.8888889,15.11111111,15.11111111,-313.8888889,-0.256666667,-0.393333333,1,0,0,2.015,"submitButton",-0.256666667,-0.393333333,0,0,0,2,21,141,43,1,59,67276,1,180,"2022-02-10_12h43.07.145","orientation adjustment 1","2021.2.3","MacIntel",58.82352941,"",NA,NA,NA,NA,NA,""
"./67276_orientation_adjustment_1_2022-02-10_12h43.07.145.csv",NA,NA,NA,NA,NA,"",NA,NA,NA,NA,NA,"",NA,NA,NA,NA,NA,NA,NA,NA,NA,NA,67.77777778,-74,20,75,-47.22222222,26.77777778,26.77777778,-137.2222222,-0.174444444,-0.406666667,1,0,0,1.044,"submitButton",0.045555556,-0.306666667,0,0,0,2,22,142,58,1,74,67276,1,180,"2022-02-10_12h43.07.145","orientation adjustment 1","2021.2.3","MacIntel",58.82352941,"",NA,NA,NA,NA,NA,""
"./67276_orientation_adjustment_1_2022-02-10_12h43.07.145.csv",NA,NA,NA,NA,NA,"",NA,NA,NA,NA,NA,"",NA,NA,NA,NA,NA,NA,NA,NA,NA,NA,73.33333333,-70,20,75,-51.66666667,18.33333333,18.33333333,-141.6666667,0.37,-0.28,1,0,0,0.201,"submitButton",0.206666667,-0.37,0,0,0,2,23,143,54,1,70,67276,1,180,"2022-02-10_12h43.07.145","orientation adjustment 1","2021.2.3","MacIntel",58.82352941,"",NA,NA,NA,NA,NA,""
"./67276_orientation_adjustment_1_2022-02-10_12h43.07.145.csv",NA,NA,NA,NA,NA,"",NA,NA,NA,NA,NA,"",NA,NA,NA,NA,NA,NA,NA,NA,NA,NA,21.11111111,57,20,75,65.11111111,8.111111111,8.111111111,-24.88888889,0.354444444,-0.315555556,1,0,0,0.145,"submitButton",-0.105555556,-0.381111111,0,0,0,2,24,144,41,1,57,67276,1,180,"2022-02-10_12h43.07.145","orientation adjustment 1","2021.2.3","MacIntel",58.82352941,"",NA,NA,NA,NA,NA,""
"./67276_orientation_adjustment_1_2022-02-10_12h43.07.145.csv",NA,NA,NA,NA,NA,"",NA,NA,NA,NA,NA,"",NA,NA,NA,NA,NA,NA,NA,NA,NA,NA,66.66666667,30,20,75,55.66666667,25.66666667,25.66666667,-34.33333333,-0.095555556,-0.417777778,1,0,0,0.834,"submitButton",0.065555556,-0.316666667,0,0,0,2,25,145,14,1,30,67276,1,180,"2022-02-10_12h43.07.145","orientation adjustment 1","2021.2.3","MacIntel",58.82352941,"",NA,NA,NA,NA,NA,""
"./67276_orientation_adjustment_1_2022-02-10_12h43.07.145.csv",NA,NA,NA,NA,NA,"",NA,NA,NA,NA,NA,"",NA,NA,NA,NA,NA,NA,NA,NA,NA,NA,30,-43,20,75,-38,5,5,-128,0.361111111,-0.281111111,1,0,0,0.05,"submitButton",-0.211111111,-0.42,0,0,0,2,26,146,27,1,43,67276,1,180,"2022-02-10_12h43.07.145","orientation adjustment 1","2021.2.3","MacIntel",58.82352941,"",NA,NA,NA,NA,NA,""
"./67276_orientation_adjustment_1_2022-02-10_12h43.07.145.csv",NA,NA,NA,NA,NA,"",NA,NA,NA,NA,NA,"",NA,NA,NA,NA,NA,NA,NA,NA,NA,NA,49.44444444,54,20,75,69.44444444,15.44444444,15.44444444,-20.55555556,0.371111111,-0.287777778,1,0,0,0.267,"submitButton",-0.153333333,-0.376666667,0,0,0,2,27,147,38,1,54,67276,1,180,"2022-02-10_12h43.07.145","orientation adjustment 1","2021.2.3","MacIntel",58.82352941,"",NA,NA,NA,NA,NA,""
"./67276_orientation_adjustment_1_2022-02-10_12h43.07.145.csv",NA,NA,NA,NA,NA,"",NA,NA,NA,NA,NA,"",NA,NA,NA,NA,NA,NA,NA,NA,NA,NA,48.33333333,-21,20,75,-20.66666667,0.333333333,0.333333333,-110.6666667,-0.185555556,-0.434444444,1,0,0,1.209,"submitButton",-0.197777778,-0.408888889,0,0,0,2,28,148,5,1,21,67276,1,180,"2022-02-10_12h43.07.145","orientation adjustment 1","2021.2.3","MacIntel",58.82352941,"",NA,NA,NA,NA,NA,""
"./67276_orientation_adjustment_1_2022-02-10_12h43.07.145.csv",NA,NA,NA,NA,NA,"",NA,NA,NA,NA,NA,"",NA,NA,NA,NA,NA,NA,NA,NA,NA,NA,21.11111111,24,20,75,30.11111111,6.111111111,6.111111111,-59.88888889,0.427777778,-0.307777778,1,0,0,0.228,"submitButton",0.373333333,-0.395555556,1,0,0,2,29,149,8,1,24,67276,1,180,"2022-02-10_12h43.07.145","orientation adjustment 1","2021.2.3","MacIntel",58.82352941,"pause_continueButton",NA,NA,NA,NA,NA,""
"./67276_orientation_adjustment_1_2022-02-10_12h43.07.145.csv",NA,NA,NA,NA,NA,"",NA,NA,NA,NA,NA,"",NA,NA,NA,NA,NA,NA,NA,NA,NA,NA,48.33333333,-41,20,75,-33.66666667,7.333333333,7.333333333,-123.6666667,-0.213333333,-0.438888889,1,0,0,0.885,"submitButton",-0.241111111,-0.387777778,0,0,0,2,30,150,25,1,41,67276,1,180,"2022-02-10_12h43.07.145","orientation adjustment 1","2021.2.3","MacIntel",58.82352941,"",NA,NA,NA,NA,NA,""
"./67276_orientation_adjustment_1_2022-02-10_12h43.07.145.csv",NA,NA,NA,NA,NA,"",NA,NA,NA,NA,NA,"",NA,NA,NA,NA,NA,NA,NA,NA,NA,NA,61.66666667,52,20,75,69.66666667,17.66666667,17.66666667,-20.33333333,0.34,-0.282222222,1,0,0,0.153,"submitButton",0.361111111,-0.36,0,0,0,2,31,151,36,1,52,67276,1,180,"2022-02-10_12h43.07.145","orientation adjustment 1","2021.2.3","MacIntel",58.82352941,"",NA,NA,NA,NA,NA,""
"./67276_orientation_adjustment_1_2022-02-10_12h43.07.145.csv",NA,NA,NA,NA,NA,"",NA,NA,NA,NA,NA,"",NA,NA,NA,NA,NA,NA,NA,NA,NA,NA,65.55555556,-46,20,75,-28.44444444,17.55555556,17.55555556,-118.4444444,-0.202222222,-0.428888889,1,0,0,0.951,"submitButton",0.141111111,-0.321111111,0,0,0,2,32,152,30,1,46,67276,1,180,"2022-02-10_12h43.07.145","orientation adjustment 1","2021.2.3","MacIntel",58.82352941,"",NA,NA,NA,NA,NA,""
"./67276_orientation_adjustment_1_2022-02-10_12h43.07.145.csv",NA,NA,NA,NA,NA,"",NA,NA,NA,NA,NA,"",NA,NA,NA,NA,NA,NA,NA,NA,NA,NA,-27.22222222,75,20,75,73.77777778,1.222222222,1.222222222,-16.22222222,-0.145555556,-0.374444444,1,0,0,0.517,"submitButton",-0.146666667,-0.374444444,0,0,0,2,33,153,59,1,75,67276,1,180,"2022-02-10_12h43.07.145","orientation adjustment 1","2021.2.3","MacIntel",58.82352941,"",NA,NA,NA,NA,NA,""
"./67276_orientation_adjustment_1_2022-02-10_12h43.07.145.csv",NA,NA,NA,NA,NA,"",NA,NA,NA,NA,NA,"",NA,NA,NA,NA,NA,NA,NA,NA,NA,NA,-56.66666667,29,20,75,41.33333333,12.33333333,12.33333333,-48.66666667,0.224444444,-0.325555556,1,0,0,0.246,"submitButton",-0.142222222,-0.381111111,0,0,0,2,34,154,13,1,29,67276,1,180,"2022-02-10_12h43.07.145","orientation adjustment 1","2021.2.3","MacIntel",58.82352941,"",NA,NA,NA,NA,NA,""
"./67276_orientation_adjustment_1_2022-02-10_12h43.07.145.csv",NA,NA,NA,NA,NA,"",NA,NA,NA,NA,NA,"",NA,NA,NA,NA,NA,NA,NA,NA,NA,NA,22.22222222,58,20,75,64.22222222,6.222222222,6.222222222,-25.77777778,0.35,-0.307777778,1,0,0,0.382,"submitButton",-0.153333333,-0.401111111,0,0,0,2,35,155,42,1,58,67276,1,180,"2022-02-10_12h43.07.145","orientation adjustment 1","2021.2.3","MacIntel",58.82352941,"",NA,NA,NA,NA,NA,""
"./67276_orientation_adjustment_1_2022-02-10_12h43.07.145.csv",NA,NA,NA,NA,NA,"",NA,NA,NA,NA,NA,"",NA,NA,NA,NA,NA,NA,NA,NA,NA,NA,72.22222222,-51,20,75,-36.77777778,14.22222222,14.22222222,-126.7777778,-0.107777778,-0.427777778,1,0,0,1.116,"submitButton",-0.107777778,-0.426666667,0,0,0,2,36,156,35,1,51,67276,1,180,"2022-02-10_12h43.07.145","orientation adjustment 1","2021.2.3","MacIntel",58.82352941,"",NA,NA,NA,NA,NA,""
"./67276_orientation_adjustment_1_2022-02-10_12h43.07.145.csv",NA,NA,NA,NA,NA,"",NA,NA,NA,NA,NA,"",NA,NA,NA,NA,NA,NA,NA,NA,NA,NA,52.77777778,72,20,75,208.7777778,43.22222222,43.22222222,118.7777778,-0.191111111,-0.375555556,1,0,0,1.623,"submitButton",-0.191111111,-0.375555556,0,0,0,2,37,157,56,1,72,67276,1,180,"2022-02-10_12h43.07.145","orientation adjustment 1","2021.2.3","MacIntel",58.82352941,"",NA,NA,NA,NA,NA,""
"./67276_orientation_adjustment_1_2022-02-10_12h43.07.145.csv",NA,NA,NA,NA,NA,"",NA,NA,NA,NA,NA,"",NA,NA,NA,NA,NA,NA,NA,NA,NA,NA,-46.66666667,18,20,75,29.33333333,11.33333333,11.33333333,-60.66666667,-0.168888889,-0.406666667,1,0,0,1.299,"submitButton",0.214444444,-0.312222222,0,0,0,2,38,158,2,1,18,67276,1,180,"2022-02-10_12h43.07.145","orientation adjustment 1","2021.2.3","MacIntel",58.82352941,"",NA,NA,NA,NA,NA,""
"./67276_orientation_adjustment_1_2022-02-10_12h43.07.145.csv",NA,NA,NA,NA,NA,"",NA,NA,NA,NA,NA,"",NA,NA,NA,NA,NA,NA,NA,NA,NA,NA,-37.22222222,23,20,75,34.77777778,11.77777778,11.77777778,-55.22222222,-0.226666667,-0.4,1,0,0,1.049,"submitButton",-0.227777778,-0.398888889,0,0,0,2,39,159,7,1,23,67276,1,180,"2022-02-10_12h43.07.145","orientation adjustment 1","2021.2.3","MacIntel",58.82352941,"",NA,NA,NA,NA,NA,""
"./67276_orientation_adjustment_1_2022-02-10_12h43.07.145.csv",NA,NA,NA,NA,NA,"",NA,NA,NA,NA,NA,"",NA,NA,NA,NA,NA,NA,NA,NA,NA,NA,-38.33333333,26,20,75,20.66666667,5.333333333,5.333333333,-69.33333333,-0.265555556,-0.41,1,0,0,1.047,"submitButton",-0.265555556,-0.41,0,0,0,2,40,160,10,1,26,67276,1,180,"2022-02-10_12h43.07.145","orientation adjustment 1","2021.2.3","MacIntel",58.82352941,"",NA,NA,NA,NA,NA,""
"./67276_orientation_adjustment_1_2022-02-10_12h43.07.145.csv",NA,NA,NA,NA,NA,"",NA,NA,NA,NA,NA,"",NA,NA,NA,NA,NA,NA,NA,NA,NA,NA,46.11111111,-27,20,75,-25.88888889,1.111111111,1.111111111,-115.8888889,-0.18,-0.422222222,1,0,0,0.675,"submitButton",-0.178888889,-0.422222222,0,0,0,2,41,161,11,1,27,67276,1,180,"2022-02-10_12h43.07.145","orientation adjustment 1","2021.2.3","MacIntel",58.82352941,"",NA,NA,NA,NA,NA,""
"./67276_orientation_adjustment_1_2022-02-10_12h43.07.145.csv",NA,NA,NA,NA,NA,"",NA,NA,NA,NA,NA,"",NA,NA,NA,NA,NA,NA,NA,NA,NA,NA,-27.22222222,-20,20,75,-29.22222222,9.222222222,9.222222222,-119.2222222,0.402222222,-0.271111111,1,0,0,0.8,"submitButton",-0.123333333,-0.386666667,0,0,0,2,42,162,4,1,20,67276,1,180,"2022-02-10_12h43.07.145","orientation adjustment 1","2021.2.3","MacIntel",58.82352941,"",NA,NA,NA,NA,NA,""
"./67276_orientation_adjustment_1_2022-02-10_12h43.07.145.csv",NA,NA,NA,NA,NA,"",NA,NA,NA,NA,NA,"",NA,NA,NA,NA,NA,NA,NA,NA,NA,NA,45,61,20,75,216,25,25,126,0.186666667,-0.32,1,0,0,1.315,"submitButton",0.005555556,-0.244444444,0,0,0,2,43,163,45,1,61,67276,1,180,"2022-02-10_12h43.07.145","orientation adjustment 1","2021.2.3","MacIntel",58.82352941,"",NA,NA,NA,NA,NA,""
"./67276_orientation_adjustment_1_2022-02-10_12h43.07.145.csv",NA,NA,NA,NA,NA,"",NA,NA,NA,NA,NA,"",NA,NA,NA,NA,NA,NA,NA,NA,NA,NA,71.11111111,-69,20,75,-40.88888889,28.11111111,28.11111111,-130.8888889,-0.108888889,-0.453333333,1,0,0,1.246,"submitButton",0.241111111,-0.402222222,1,0,0,2,44,164,53,1,69,67276,1,180,"2022-02-10_12h43.07.145","orientation adjustment 1","2021.2.3","MacIntel",58.82352941,"pause_continueButton",NA,NA,NA,NA,NA,""
"./67276_orientation_adjustment_1_2022-02-10_12h43.07.145.csv",NA,NA,NA,NA,NA,"",NA,NA,NA,NA,NA,"",NA,NA,NA,NA,NA,NA,NA,NA,NA,NA,49.44444444,-64,20,75,-40.55555556,23.44444444,23.44444444,-130.5555556,-0.202222222,-0.427777778,1,0,0,1.532,"submitButton",0.448888889,-0.221111111,0,0,0,2,45,165,48,1,64,67276,1,180,"2022-02-10_12h43.07.145","orientation adjustment 1","2021.2.3","MacIntel",58.82352941,"",NA,NA,NA,NA,NA,""
"./67276_orientation_adjustment_1_2022-02-10_12h43.07.145.csv",NA,NA,NA,NA,NA,"",NA,NA,NA,NA,NA,"",NA,NA,NA,NA,NA,NA,NA,NA,NA,NA,66.66666667,-47,20,75,-41.33333333,5.666666667,5.666666667,-131.3333333,-0.317777778,-0.478888889,1,0,0,1.633,"submitButton",0.205555556,-0.355555556,0,0,0,2,46,166,31,1,47,67276,1,180,"2022-02-10_12h43.07.145","orientation adjustment 1","2021.2.3","MacIntel",58.82352941,"",NA,NA,NA,NA,NA,""
"./67276_orientation_adjustment_1_2022-02-10_12h43.07.145.csv",NA,NA,NA,NA,NA,"",NA,NA,NA,NA,NA,"",NA,NA,NA,NA,NA,NA,NA,NA,NA,NA,36.11111111,17,20,75,51.11111111,34.11111111,34.11111111,-38.88888889,-0.164444444,-0.422222222,1,0,0,1,"submitButton",0.281111111,-0.344444444,0,0,0,2,47,167,1,1,17,67276,1,180,"2022-02-10_12h43.07.145","orientation adjustment 1","2021.2.3","MacIntel",58.82352941,"",NA,NA,NA,NA,NA,""
"./67276_orientation_adjustment_1_2022-02-10_12h43.07.145.csv",NA,NA,NA,NA,NA,"",NA,NA,NA,NA,NA,"",NA,NA,NA,NA,NA,NA,NA,NA,NA,NA,-50.55555556,-50,20,75,-213.5555556,16.44444444,16.44444444,-303.5555556,-0.246666667,-0.393333333,1,0,0,2.643,"submitButton",0.314444444,-0.324444444,0,0,0,2,48,168,34,1,50,67276,1,180,"2022-02-10_12h43.07.145","orientation adjustment 1","2021.2.3","MacIntel",58.82352941,"",NA,NA,NA,NA,NA,""
"./67276_orientation_adjustment_1_2022-02-10_12h43.07.145.csv",NA,NA,NA,NA,NA,"",NA,NA,NA,NA,NA,"",NA,NA,NA,NA,NA,NA,NA,NA,NA,NA,-58.88888889,35,20,75,32.11111111,2.888888889,2.888888889,-57.88888889,-0.214444444,-0.414444444,1,0,0,1.072,"submitButton",0.304444444,-0.306666667,0,0,0,2,49,169,19,1,35,67276,1,180,"2022-02-10_12h43.07.145","orientation adjustment 1","2021.2.3","MacIntel",58.82352941,"",NA,NA,NA,NA,NA,""
"./67276_orientation_adjustment_1_2022-02-10_12h43.07.145.csv",NA,NA,NA,NA,NA,"",NA,NA,NA,NA,NA,"",NA,NA,NA,NA,NA,NA,NA,NA,NA,NA,-53.33333333,-44,20,75,-208.3333333,15.66666667,15.66666667,-298.3333333,0.437777778,-0.286666667,1,0,0,0.383,"submitButton",0.241111111,-0.268888889,0,0,0,2,50,170,28,1,44,67276,1,180,"2022-02-10_12h43.07.145","orientation adjustment 1","2021.2.3","MacIntel",58.82352941,"",NA,NA,NA,NA,NA,""
"./67276_orientation_adjustment_1_2022-02-10_12h43.07.145.csv",NA,NA,NA,NA,NA,"",NA,NA,NA,NA,NA,"",NA,NA,NA,NA,NA,NA,NA,NA,NA,NA,-71.66666667,55,20,75,38.33333333,16.66666667,16.66666667,-51.66666667,-0.158888889,-0.43,1,0,0,0.901,"submitButton",0.148888889,-0.218888889,0,0,0,2,51,171,39,1,55,67276,1,180,"2022-02-10_12h43.07.145","orientation adjustment 1","2021.2.3","MacIntel",58.82352941,"",NA,NA,NA,NA,NA,""
"./67276_orientation_adjustment_1_2022-02-10_12h43.07.145.csv",NA,NA,NA,NA,NA,"",NA,NA,NA,NA,NA,"",NA,NA,NA,NA,NA,NA,NA,NA,NA,NA,32.77777778,71,20,75,71.77777778,0.777777778,0.777777778,-18.22222222,0.394444444,-0.312222222,1,0,0,0.385,"submitButton",-0.167777778,-0.405555556,0,0,0,2,52,172,55,1,71,67276,1,180,"2022-02-10_12h43.07.145","orientation adjustment 1","2021.2.3","MacIntel",58.82352941,"",NA,NA,NA,NA,NA,""
"./67276_orientation_adjustment_1_2022-02-10_12h43.07.145.csv",NA,NA,NA,NA,NA,"",NA,NA,NA,NA,NA,"",NA,NA,NA,NA,NA,NA,NA,NA,NA,NA,-61.11111111,68,20,75,45.88888889,22.11111111,22.11111111,-44.11111111,-0.182222222,-0.383333333,1,0,0,0.765,"submitButton",-0.182222222,-0.383333333,0,0,0,2,53,173,52,1,68,67276,1,180,"2022-02-10_12h43.07.145","orientation adjustment 1","2021.2.3","MacIntel",58.82352941,"",NA,NA,NA,NA,NA,""
"./67276_orientation_adjustment_1_2022-02-10_12h43.07.145.csv",NA,NA,NA,NA,NA,"",NA,NA,NA,NA,NA,"",NA,NA,NA,NA,NA,NA,NA,NA,NA,NA,25.55555556,-40,20,75,-27.44444444,12.55555556,12.55555556,-117.4444444,0.368888889,-0.311111111,1,0,0,0.241,"submitButton",-0.068888889,-0.368888889,0,0,0,2,54,174,24,1,40,67276,1,180,"2022-02-10_12h43.07.145","orientation adjustment 1","2021.2.3","MacIntel",58.82352941,"",NA,NA,NA,NA,NA,""
"./67276_orientation_adjustment_1_2022-02-10_12h43.07.145.csv",NA,NA,NA,NA,NA,"",NA,NA,NA,NA,NA,"",NA,NA,NA,NA,NA,NA,NA,NA,NA,NA,72.22222222,-66,20,75,-28.77777778,37.22222222,37.22222222,-118.7777778,0.386666667,-0.304444444,1,0,0,1.025,"submitButton",-0.168888889,-0.403333333,0,0,0,2,55,175,50,1,66,67276,1,180,"2022-02-10_12h43.07.145","orientation adjustment 1","2021.2.3","MacIntel",58.82352941,"",NA,NA,NA,NA,NA,""
"./67276_orientation_adjustment_1_2022-02-10_12h43.07.145.csv",NA,NA,NA,NA,NA,"",NA,NA,NA,NA,NA,"",NA,NA,NA,NA,NA,NA,NA,NA,NA,NA,-22.77777778,-33,20,75,-47.77777778,14.77777778,14.77777778,-137.7777778,-0.185555556,-0.383333333,1,0,0,0.699,"submitButton",-0.185555556,-0.383333333,0,0,0,2,56,176,17,1,33,67276,1,180,"2022-02-10_12h43.07.145","orientation adjustment 1","2021.2.3","MacIntel",58.82352941,"",NA,NA,NA,NA,NA,""
"./67276_orientation_adjustment_1_2022-02-10_12h43.07.145.csv",NA,NA,NA,NA,NA,"",NA,NA,NA,NA,NA,"",NA,NA,NA,NA,NA,NA,NA,NA,NA,NA,-47.77777778,37,20,75,26.22222222,10.77777778,10.77777778,-63.77777778,-0.191111111,-0.417777778,1,0,0,0.833,"submitButton",-0.192222222,-0.417777778,0,0,0,2,57,177,21,1,37,67276,1,180,"2022-02-10_12h43.07.145","orientation adjustment 1","2021.2.3","MacIntel",58.82352941,"",NA,NA,NA,NA,NA,""
"./67276_orientation_adjustment_1_2022-02-10_12h43.07.145.csv",NA,NA,NA,NA,NA,"",NA,NA,NA,NA,NA,"",NA,NA,NA,NA,NA,NA,NA,NA,NA,NA,65.55555556,-60,20,75,-30.44444444,29.55555556,29.55555556,-120.4444444,-0.206666667,-0.433333333,1,0,0,0.766,"submitButton",0.09,-0.282222222,0,0,0,2,58,178,44,1,60,67276,1,180,"2022-02-10_12h43.07.145","orientation adjustment 1","2021.2.3","MacIntel",58.82352941,"",NA,NA,NA,NA,NA,""
"./67276_orientation_adjustment_1_2022-02-10_12h43.07.145.csv",NA,NA,NA,NA,NA,"",NA,NA,NA,NA,NA,"",NA,NA,NA,NA,NA,NA,NA,NA,NA,NA,22.77777778,42,20,75,52.77777778,10.77777778,10.77777778,-37.22222222,0.388888889,-0.295555556,1,0,0,0.234,"submitButton",0.16,-0.205555556,0,0,0,2,59,179,26,1,42,67276,1,180,"2022-02-10_12h43.07.145","orientation adjustment 1","2021.2.3","MacIntel",58.82352941,"",NA,NA,NA,NA,NA,""
"./67276_orientation_adjustment_1_2022-02-10_12h43.07.145.csv",NA,NA,NA,NA,NA,"",NA,NA,NA,NA,NA,"",NA,NA,NA,NA,NA,NA,NA,NA,NA,NA,NA,NA,NA,NA,NA,NA,NA,NA,NA,NA,NA,NA,NA,NA,"",NA,NA,NA,NA,NA,NA,NA,NA,NA,NA,NA,67276,1,180,"2022-02-10_12h43.07.145","orientation adjustment 1","2021.2.3","MacIntel",58.82352941,"",0.392222222,-0.4,1,0,0,"EndButtonTxt"
"./67417_orientation_adjustment_1_2022-02-10_08h29.01.418.csv",0.323702257,-0.408355035,1,0,0,"consent_button1",0.397664931,-0.405954861,1,0,0,"consent_button",0.158242187,-0.209895833,1,0,0,0.189557292,-0.31577691,1,0,0,-56.66666667,-20,20,75,-70.66666667,50.66666667,50.66666667,-160.6666667,-0.423641493,-0.332235243,1,0,0,6.2651,"submitButton",-0.412803819,-0.398519965,0,0,0,0,0,0,4,1,20,67417,1,180,"2022-02-10_08h29.01.418","orientation adjustment 1","2021.2.3","MacIntel",60.0024001,"",NA,NA,NA,NA,NA,""
"./67417_orientation_adjustment_1_2022-02-10_08h29.01.418.csv",NA,NA,NA,NA,NA,"",NA,NA,NA,NA,NA,"",NA,NA,NA,NA,NA,NA,NA,NA,NA,NA,73.33333333,-54,20,75,52.33333333,73.66666667,73.66666667,-37.66666667,0.223003472,-0.283315972,1,0,0,2.1329,"submitButton",-0.210581597,-0.415750868,0,0,0,0,1,1,38,1,54,67417,1,180,"2022-02-10_08h29.01.418","orientation adjustment 1","2021.2.3","MacIntel",60.0024001,"",NA,NA,NA,NA,NA,""
"./67417_orientation_adjustment_1_2022-02-10_08h29.01.418.csv",NA,NA,NA,NA,NA,"",NA,NA,NA,NA,NA,"",NA,NA,NA,NA,NA,NA,NA,NA,NA,NA,-22.77777778,21,20,75,31.22222222,10.22222222,10.22222222,-58.77777778,0.188980035,-0.272743056,1,0,0,1.1329,"submitButton",-0.25234809,-0.422313368,0,0,0,0,2,2,5,1,21,67417,1,180,"2022-02-10_08h29.01.418","orientation adjustment 1","2021.2.3","MacIntel",60.0024001,"",NA,NA,NA,NA,NA,""
"./67417_orientation_adjustment_1_2022-02-10_08h29.01.418.csv",NA,NA,NA,NA,NA,"",NA,NA,NA,NA,NA,"",NA,NA,NA,NA,NA,NA,NA,NA,NA,NA,26.11111111,-45,20,75,-2.888888889,42.11111111,42.11111111,-92.88888889,0.179140625,-0.316835937,1,0,0,1.2505,"submitButton",0.481944444,-0.323220486,0,0,0,0,3,3,29,1,45,67417,1,180,"2022-02-10_08h29.01.418","orientation adjustment 1","2021.2.3","MacIntel",60.0024001,"",NA,NA,NA,NA,NA,""
"./67417_orientation_adjustment_1_2022-02-10_08h29.01.418.csv",NA,NA,NA,NA,NA,"",NA,NA,NA,NA,NA,"",NA,NA,NA,NA,NA,NA,NA,NA,NA,NA,-53.88888889,64,20,75,45.11111111,18.88888889,18.88888889,-44.88888889,0.216605903,-0.299965278,1,0,0,0.0334,"submitButton",0.260455729,-0.147782118,0,0,0,0,4,4,48,1,64,67417,1,180,"2022-02-10_08h29.01.418","orientation adjustment 1","2021.2.3","MacIntel",60.0024001,"",NA,NA,NA,NA,NA,""
"./67417_orientation_adjustment_1_2022-02-10_08h29.01.418.csv",NA,NA,NA,NA,NA,"",NA,NA,NA,NA,NA,"",NA,NA,NA,NA,NA,NA,NA,NA,NA,NA,69.44444444,18,20,75,63.44444444,45.44444444,45.44444444,-26.55555556,0.405711806,-0.268576389,1,0,0,0.4497,"submitButton",-0.165907118,-0.399253472,0,0,0,0,5,5,2,1,18,67417,1,180,"2022-02-10_08h29.01.418","orientation adjustment 1","2021.2.3","MacIntel",60.0024001,"",NA,NA,NA,NA,NA,""
"./67417_orientation_adjustment_1_2022-02-10_08h29.01.418.csv",NA,NA,NA,NA,NA,"",NA,NA,NA,NA,NA,"",NA,NA,NA,NA,NA,NA,NA,NA,NA,NA,-45.55555556,46,20,75,40.44444444,5.555555556,5.555555556,-49.55555556,0.198884549,-0.310898438,1,0,0,0.117,"submitButton",-0.292829861,-0.414301215,0,0,0,0,6,6,30,1,46,67417,1,180,"2022-02-10_08h29.01.418","orientation adjustment 1","2021.2.3","MacIntel",60.0024001,"",NA,NA,NA,NA,NA,""
"./67417_orientation_adjustment_1_2022-02-10_08h29.01.418.csv",NA,NA,NA,NA,NA,"",NA,NA,NA,NA,NA,"",NA,NA,NA,NA,NA,NA,NA,NA,NA,NA,-57.22222222,66,20,75,41.77777778,24.22222222,24.22222222,-48.22222222,0.167408854,-0.296501736,1,0,0,0.0501,"submitButton",0.183880208,-0.254500868,0,0,0,0,7,7,50,1,66,67417,1,180,"2022-02-10_08h29.01.418","orientation adjustment 1","2021.2.3","MacIntel",60.0024001,"",NA,NA,NA,NA,NA,""
"./67417_orientation_adjustment_1_2022-02-10_08h29.01.418.csv",NA,NA,NA,NA,NA,"",NA,NA,NA,NA,NA,"",NA,NA,NA,NA,NA,NA,NA,NA,NA,NA,-64.44444444,-42,20,75,-214.4444444,7.555555556,7.555555556,-304.4444444,0.419140625,-0.267599826,1,0,0,0.0837,"submitButton",-0.250798611,-0.413085938,0,0,0,0,8,8,26,1,42,67417,1,180,"2022-02-10_08h29.01.418","orientation adjustment 1","2021.2.3","MacIntel",60.0024001,"",NA,NA,NA,NA,NA,""
"./67417_orientation_adjustment_1_2022-02-10_08h29.01.418.csv",NA,NA,NA,NA,NA,"",NA,NA,NA,NA,NA,"",NA,NA,NA,NA,NA,NA,NA,NA,NA,NA,-46.66666667,26,20,75,23.33333333,2.666666667,2.666666667,-66.66666667,0.163541667,-0.287044271,1,0,0,0.0338,"submitButton",0.129804687,-0.248719618,0,0,0,0,9,9,10,1,26,67417,1,180,"2022-02-10_08h29.01.418","orientation adjustment 1","2021.2.3","MacIntel",60.0024001,"",NA,NA,NA,NA,NA,""
"./67417_orientation_adjustment_1_2022-02-10_08h29.01.418.csv",NA,NA,NA,NA,NA,"",NA,NA,NA,NA,NA,"",NA,NA,NA,NA,NA,NA,NA,NA,NA,NA,55.55555556,57,20,75,234.5555556,2.444444444,2.444444444,144.5555556,-0.35984375,-0.402994792,1,0,0,2.3497,"submitButton",-0.359288194,-0.400833333,0,0,0,0,10,10,41,1,57,67417,1,180,"2022-02-10_08h29.01.418","orientation adjustment 1","2021.2.3","MacIntel",60.0024001,"",NA,NA,NA,NA,NA,""
"./67417_orientation_adjustment_1_2022-02-10_08h29.01.418.csv",NA,NA,NA,NA,NA,"",NA,NA,NA,NA,NA,"",NA,NA,NA,NA,NA,NA,NA,NA,NA,NA,-36.11111111,16,20,75,18.88888889,2.888888889,2.888888889,-71.11111111,-0.285442708,-0.385190972,1,0,0,1.3154,"submitButton",-0.285442708,-0.385190972,0,0,0,0,11,11,0,1,16,67417,1,180,"2022-02-10_08h29.01.418","orientation adjustment 1","2021.2.3","MacIntel",60.0024001,"",NA,NA,NA,NA,NA,""
"./67417_orientation_adjustment_1_2022-02-10_08h29.01.418.csv",NA,NA,NA,NA,NA,"",NA,NA,NA,NA,NA,"",NA,NA,NA,NA,NA,NA,NA,NA,NA,NA,53.88888889,40,20,75,215.8888889,4.111111111,4.111111111,125.8888889,-0.235542535,-0.406223958,1,0,0,2.5509,"submitButton",-0.235542535,-0.409001736,0,0,0,0,12,12,24,1,40,67417,1,180,"2022-02-10_08h29.01.418","orientation adjustment 1","2021.2.3","MacIntel",60.0024001,"",NA,NA,NA,NA,NA,""
"./67417_orientation_adjustment_1_2022-02-10_08h29.01.418.csv",NA,NA,NA,NA,NA,"",NA,NA,NA,NA,NA,"",NA,NA,NA,NA,NA,NA,NA,NA,NA,NA,30,60,20,75,232,8,8,142,-0.293012153,-0.410607639,1,0,0,2.5836,"submitButton",0.394201389,-0.231059028,0,0,0,0,13,13,44,1,60,67417,1,180,"2022-02-10_08h29.01.418","orientation adjustment 1","2021.2.3","MacIntel",60.0024001,"",NA,NA,NA,NA,NA,""
"./67417_orientation_adjustment_1_2022-02-10_08h29.01.418.csv",NA,NA,NA,NA,NA,"",NA,NA,NA,NA,NA,"",NA,NA,NA,NA,NA,NA,NA,NA,NA,NA,28.33333333,-65,20,75,59.33333333,55.66666667,55.66666667,-30.66666667,-0.214661458,-0.399822049,1,0,0,1.666,"submitButton",0.287083333,-0.374318576,1,0,0,0,14,14,49,1,65,67417,1,180,"2022-02-10_08h29.01.418","orientation adjustment 1","2021.2.3","MacIntel",60.0024001,"pause_continueButton",NA,NA,NA,NA,NA,""
"./67417_orientation_adjustment_1_2022-02-10_08h29.01.418.csv",NA,NA,NA,NA,NA,"",NA,NA,NA,NA,NA,"",NA,NA,NA,NA,NA,NA,NA,NA,NA,NA,-53.33333333,71,20,75,67.66666667,3.333333333,3.333333333,-22.33333333,0.262730035,-0.330121528,1,0,0,1.283,"submitButton",0.228463542,-0.280881076,0,0,0,0,15,15,55,1,71,67417,1,180,"2022-02-10_08h29.01.418","orientation adjustment 1","2021.2.3","MacIntel",60.0024001,"",NA,NA,NA,NA,NA,""
"./67417_orientation_adjustment_1_2022-02-10_08h29.01.418.csv",NA,NA,NA,NA,NA,"",NA,NA,NA,NA,NA,"",NA,NA,NA,NA,NA,NA,NA,NA,NA,NA,-23.88888889,50,20,75,34.11111111,15.88888889,15.88888889,-55.88888889,0.449704861,-0.279296875,1,0,0,0.5002,"submitButton",0.202296007,-0.171705729,0,0,0,0,16,16,34,1,50,67417,1,180,"2022-02-10_08h29.01.418","orientation adjustment 1","2021.2.3","MacIntel",60.0024001,"",NA,NA,NA,NA,NA,""
"./67417_orientation_adjustment_1_2022-02-10_08h29.01.418.csv",NA,NA,NA,NA,NA,"",NA,NA,NA,NA,NA,"",NA,NA,NA,NA,NA,NA,NA,NA,NA,NA,44.44444444,56,20,75,231.4444444,4.555555556,4.555555556,141.4444444,-0.225703125,-0.399761285,1,0,0,2.6341,"submitButton",-0.225147569,-0.399205729,0,0,0,0,17,17,40,1,56,67417,1,180,"2022-02-10_08h29.01.418","orientation adjustment 1","2021.2.3","MacIntel",60.0024001,"",NA,NA,NA,NA,NA,""
"./67417_orientation_adjustment_1_2022-02-10_08h29.01.418.csv",NA,NA,NA,NA,NA,"",NA,NA,NA,NA,NA,"",NA,NA,NA,NA,NA,NA,NA,NA,NA,NA,47.22222222,24,20,75,34.22222222,10.22222222,10.22222222,-55.77777778,-0.258359375,-0.4259375,1,0,0,0.9671,"submitButton",-0.047916667,-0.387465278,0,0,0,0,18,18,8,1,24,67417,1,180,"2022-02-10_08h29.01.418","orientation adjustment 1","2021.2.3","MacIntel",60.0024001,"",NA,NA,NA,NA,NA,""
"./67417_orientation_adjustment_1_2022-02-10_08h29.01.418.csv",NA,NA,NA,NA,NA,"",NA,NA,NA,NA,NA,"",NA,NA,NA,NA,NA,NA,NA,NA,NA,NA,-38.88888889,-53,20,75,-222.8888889,10.11111111,10.11111111,-312.8888889,-0.258185764,-0.392135417,1,0,0,2.4999,"submitButton",-0.258185764,-0.391579861,0,0,0,0,19,19,37,1,53,67417,1,180,"2022-02-10_08h29.01.418","orientation adjustment 1","2021.2.3","MacIntel",60.0024001,"",NA,NA,NA,NA,NA,""
"./67417_orientation_adjustment_1_2022-02-10_08h29.01.418.csv",NA,NA,NA,NA,NA,"",NA,NA,NA,NA,NA,"",NA,NA,NA,NA,NA,NA,NA,NA,NA,NA,-61.11111111,-22,20,75,-55.11111111,33.11111111,33.11111111,-145.1111111,0.16108941,-0.292309028,1,0,0,0.4505,"submitButton",0.31905816,-0.290286458,0,0,0,0,20,20,6,1,22,67417,1,180,"2022-02-10_08h29.01.418","orientation adjustment 1","2021.2.3","MacIntel",60.0024001,"",NA,NA,NA,NA,NA,""
"./67417_orientation_adjustment_1_2022-02-10_08h29.01.418.csv",NA,NA,NA,NA,NA,"",NA,NA,NA,NA,NA,"",NA,NA,NA,NA,NA,NA,NA,NA,NA,NA,34.44444444,-32,20,75,-35.55555556,3.555555556,3.555555556,-125.5555556,-0.186618924,-0.408663194,1,0,0,1.1341,"submitButton",-0.186618924,-0.408663194,0,0,0,0,21,21,16,1,32,67417,1,180,"2022-02-10_08h29.01.418","orientation adjustment 1","2021.2.3","MacIntel",60.0024001,"",NA,NA,NA,NA,NA,""
"./67417_orientation_adjustment_1_2022-02-10_08h29.01.418.csv",NA,NA,NA,NA,NA,"",NA,NA,NA,NA,NA,"",NA,NA,NA,NA,NA,NA,NA,NA,NA,NA,-26.11111111,36,20,75,32.88888889,3.111111111,3.111111111,-57.11111111,-0.134457465,-0.408528646,1,0,0,0.7494,"submitButton",-0.129079861,-0.409674479,0,0,0,0,22,22,20,1,36,67417,1,180,"2022-02-10_08h29.01.418","orientation adjustment 1","2021.2.3","MacIntel",60.0024001,"",NA,NA,NA,NA,NA,""
"./67417_orientation_adjustment_1_2022-02-10_08h29.01.418.csv",NA,NA,NA,NA,NA,"",NA,NA,NA,NA,NA,"",NA,NA,NA,NA,NA,NA,NA,NA,NA,NA,-67.22222222,31,20,75,32.77777778,1.777777778,1.777777778,-57.22222222,0.183480903,-0.300060764,1,0,0,0.0511,"submitButton",-0.261180556,-0.409118924,0,0,0,0,23,23,15,1,31,67417,1,180,"2022-02-10_08h29.01.418","orientation adjustment 1","2021.2.3","MacIntel",60.0024001,"",NA,NA,NA,NA,NA,""
"./67417_orientation_adjustment_1_2022-02-10_08h29.01.418.csv",NA,NA,NA,NA,NA,"",NA,NA,NA,NA,NA,"",NA,NA,NA,NA,NA,NA,NA,NA,NA,NA,-71.66666667,-73,20,75,-232.6666667,20.33333333,20.33333333,-322.6666667,-0.121037326,-0.403125,1,0,0,1.6661,"submitButton",-0.121037326,-0.403680556,0,0,0,0,24,24,57,1,73,67417,1,180,"2022-02-10_08h29.01.418","orientation adjustment 1","2021.2.3","MacIntel",60.0024001,"",NA,NA,NA,NA,NA,""
"./67417_orientation_adjustment_1_2022-02-10_08h29.01.418.csv",NA,NA,NA,NA,NA,"",NA,NA,NA,NA,NA,"",NA,NA,NA,NA,NA,NA,NA,NA,NA,NA,24.44444444,49,20,75,48.44444444,0.555555556,0.555555556,-41.55555556,0.35796875,-0.290598958,1,0,0,0.034,"submitButton",-0.214127604,-0.381822917,0,0,0,0,25,25,33,1,49,67417,1,180,"2022-02-10_08h29.01.418","orientation adjustment 1","2021.2.3","MacIntel",60.0024001,"",NA,NA,NA,NA,NA,""
"./67417_orientation_adjustment_1_2022-02-10_08h29.01.418.csv",NA,NA,NA,NA,NA,"",NA,NA,NA,NA,NA,"",NA,NA,NA,NA,NA,NA,NA,NA,NA,NA,33.33333333,-61,20,75,-44.66666667,16.33333333,16.33333333,-134.6666667,0.379565972,-0.280342882,1,0,0,0.7833,"submitButton",-0.131241319,-0.389422743,0,0,0,0,26,26,45,1,61,67417,1,180,"2022-02-10_08h29.01.418","orientation adjustment 1","2021.2.3","MacIntel",60.0024001,"",NA,NA,NA,NA,NA,""
"./67417_orientation_adjustment_1_2022-02-10_08h29.01.418.csv",NA,NA,NA,NA,NA,"",NA,NA,NA,NA,NA,"",NA,NA,NA,NA,NA,NA,NA,NA,NA,NA,50,-72,20,75,-59,13,13,-149,0.340381944,-0.289053819,1,0,0,0.1007,"submitButton",-0.149092882,-0.390915799,0,0,0,0,27,27,56,1,72,67417,1,180,"2022-02-10_08h29.01.418","orientation adjustment 1","2021.2.3","MacIntel",60.0024001,"",NA,NA,NA,NA,NA,""
"./67417_orientation_adjustment_1_2022-02-10_08h29.01.418.csv",NA,NA,NA,NA,NA,"",NA,NA,NA,NA,NA,"",NA,NA,NA,NA,NA,NA,NA,NA,NA,NA,-48.33333333,75,20,75,58.66666667,16.33333333,16.33333333,-31.33333333,0.194713542,-0.264418403,1,0,0,0.2828,"submitButton",-0.191358507,-0.405434028,0,0,0,0,28,28,59,1,75,67417,1,180,"2022-02-10_08h29.01.418","orientation adjustment 1","2021.2.3","MacIntel",60.0024001,"",NA,NA,NA,NA,NA,""
"./67417_orientation_adjustment_1_2022-02-10_08h29.01.418.csv",NA,NA,NA,NA,NA,"",NA,NA,NA,NA,NA,"",NA,NA,NA,NA,NA,NA,NA,NA,NA,NA,-47.22222222,44,20,75,35.77777778,8.222222222,8.222222222,-54.22222222,-0.181419271,-0.388098958,1,0,0,0.983,"submitButton",0.218185764,-0.405538194,1,0,0,0,29,29,28,1,44,67417,1,180,"2022-02-10_08h29.01.418","orientation adjustment 1","2021.2.3","MacIntel",60.0024001,"pause_continueButton",NA,NA,NA,NA,NA,""
"./67417_orientation_adjustment_1_2022-02-10_08h29.01.418.csv",NA,NA,NA,NA,NA,"",NA,NA,NA,NA,NA,"",NA,NA,NA,NA,NA,NA,NA,NA,NA,NA,41.66666667,-33,20,75,-20.33333333,12.66666667,12.66666667,-110.3333333,-0.199171007,-0.404852431,1,0,0,0.934,"submitButton",-0.199171007,-0.405407986,0,0,0,0,30,30,17,1,33,67417,1,180,"2022-02-10_08h29.01.418","orientation adjustment 1","2021.2.3","MacIntel",60.0024001,"",NA,NA,NA,NA,NA,""
"./67417_orientation_adjustment_1_2022-02-10_08h29.01.418.csv",NA,NA,NA,NA,NA,"",NA,NA,NA,NA,NA,"",NA,NA,NA,NA,NA,NA,NA,NA,NA,NA,-47.22222222,-19,20,75,-42.22222222,23.22222222,23.22222222,-132.2222222,0.196601562,-0.286888021,1,0,0,1.8665,"submitButton",-0.364244792,-0.412022569,0,0,0,0,31,31,3,1,19,67417,1,180,"2022-02-10_08h29.01.418","orientation adjustment 1","2021.2.3","MacIntel",60.0024001,"",NA,NA,NA,NA,NA,""
"./67417_orientation_adjustment_1_2022-02-10_08h29.01.418.csv",NA,NA,NA,NA,NA,"",NA,NA,NA,NA,NA,"",NA,NA,NA,NA,NA,NA,NA,NA,NA,NA,33.88888889,69,20,75,234.8888889,14.11111111,14.11111111,144.8888889,0.258194444,-0.294474826,1,0,0,2.4012,"submitButton",-0.106297743,-0.413190104,0,0,0,0,32,32,53,1,69,67417,1,180,"2022-02-10_08h29.01.418","orientation adjustment 1","2021.2.3","MacIntel",60.0024001,"",NA,NA,NA,NA,NA,""
"./67417_orientation_adjustment_1_2022-02-10_08h29.01.418.csv",NA,NA,NA,NA,NA,"",NA,NA,NA,NA,NA,"",NA,NA,NA,NA,NA,NA,NA,NA,NA,NA,-58.33333333,27,20,75,24.66666667,2.333333333,2.333333333,-65.33333333,0.204071181,-0.325438368,1,0,0,1.0673,"submitButton",-0.324748264,-0.422751736,0,0,0,0,33,33,11,1,27,67417,1,180,"2022-02-10_08h29.01.418","orientation adjustment 1","2021.2.3","MacIntel",60.0024001,"",NA,NA,NA,NA,NA,""
"./67417_orientation_adjustment_1_2022-02-10_08h29.01.418.csv",NA,NA,NA,NA,NA,"",NA,NA,NA,NA,NA,"",NA,NA,NA,NA,NA,NA,NA,NA,NA,NA,-22.77777778,-58,20,75,11.22222222,69.22222222,69.22222222,-78.77777778,0.19890625,-0.329440104,1,0,0,0.9331,"submitButton",-0.290733507,-0.421163194,0,0,0,0,34,34,42,1,58,67417,1,180,"2022-02-10_08h29.01.418","orientation adjustment 1","2021.2.3","MacIntel",60.0024001,"",NA,NA,NA,NA,NA,""
"./67417_orientation_adjustment_1_2022-02-10_08h29.01.418.csv",NA,NA,NA,NA,NA,"",NA,NA,NA,NA,NA,"",NA,NA,NA,NA,NA,NA,NA,NA,NA,NA,72.22222222,52,20,75,124.2222222,72.22222222,72.22222222,34.22222222,-0.178138021,-0.378142361,1,0,0,0.5665,"submitButton",-0.160798611,-0.37172309,0,0,0,0,35,35,36,1,52,67417,1,180,"2022-02-10_08h29.01.418","orientation adjustment 1","2021.2.3","MacIntel",60.0024001,"",NA,NA,NA,NA,NA,""
"./67417_orientation_adjustment_1_2022-02-10_08h29.01.418.csv",NA,NA,NA,NA,NA,"",NA,NA,NA,NA,NA,"",NA,NA,NA,NA,NA,NA,NA,NA,NA,NA,48.88888889,-63,20,75,-52.11111111,10.88888889,10.88888889,-142.1111111,-0.149457465,-0.430125868,1,0,0,1.3665,"submitButton",-0.0825,-0.369383681,0,0,0,0,36,36,47,1,63,67417,1,180,"2022-02-10_08h29.01.418","orientation adjustment 1","2021.2.3","MacIntel",60.0024001,"",NA,NA,NA,NA,NA,""
"./67417_orientation_adjustment_1_2022-02-10_08h29.01.418.csv",NA,NA,NA,NA,NA,"",NA,NA,NA,NA,NA,"",NA,NA,NA,NA,NA,NA,NA,NA,NA,NA,70,-25,20,75,-24,1,1,-114,0.376861979,-0.31266059,1,0,0,0.9158,"submitButton",-0.311276042,-0.397096354,0,0,0,0,37,37,9,1,25,67417,1,180,"2022-02-10_08h29.01.418","orientation adjustment 1","2021.2.3","MacIntel",60.0024001,"",NA,NA,NA,NA,NA,""
"./67417_orientation_adjustment_1_2022-02-10_08h29.01.418.csv",NA,NA,NA,NA,NA,"",NA,NA,NA,NA,NA,"",NA,NA,NA,NA,NA,NA,NA,NA,NA,NA,40,-30,20,75,42,72,72,-48,0.185828993,-0.288420139,1,0,0,8.6163,"submitButton",-0.262057292,-0.376384549,0,0,0,0,38,38,14,1,30,67417,1,180,"2022-02-10_08h29.01.418","orientation adjustment 1","2021.2.3","MacIntel",60.0024001,"",NA,NA,NA,NA,NA,""
"./67417_orientation_adjustment_1_2022-02-10_08h29.01.418.csv",NA,NA,NA,NA,NA,"",NA,NA,NA,NA,NA,"",NA,NA,NA,NA,NA,NA,NA,NA,NA,NA,74.44444444,41,20,75,213.4444444,7.555555556,7.555555556,123.4444444,-0.37109809,-0.410633681,1,0,0,2.1166,"submitButton",-0.37109809,-0.410633681,0,0,0,0,39,39,25,1,41,67417,1,180,"2022-02-10_08h29.01.418","orientation adjustment 1","2021.2.3","MacIntel",60.0024001,"",NA,NA,NA,NA,NA,""
"./67417_orientation_adjustment_1_2022-02-10_08h29.01.418.csv",NA,NA,NA,NA,NA,"",NA,NA,NA,NA,NA,"",NA,NA,NA,NA,NA,NA,NA,NA,NA,NA,26.66666667,-47,20,75,-44.33333333,2.666666667,2.666666667,-134.3333333,-0.264418403,-0.414479167,1,0,0,0.7659,"submitButton",-0.263862847,-0.413368056,0,0,0,0,40,40,31,1,47,67417,1,180,"2022-02-10_08h29.01.418","orientation adjustment 1","2021.2.3","MacIntel",60.0024001,"",NA,NA,NA,NA,NA,""
"./67417_orientation_adjustment_1_2022-02-10_08h29.01.418.csv",NA,NA,NA,NA,NA,"",NA,NA,NA,NA,NA,"",NA,NA,NA,NA,NA,NA,NA,NA,NA,NA,-23.88888889,-38,20,75,-44.88888889,6.888888889,6.888888889,-134.8888889,0.199626736,-0.297287326,1,0,0,0.0163,"submitButton",-0.364405382,-0.398107639,0,0,0,0,41,41,22,1,38,67417,1,180,"2022-02-10_08h29.01.418","orientation adjustment 1","2021.2.3","MacIntel",60.0024001,"",NA,NA,NA,NA,NA,""
"./67417_orientation_adjustment_1_2022-02-10_08h29.01.418.csv",NA,NA,NA,NA,NA,"",NA,NA,NA,NA,NA,"",NA,NA,NA,NA,NA,NA,NA,NA,NA,NA,-31.11111111,-51,20,75,-53.11111111,2.111111111,2.111111111,-143.1111111,0.242018229,-0.315911458,1,0,0,0.2665,"submitButton",-0.278567708,-0.42281684,0,0,0,0,42,42,35,1,51,67417,1,180,"2022-02-10_08h29.01.418","orientation adjustment 1","2021.2.3","MacIntel",60.0024001,"",NA,NA,NA,NA,NA,""
"./67417_orientation_adjustment_1_2022-02-10_08h29.01.418.csv",NA,NA,NA,NA,NA,"",NA,NA,NA,NA,NA,"",NA,NA,NA,NA,NA,NA,NA,NA,NA,NA,55.55555556,35,20,75,65.55555556,30.55555556,30.55555556,-24.44444444,0.353502604,-0.319305556,1,0,0,1.9994,"submitButton",-0.330885417,-0.402352431,0,0,0,0,43,43,19,1,35,67417,1,180,"2022-02-10_08h29.01.418","orientation adjustment 1","2021.2.3","MacIntel",60.0024001,"",NA,NA,NA,NA,NA,""
"./67417_orientation_adjustment_1_2022-02-10_08h29.01.418.csv",NA,NA,NA,NA,NA,"",NA,NA,NA,NA,NA,"",NA,NA,NA,NA,NA,NA,NA,NA,NA,NA,67.77777778,-62,20,75,5.777777778,67.77777778,67.77777778,-84.22222222,-0.191167535,-0.387204861,1,0,0,12.1164,"submitButton",0.250750868,-0.419253472,1,0,0,0,44,44,46,1,62,67417,1,180,"2022-02-10_08h29.01.418","orientation adjustment 1","2021.2.3","MacIntel",60.0024001,"pause_continueButton",NA,NA,NA,NA,NA,""
"./67417_orientation_adjustment_1_2022-02-10_08h29.01.418.csv",NA,NA,NA,NA,NA,"",NA,NA,NA,NA,NA,"",NA,NA,NA,NA,NA,NA,NA,NA,NA,NA,29.44444444,-74,20,75,-74.55555556,0.555555556,0.555555556,-164.5555556,-0.2925,-0.432261285,1,0,0,1.1685,"submitButton",-0.304084201,-0.409240451,0,0,0,0,45,45,58,1,74,67417,1,180,"2022-02-10_08h29.01.418","orientation adjustment 1","2021.2.3","MacIntel",60.0024001,"",NA,NA,NA,NA,NA,""
"./67417_orientation_adjustment_1_2022-02-10_08h29.01.418.csv",NA,NA,NA,NA,NA,"",NA,NA,NA,NA,NA,"",NA,NA,NA,NA,NA,NA,NA,NA,NA,NA,-40,-70,20,75,-66,4,4,-156,0.216766493,-0.302282986,1,0,0,0.0669,"submitButton",-0.245329861,-0.412126736,0,0,0,0,46,46,54,1,70,67417,1,180,"2022-02-10_08h29.01.418","orientation adjustment 1","2021.2.3","MacIntel",60.0024001,"",NA,NA,NA,NA,NA,""
"./67417_orientation_adjustment_1_2022-02-10_08h29.01.418.csv",NA,NA,NA,NA,NA,"",NA,NA,NA,NA,NA,"",NA,NA,NA,NA,NA,NA,NA,NA,NA,NA,-56.66666667,39,20,75,29.33333333,9.666666667,9.666666667,-60.66666667,-0.296215278,-0.41546875,1,0,0,1.1334,"submitButton",-0.305143229,-0.406987847,0,0,0,0,47,47,23,1,39,67417,1,180,"2022-02-10_08h29.01.418","orientation adjustment 1","2021.2.3","MacIntel",60.0024001,"",NA,NA,NA,NA,NA,""
"./67417_orientation_adjustment_1_2022-02-10_08h29.01.418.csv",NA,NA,NA,NA,NA,"",NA,NA,NA,NA,NA,"",NA,NA,NA,NA,NA,NA,NA,NA,NA,NA,28.33333333,-43,20,75,-34.66666667,8.333333333,8.333333333,-124.6666667,-0.38328559,-0.418372396,1,0,0,0.6495,"submitButton",-0.383559028,-0.415611979,0,0,0,0,48,48,27,1,43,67417,1,180,"2022-02-10_08h29.01.418","orientation adjustment 1","2021.2.3","MacIntel",60.0024001,"",NA,NA,NA,NA,NA,""
"./67417_orientation_adjustment_1_2022-02-10_08h29.01.418.csv",NA,NA,NA,NA,NA,"",NA,NA,NA,NA,NA,"",NA,NA,NA,NA,NA,NA,NA,NA,NA,NA,-54.44444444,67,20,75,44.55555556,22.44444444,22.44444444,-45.44444444,-0.338233507,-0.416688368,1,0,0,0.6674,"submitButton",-0.338233507,-0.416132813,0,0,0,0,49,49,51,1,67,67417,1,180,"2022-02-10_08h29.01.418","orientation adjustment 1","2021.2.3","MacIntel",60.0024001,"",NA,NA,NA,NA,NA,""
"./67417_orientation_adjustment_1_2022-02-10_08h29.01.418.csv",NA,NA,NA,NA,NA,"",NA,NA,NA,NA,NA,"",NA,NA,NA,NA,NA,NA,NA,NA,NA,NA,-36.11111111,48,20,75,36.88888889,11.11111111,11.11111111,-53.11111111,0.187803819,-0.283315972,1,0,0,0.3659,"submitButton",-0.282456597,-0.410147569,0,0,0,0,50,50,32,1,48,67417,1,180,"2022-02-10_08h29.01.418","orientation adjustment 1","2021.2.3","MacIntel",60.0024001,"",NA,NA,NA,NA,NA,""
"./67417_orientation_adjustment_1_2022-02-10_08h29.01.418.csv",NA,NA,NA,NA,NA,"",NA,NA,NA,NA,NA,"",NA,NA,NA,NA,NA,NA,NA,NA,NA,NA,-38.33333333,17,20,75,23.66666667,6.666666667,6.666666667,-66.33333333,-0.352109375,-0.41687934,1,0,0,0.9659,"submitButton",-0.352109375,-0.416362847,0,0,0,0,51,51,1,1,17,67417,1,180,"2022-02-10_08h29.01.418","orientation adjustment 1","2021.2.3","MacIntel",60.0024001,"",NA,NA,NA,NA,NA,""
"./67417_orientation_adjustment_1_2022-02-10_08h29.01.418.csv",NA,NA,NA,NA,NA,"",NA,NA,NA,NA,NA,"",NA,NA,NA,NA,NA,NA,NA,NA,NA,NA,-26.66666667,-59,20,75,-65.66666667,6.666666667,6.666666667,-155.6666667,-0.30094184,-0.417851562,1,0,0,0.882,"submitButton",-0.295455729,-0.41234809,0,0,0,0,52,52,43,1,59,67417,1,180,"2022-02-10_08h29.01.418","orientation adjustment 1","2021.2.3","MacIntel",60.0024001,"",NA,NA,NA,NA,NA,""
"./67417_orientation_adjustment_1_2022-02-10_08h29.01.418.csv",NA,NA,NA,NA,NA,"",NA,NA,NA,NA,NA,"",NA,NA,NA,NA,NA,NA,NA,NA,NA,NA,-68.88888889,29,20,75,22.11111111,6.888888889,6.888888889,-67.88888889,-0.305208333,-0.401440972,1,0,0,1.3,"submitButton",-0.304110243,-0.39655816,0,0,0,0,53,53,13,1,29,67417,1,180,"2022-02-10_08h29.01.418","orientation adjustment 1","2021.2.3","MacIntel",60.0024001,"",NA,NA,NA,NA,NA,""
"./67417_orientation_adjustment_1_2022-02-10_08h29.01.418.csv",NA,NA,NA,NA,NA,"",NA,NA,NA,NA,NA,"",NA,NA,NA,NA,NA,NA,NA,NA,NA,NA,74.44444444,34,20,75,204.4444444,9.555555556,9.555555556,114.4444444,-0.365950521,-0.412009549,1,0,0,1.9654,"submitButton",-0.366506076,-0.412009549,0,0,0,0,54,54,18,1,34,67417,1,180,"2022-02-10_08h29.01.418","orientation adjustment 1","2021.2.3","MacIntel",60.0024001,"",NA,NA,NA,NA,NA,""
"./67417_orientation_adjustment_1_2022-02-10_08h29.01.418.csv",NA,NA,NA,NA,NA,"",NA,NA,NA,NA,NA,"",NA,NA,NA,NA,NA,NA,NA,NA,NA,NA,-46.11111111,-37,20,75,-52.11111111,15.11111111,15.11111111,-142.1111111,0.202387153,-0.287717014,1,0,0,0.4995,"submitButton",-0.357473958,-0.414956597,0,0,0,0,55,55,21,1,37,67417,1,180,"2022-02-10_08h29.01.418","orientation adjustment 1","2021.2.3","MacIntel",60.0024001,"",NA,NA,NA,NA,NA,""
"./67417_orientation_adjustment_1_2022-02-10_08h29.01.418.csv",NA,NA,NA,NA,NA,"",NA,NA,NA,NA,NA,"",NA,NA,NA,NA,NA,NA,NA,NA,NA,NA,-71.66666667,-23,20,75,-25.66666667,2.666666667,2.666666667,-115.6666667,-0.276549479,-0.390720486,1,0,0,1.715,"submitButton",-0.277105035,-0.391276042,0,0,0,0,56,56,7,1,23,67417,1,180,"2022-02-10_08h29.01.418","orientation adjustment 1","2021.2.3","MacIntel",60.0024001,"",NA,NA,NA,NA,NA,""
