consentMouse1.x,consentMouse1.y,consentMouse1.leftButton,consentMouse1.midButton,consentMouse1.rightButton,consentMouse1.clicked_name,consent_Mouse.x,consent_Mouse.y,consent_Mouse.leftButton,consent_Mouse.midButton,consent_Mouse.rightButton,consent_Mouse.clicked_name,startMouse.x,startMouse.y,startMouse.leftButton,startMouse.midButton,startMouse.rightButton,startMouse_2.x,startMouse_2.y,startMouse_2.leftButton,startMouse_2.midButton,startMouse_2.rightButton,start_distance,fixedOri,minimalDistance,maxOri,this_ori,accuracy,presented_accuracy,submitMouse.x,submitMouse.y,submitMouse.leftButton,submitMouse.midButton,submitMouse.rightButton,submitMouse.time,submitMouse.clicked_name,block_accuracy,continueMouse.x,continueMouse.y,continueMouse.leftButton,continueMouse.midButton,continueMouse.rightButton,trials.thisRepN,trials.thisTrialN,trials.thisN,trials.thisIndex,trials.ran,startOri,participant,condition,nTrials,date,expName,psychopyVersion,OS,frameRate,continueMouse.clicked_name,EndButtonMouse.x,EndButtonMouse.y,EndButtonMouse.leftButton,EndButtonMouse.midButton,EndButtonMouse.rightButton,EndButtonMouse.clicked_name
0.419444444,-0.402777778,1,0,0,consent_button1,0.412037037,-0.397222222,1,0,0,consent_button,0.381481481,-0.262037037,1,0,0,0.267592593,-0.22962963,1,0,0,-71.11111111,56,20,75,0.888888889,55.11111111,55.11111111,0.201851852,-0.292592593,1,0,0,3.7528,submitButton,55.11111111,-0.059259259,-0.308333333,0,0,0,0,0,0,55,1,56,67009,blockT,180,2022-02-09_23h02.23.363,orientation adjustment block,2021.2.3,Win32,59.96641881,,,,,,,
,,,,,,,,,,,,,,,,,,,,,,75,-55,20,75,-52,3,3,0.386111111,-0.287037037,1,0,0,0.117,submitButton,29.05555556,-0.096296296,-0.32962963,0,0,0,0,1,1,54,1,55,67009,blockT,180,2022-02-09_23h02.23.363,orientation adjustment block,2021.2.3,Win32,59.96641881,,,,,,,
,,,,,,,,,,,,,,,,,,,,,,40.55555556,-18,20,75,-16.44444444,1.555555556,1.555555556,0.401851852,-0.29537037,1,0,0,0.3178,submitButton,19.88888889,-0.044444444,-0.314814815,0,0,0,0,2,2,17,1,18,67009,blockT,180,2022-02-09_23h02.23.363,orientation adjustment block,2021.2.3,Win32,59.96641881,,,,,,,
,,,,,,,,,,,,,,,,,,,,,,-36.66666667,67,20,75,58.33333333,8.666666667,8.666666667,0.196296296,-0.308333333,1,0,0,0.5836,submitButton,8.666666667,-0.139814815,-0.366666667,0,0,0,0,3,3,141,1,67,67009,blockT,180,2022-02-09_23h02.23.363,orientation adjustment block,2021.2.3,Win32,59.96641881,,,,,,,
,,,,,,,,,,,,,,,,,,,,,,-70.55555556,-88,20,75,-86.55555556,1.444444444,1.444444444,0.192592593,-0.303703704,1,0,0,2.0195,submitButton,5.055555556,-0.122222222,-0.343518519,0,0,0,0,4,4,87,1,88,67009,blockT,180,2022-02-09_23h02.23.363,orientation adjustment block,2021.2.3,Win32,59.96641881,,,,,,,
,,,,,,,,,,,,,,,,,,,,,,70.55555556,-22,20,75,-22.44444444,0.444444444,0.444444444,0.419444444,-0.29537037,1,0,0,0.2397,submitButton,3.518518519,-0.066666667,-0.32962963,0,0,0,0,5,5,21,1,22,67009,blockT,180,2022-02-09_23h02.23.363,orientation adjustment block,2021.2.3,Win32,59.96641881,,,,,,,
,,,,,,,,,,,,,,,,,,,,,,58.88888889,47,20,75,216.8888889,10.11111111,10.11111111,0.189814815,-0.303703704,1,0,0,0.4085,submitButton,10.11111111,-0.180555556,-0.381481481,0,0,0,0,6,6,46,1,47,67009,blockT,180,2022-02-09_23h02.23.363,orientation adjustment block,2021.2.3,Win32,59.96641881,,,,,,,
,,,,,,,,,,,,,,,,,,,,,,-57.77777778,37,20,75,24.22222222,12.77777778,12.77777778,0.202777778,-0.311111111,1,0,0,0.1497,submitButton,11.44444444,-0.166666667,-0.377777778,0,0,0,0,7,7,111,1,37,67009,blockT,180,2022-02-09_23h02.23.363,orientation adjustment block,2021.2.3,Win32,59.96641881,,,,,,,
,,,,,,,,,,,,,,,,,,,,,,72.77777778,64,20,75,245.7777778,1.777777778,1.777777778,0.194444444,-0.307407407,1,0,0,0.3176,submitButton,8.222222222,-0.15462963,-0.325,0,0,0,0,8,8,138,1,64,67009,blockT,180,2022-02-09_23h02.23.363,orientation adjustment block,2021.2.3,Win32,59.96641881,,,,,,,
,,,,,,,,,,,,,,,,,,,,,,73.33333333,21,20,75,15.33333333,5.666666667,5.666666667,0.423148148,-0.302777778,1,0,0,0.8193,submitButton,5.666666667,-0.185185185,-0.306481481,0,0,0,0,9,9,20,1,21,67009,blockT,180,2022-02-09_23h02.23.363,orientation adjustment block,2021.2.3,Win32,59.96641881,,,,,,,
,,,,,,,,,,,,,,,,,,,,,,28.33333333,72,20,75,77.33333333,5.333333333,5.333333333,0.388888889,-0.291666667,1,0,0,0.4669,submitButton,5.5,-0.207407407,-0.300925926,0,0,0,0,10,10,146,1,72,67009,blockT,180,2022-02-09_23h02.23.363,orientation adjustment block,2021.2.3,Win32,59.96641881,,,,,,,
,,,,,,,,,,,,,,,,,,,,,,-65.55555556,-41,20,75,-218.5555556,2.444444444,2.444444444,0.389814815,-0.287962963,1,0,0,0.1004,submitButton,4.481481481,-0.214814815,-0.321296296,0,0,0,0,11,11,115,1,41,67009,blockT,180,2022-02-09_23h02.23.363,orientation adjustment block,2021.2.3,Win32,59.96641881,,,,,,,
,,,,,,,,,,,,,,,,,,,,,,47.22222222,-49,20,75,-42.77777778,6.222222222,6.222222222,0.372222222,-0.291666667,1,0,0,0.1344,submitButton,6.222222222,-0.200925926,-0.318518519,0,0,0,0,12,12,123,1,49,67009,blockT,180,2022-02-09_23h02.23.363,orientation adjustment block,2021.2.3,Win32,59.96641881,,,,,,,
,,,,,,,,,,,,,,,,,,,,,,-53.33333333,-16,20,75,-20.33333333,4.333333333,4.333333333,0.185185185,-0.285185185,1,0,0,1.374,submitButton,5.277777778,-0.207407407,-0.324074074,0,0,0,0,13,13,15,1,16,67009,blockT,180,2022-02-09_23h02.23.363,orientation adjustment block,2021.2.3,Win32,59.96641881,,,,,,,
,,,,,,,,,,,,,,,,,,,,,,-62.22222222,7,20,75,14.77777778,7.777777778,7.777777778,0.19537037,-0.310185185,1,0,0,0.0502,submitButton,6.111111111,0.417592593,-0.411111111,1,0,0,0,14,14,6,1,7,67009,blockT,180,2022-02-09_23h02.23.363,orientation adjustment block,2021.2.3,Win32,59.96641881,continueButton,,,,,,
,,,,,,,,,,,,,,,,,,,,,,-67.77777778,19,20,75,19.22222222,0.222222222,0.222222222,-0.255555556,-0.391666667,1,0,0,2.3359,submitButton,0.222222222,-0.214814815,-0.299074074,0,0,0,0,15,15,18,1,19,67009,blockT,180,2022-02-09_23h02.23.363,orientation adjustment block,2021.2.3,Win32,59.96641881,,,,,,,
,,,,,,,,,,,,,,,,,,,,,,-37.77777778,-90,20,75,-89.77777778,0.222222222,0.222222222,0.187962963,-0.293518519,1,0,0,0.5679,submitButton,0.222222222,-0.137962963,-0.288888889,0,0,0,0,16,16,89,1,90,67009,blockT,180,2022-02-09_23h02.23.363,orientation adjustment block,2021.2.3,Win32,59.96641881,,,,,,,
,,,,,,,,,,,,,,,,,,,,,,-35.55555556,-50,20,75,-58.55555556,8.555555556,8.555555556,0.22962963,-0.301851852,1,0,0,0.173,submitButton,3,-0.139814815,-0.317592593,0,0,0,0,17,17,49,1,50,67009,blockT,180,2022-02-09_23h02.23.363,orientation adjustment block,2021.2.3,Win32,59.96641881,,,,,,,
,,,,,,,,,,,,,,,,,,,,,,37.22222222,66,20,75,68.22222222,2.222222222,2.222222222,0.400925926,-0.311111111,1,0,0,0.0943,submitButton,2.805555556,-0.14537037,-0.287962963,0,0,0,0,18,18,65,1,66,67009,blockT,180,2022-02-09_23h02.23.363,orientation adjustment block,2021.2.3,Win32,59.96641881,,,,,,,
,,,,,,,,,,,,,,,,,,,,,,25,12,20,75,20,8,8,0.362962963,-0.301851852,1,0,0,0.0671,submitButton,3.844444444,-0.077777778,-0.274074074,0,0,0,0,19,19,11,1,12,67009,blockT,180,2022-02-09_23h02.23.363,orientation adjustment block,2021.2.3,Win32,59.96641881,,,,,,,
,,,,,,,,,,,,,,,,,,,,,,53.33333333,-27,20,75,-22.66666667,4.333333333,4.333333333,0.381481481,-0.3,1,0,0,0.0335,submitButton,3.925925926,-0.161111111,-0.255555556,0,0,0,0,20,20,26,1,27,67009,blockT,180,2022-02-09_23h02.23.363,orientation adjustment block,2021.2.3,Win32,59.96641881,,,,,,,
,,,,,,,,,,,,,,,,,,,,,,46.11111111,6,20,75,10.11111111,4.111111111,4.111111111,0.384259259,-0.289814815,1,0,0,1.3024,submitButton,3.952380952,-0.108333333,-0.298148148,0,0,0,0,21,21,5,1,6,67009,blockT,180,2022-02-09_23h02.23.363,orientation adjustment block,2021.2.3,Win32,59.96641881,,,,,,,
,,,,,,,,,,,,,,,,,,,,,,-50,-85,20,75,-266,1,1,0.397222222,-0.303703704,1,0,0,0.1329,submitButton,3.583333333,-0.124074074,-0.325,0,0,0,0,22,22,84,1,85,67009,blockT,180,2022-02-09_23h02.23.363,orientation adjustment block,2021.2.3,Win32,59.96641881,,,,,,,
,,,,,,,,,,,,,,,,,,,,,,-51.66666667,-56,20,75,-229.6666667,6.333333333,6.333333333,0.402777778,-0.297222222,1,0,0,0.0668,submitButton,3.888888889,-0.15,-0.324074074,0,0,0,0,23,23,130,1,56,67009,blockT,180,2022-02-09_23h02.23.363,orientation adjustment block,2021.2.3,Win32,59.96641881,,,,,,,
,,,,,,,,,,,,,,,,,,,,,,-72.77777778,-65,20,75,-251.7777778,6.777777778,6.777777778,-0.146296296,-0.39537037,1,0,0,3.0256,submitButton,4.177777778,-0.139814815,-0.321296296,0,0,0,0,24,24,64,1,65,67009,blockT,180,2022-02-09_23h02.23.363,orientation adjustment block,2021.2.3,Win32,59.96641881,,,,,,,
,,,,,,,,,,,,,,,,,,,,,,28.33333333,-60,20,75,-52.66666667,7.333333333,7.333333333,0.414814815,-0.308333333,1,0,0,0.1009,submitButton,4.464646465,-0.134259259,-0.311111111,0,0,0,0,25,25,134,1,60,67009,blockT,180,2022-02-09_23h02.23.363,orientation adjustment block,2021.2.3,Win32,59.96641881,,,,,,,
,,,,,,,,,,,,,,,,,,,,,,-71.66666667,-74,20,75,-253.6666667,0.333333333,0.333333333,0.406481481,-0.310185185,1,0,0,3.3759,submitButton,4.12037037,-0.126851852,-0.314814815,0,0,0,0,26,26,148,1,74,67009,blockT,180,2022-02-09_23h02.23.363,orientation adjustment block,2021.2.3,Win32,59.96641881,,,,,,,
,,,,,,,,,,,,,,,,,,,,,,33.88888889,30,20,75,23.88888889,6.111111111,6.111111111,0.424074074,-0.308333333,1,0,0,0.5512,submitButton,4.273504274,-0.106481481,-0.307407407,0,0,0,0,27,27,104,1,30,67009,blockT,180,2022-02-09_23h02.23.363,orientation adjustment block,2021.2.3,Win32,59.96641881,,,,,,,
,,,,,,,,,,,,,,,,,,,,,,57.77777778,-54,20,75,-38.22222222,15.77777778,15.77777778,0.369444444,-0.311111111,1,0,0,1.2189,submitButton,5.095238095,-0.118518519,-0.321296296,0,0,0,0,28,28,128,1,54,67009,blockT,180,2022-02-09_23h02.23.363,orientation adjustment block,2021.2.3,Win32,59.96641881,,,,,,,
,,,,,,,,,,,,,,,,,,,,,,-38.33333333,-68,20,75,-255.3333333,7.333333333,7.333333333,0.389814815,-0.308333333,1,0,0,0.1169,submitButton,5.244444444,0.37037037,-0.397222222,1,0,0,0,29,29,67,1,68,67009,blockT,180,2022-02-09_23h02.23.363,orientation adjustment block,2021.2.3,Win32,59.96641881,continueButton,,,,,,
,,,,,,,,,,,,,,,,,,,,,,45,-69,20,75,-65,4,4,0.407407407,-0.294444444,1,0,0,0.5508,submitButton,5.166666667,-0.122222222,-0.239814815,0,0,0,0,30,30,143,1,69,67009,blockT,180,2022-02-09_23h02.23.363,orientation adjustment block,2021.2.3,Win32,59.96641881,,,,,,,
,,,,,,,,,,,,,,,,,,,,,,30.55555556,23,20,75,13.55555556,9.444444444,9.444444444,-0.114814815,-0.4,1,0,0,1.458,submitButton,5.418300654,-0.102777778,-0.287962963,0,0,0,0,31,31,22,1,23,67009,blockT,180,2022-02-09_23h02.23.363,orientation adjustment block,2021.2.3,Win32,59.96641881,,,,,,,
,,,,,,,,,,,,,,,,,,,,,,60.55555556,-48,20,75,-44.44444444,3.555555556,3.555555556,0.372222222,-0.294444444,1,0,0,0.0336,submitButton,5.314814815,-0.10462963,-0.315740741,0,0,0,0,32,32,47,1,48,67009,blockT,180,2022-02-09_23h02.23.363,orientation adjustment block,2021.2.3,Win32,59.96641881,,,,,,,
,,,,,,,,,,,,,,,,,,,,,,50,-54,20,75,-40,14,14,0.366666667,-0.299074074,1,0,0,0.0226,submitButton,5.771929825,-0.10462963,-0.324074074,0,0,0,0,33,33,53,1,54,67009,blockT,180,2022-02-09_23h02.23.363,orientation adjustment block,2021.2.3,Win32,59.96641881,,,,,,,
,,,,,,,,,,,,,,,,,,,,,,-48.88888889,89,20,75,84.11111111,4.888888889,4.888888889,0.186111111,-0.305555556,1,0,0,0.3223,submitButton,5.727777778,-0.107407407,-0.325,0,0,0,0,34,34,88,1,89,67009,blockT,180,2022-02-09_23h02.23.363,orientation adjustment block,2021.2.3,Win32,59.96641881,,,,,,,
,,,,,,,,,,,,,,,,,,,,,,-22.22222222,-29,20,75,-32.22222222,3.222222222,3.222222222,0.187962963,-0.296296296,1,0,0,0.0669,submitButton,5.608465608,-0.156481481,-0.315740741,0,0,0,0,35,35,103,1,29,67009,blockT,180,2022-02-09_23h02.23.363,orientation adjustment block,2021.2.3,Win32,59.96641881,,,,,,,
,,,,,,,,,,,,,,,,,,,,,,69.44444444,11,20,75,13.44444444,2.444444444,2.444444444,0.355555556,-0.306481481,1,0,0,0.2062,submitButton,5.464646465,-0.149074074,-0.317592593,0,0,0,0,36,36,10,1,11,67009,blockT,180,2022-02-09_23h02.23.363,orientation adjustment block,2021.2.3,Win32,59.96641881,,,,,,,
,,,,,,,,,,,,,,,,,,,,,,58.33333333,30,20,75,26.33333333,3.666666667,3.666666667,-0.150925926,-0.410185185,1,0,0,1.7569,submitButton,5.38647343,-0.133333333,-0.326851852,0,0,0,0,37,37,29,1,30,67009,blockT,180,2022-02-09_23h02.23.363,orientation adjustment block,2021.2.3,Win32,59.96641881,,,,,,,
,,,,,,,,,,,,,,,,,,,,,,-70,52,20,75,35,17,17,-0.15,-0.408333333,1,0,0,1.7033,submitButton,5.87037037,-0.12962963,-0.35,0,0,0,0,38,38,51,1,52,67009,blockT,180,2022-02-09_23h02.23.363,orientation adjustment block,2021.2.3,Win32,59.96641881,,,,,,,
,,,,,,,,,,,,,,,,,,,,,,35,-1,20,75,8,9,9,0.37962963,-0.302777778,1,0,0,0.5094,submitButton,5.995555556,-0.137962963,-0.366666667,0,0,0,0,39,39,0,1,1,67009,blockT,180,2022-02-09_23h02.23.363,orientation adjustment block,2021.2.3,Win32,59.96641881,,,,,,,
,,,,,,,,,,,,,,,,,,,,,,35.55555556,78,20,75,248.5555556,9.444444444,9.444444444,0.386111111,-0.314814815,1,0,0,3.2595,submitButton,6.128205128,-0.109259259,-0.331481481,0,0,0,0,40,40,77,1,78,67009,blockT,180,2022-02-09_23h02.23.363,orientation adjustment block,2021.2.3,Win32,59.96641881,,,,,,,
,,,,,,,,,,,,,,,,,,,,,,-42.22222222,-36,20,75,-26.22222222,9.777777778,9.777777778,0.232407407,-0.290740741,1,0,0,0.1841,submitButton,6.263374486,-0.12962963,-0.331481481,0,0,0,0,41,41,110,1,36,67009,blockT,180,2022-02-09_23h02.23.363,orientation adjustment block,2021.2.3,Win32,59.96641881,,,,,,,
,,,,,,,,,,,,,,,,,,,,,,-69.44444444,50,20,75,22.55555556,27.44444444,27.44444444,0.218518519,-0.310185185,1,0,0,0.8338,submitButton,7.01984127,-0.098148148,-0.344444444,0,0,0,0,42,42,124,1,50,67009,blockT,180,2022-02-09_23h02.23.363,orientation adjustment block,2021.2.3,Win32,59.96641881,,,,,,,
,,,,,,,,,,,,,,,,,,,,,,-62.22222222,-2,20,75,-9.222222222,7.222222222,7.222222222,0.197222222,-0.313888889,1,0,0,0.1679,submitButton,7.026819923,-0.107407407,-0.356481481,0,0,0,0,43,43,1,1,2,67009,blockT,180,2022-02-09_23h02.23.363,orientation adjustment block,2021.2.3,Win32,59.96641881,,,,,,,
,,,,,,,,,,,,,,,,,,,,,,38.88888889,-42,20,75,-36.11111111,5.888888889,5.888888889,-0.147222222,-0.415740741,1,0,0,1.2745,submitButton,6.988888889,0.351851852,-0.412962963,1,0,0,0,44,44,41,1,42,67009,blockT,180,2022-02-09_23h02.23.363,orientation adjustment block,2021.2.3,Win32,59.96641881,continueButton,,,,,,
,,,,,,,,,,,,,,,,,,,,,,-66.11111111,32,20,75,20.88888889,11.11111111,11.11111111,0.201851852,-0.310185185,1,0,0,0.0163,submitButton,7.121863799,-0.144444444,-0.316666667,0,0,0,0,45,45,106,1,32,67009,blockT,180,2022-02-09_23h02.23.363,orientation adjustment block,2021.2.3,Win32,59.96641881,,,,,,,
,,,,,,,,,,,,,,,,,,,,,,-62.22222222,42,20,75,39.77777778,2.222222222,2.222222222,-0.150925926,-0.397222222,1,0,0,2.0181,submitButton,6.96875,-0.125925926,-0.332407407,0,0,0,0,46,46,116,1,42,67009,blockT,180,2022-02-09_23h02.23.363,orientation adjustment block,2021.2.3,Win32,59.96641881,,,,,,,
,,,,,,,,,,,,,,,,,,,,,,-23.33333333,49,20,75,38.66666667,10.33333333,10.33333333,0.200925926,-0.298148148,1,0,0,0.2737,submitButton,7.070707071,-0.097222222,-0.310185185,0,0,0,0,47,47,48,1,49,67009,blockT,180,2022-02-09_23h02.23.363,orientation adjustment block,2021.2.3,Win32,59.96641881,,,,,,,
,,,,,,,,,,,,,,,,,,,,,,60,25,20,75,19,6,6,0.386111111,-0.297222222,1,0,0,0.2567,submitButton,7.039215686,-0.110185185,-0.325,0,0,0,0,48,48,99,1,25,67009,blockT,180,2022-02-09_23h02.23.363,orientation adjustment block,2021.2.3,Win32,59.96641881,,,,,,,
,,,,,,,,,,,,,,,,,,,,,,36.66666667,-60,20,75,-48.33333333,11.66666667,11.66666667,-0.106481481,-0.4,1,0,0,1.3564,submitButton,7.171428571,-0.1,-0.312962963,0,0,0,0,49,49,59,1,60,67009,blockT,180,2022-02-09_23h02.23.363,orientation adjustment block,2021.2.3,Win32,59.96641881,,,,,,,
,,,,,,,,,,,,,,,,,,,,,,-67.22222222,67,20,75,44.77777778,22.22222222,22.22222222,-0.138888889,-0.40462963,1,0,0,1.5069,submitButton,7.589506173,-0.12962963,-0.323148148,0,0,0,0,50,50,66,1,67,67009,blockT,180,2022-02-09_23h02.23.363,orientation adjustment block,2021.2.3,Win32,59.96641881,,,,,,,
,,,,,,,,,,,,,,,,,,,,,,41.11111111,44,20,75,50.11111111,6.111111111,6.111111111,0.387037037,-0.305555556,1,0,0,0.1326,submitButton,7.54954955,-0.083333333,-0.257407407,0,0,0,0,51,51,43,1,44,67009,blockT,180,2022-02-09_23h02.23.363,orientation adjustment block,2021.2.3,Win32,59.96641881,,,,,,,
,,,,,,,,,,,,,,,,,,,,,,40.55555556,-75,20,75,-61.44444444,13.55555556,13.55555556,0.184259259,-0.298148148,1,0,0,1.2347,submitButton,7.707602339,-0.159259259,-0.306481481,0,0,0,0,52,52,74,1,75,67009,blockT,180,2022-02-09_23h02.23.363,orientation adjustment block,2021.2.3,Win32,59.96641881,,,,,,,
,,,,,,,,,,,,,,,,,,,,,,31.11111111,28,20,75,38.11111111,10.11111111,10.11111111,0.390740741,-0.294444444,1,0,0,0.6676,submitButton,7.769230769,-0.127777778,-0.32037037,0,0,0,0,53,53,102,1,28,67009,blockT,180,2022-02-09_23h02.23.363,orientation adjustment block,2021.2.3,Win32,59.96641881,,,,,,,
,,,,,,,,,,,,,,,,,,,,,,-47.22222222,24,20,75,22.77777778,1.222222222,1.222222222,0.203703704,-0.309259259,1,0,0,0.0736,submitButton,7.605555556,-0.135185185,-0.325925926,0,0,0,0,54,54,98,1,24,67009,blockT,180,2022-02-09_23h02.23.363,orientation adjustment block,2021.2.3,Win32,59.96641881,,,,,,,
,,,,,,,,,,,,,,,,,,,,,,-62.77777778,-77,20,75,-250.7777778,6.222222222,6.222222222,0.377777778,-0.287962963,1,0,0,0.3021,submitButton,7.571815718,-0.108333333,-0.3,0,0,0,0,55,55,76,1,77,67009,blockT,180,2022-02-09_23h02.23.363,orientation adjustment block,2021.2.3,Win32,59.96641881,,,,,,,
,,,,,,,,,,,,,,,,,,,,,,55.55555556,51,20,75,222.5555556,8.444444444,8.444444444,0.202777778,-0.29537037,1,0,0,3.1435,submitButton,7.592592593,-0.09537037,-0.317592593,0,0,0,0,56,56,125,1,51,67009,blockT,180,2022-02-09_23h02.23.363,orientation adjustment block,2021.2.3,Win32,59.96641881,,,,,,,
,,,,,,,,,,,,,,,,,,,,,,24.44444444,32,20,75,33.44444444,1.444444444,1.444444444,-0.111111111,-0.403703704,1,0,0,1.3737,submitButton,7.449612403,-0.116666667,-0.312962963,0,0,0,0,57,57,31,1,32,67009,blockT,180,2022-02-09_23h02.23.363,orientation adjustment block,2021.2.3,Win32,59.96641881,,,,,,,
,,,,,,,,,,,,,,,,,,,,,,-75,36,20,75,26,10,10,-0.203703704,-0.402777778,1,0,0,2.2328,submitButton,7.507575758,-0.150925926,-0.317592593,0,0,0,0,58,58,35,1,36,67009,blockT,180,2022-02-09_23h02.23.363,orientation adjustment block,2021.2.3,Win32,59.96641881,,,,,,,
,,,,,,,,,,,,,,,,,,,,,,-66.66666667,64,20,75,71.33333333,7.333333333,7.333333333,-0.164814815,-0.414814815,1,0,0,1.9753,submitButton,7.503703704,0.246296296,-0.397222222,1,0,0,0,59,59,63,1,64,67009,blockT,180,2022-02-09_23h02.23.363,orientation adjustment block,2021.2.3,Win32,59.96641881,continueButton,,,,,,
,,,,,,,,,,,,,,,,,,,,,,27.22222222,-15,20,75,-17.77777778,2.777777778,2.777777778,0.381481481,-0.305555556,1,0,0,0.4667,submitButton,7.400966184,-0.100925926,-0.309259259,0,0,0,0,60,60,14,1,15,67009,blockT,180,2022-02-09_23h02.23.363,orientation adjustment block,2021.2.3,Win32,59.96641881,,,,,,,
,,,,,,,,,,,,,,,,,,,,,,22.77777778,-5,20,75,-11.22222222,6.222222222,6.222222222,-0.15,-0.401851852,1,0,0,1.3452,submitButton,7.375886525,-0.152777778,-0.311111111,0,0,0,0,61,61,4,1,5,67009,blockT,180,2022-02-09_23h02.23.363,orientation adjustment block,2021.2.3,Win32,59.96641881,,,,,,,
,,,,,,,,,,,,,,,,,,,,,,38.88888889,-21,20,75,-14.11111111,6.888888889,6.888888889,0.372222222,-0.305555556,1,0,0,1.2401,submitButton,7.365740741,-0.153703704,-0.312962963,0,0,0,0,62,62,95,1,21,67009,blockT,180,2022-02-09_23h02.23.363,orientation adjustment block,2021.2.3,Win32,59.96641881,,,,,,,
,,,,,,,,,,,,,,,,,,,,,,33.33333333,-73,20,75,-78.66666667,5.666666667,5.666666667,-0.130555556,-0.401851852,1,0,0,1.5574,submitButton,7.33106576,-0.107407407,-0.293518519,0,0,0,0,63,63,147,1,73,67009,blockT,180,2022-02-09_23h02.23.363,orientation adjustment block,2021.2.3,Win32,59.96641881,,,,,,,
,,,,,,,,,,,,,,,,,,,,,,35,80,20,75,262,2,2,0.212037037,-0.29537037,1,0,0,3.0214,submitButton,7.224444444,-0.139814815,-0.30462963,0,0,0,0,64,64,79,1,80,67009,blockT,180,2022-02-09_23h02.23.363,orientation adjustment block,2021.2.3,Win32,59.96641881,,,,,,,
,,,,,,,,,,,,,,,,,,,,,,37.77777778,-9,20,75,-19.22222222,10.22222222,10.22222222,0.371296296,-0.305555556,1,0,0,1.4349,submitButton,7.283224401,-0.071296296,-0.290740741,0,0,0,0,65,65,8,1,9,67009,blockT,180,2022-02-09_23h02.23.363,orientation adjustment block,2021.2.3,Win32,59.96641881,,,,,,,
,,,,,,,,,,,,,,,,,,,,,,-28.33333333,79,20,75,65.66666667,13.33333333,13.33333333,0.191666667,-0.302777778,1,0,0,0.1216,submitButton,7.39957265,-0.086111111,-0.273148148,0,0,0,0,66,66,78,1,79,67009,blockT,180,2022-02-09_23h02.23.363,orientation adjustment block,2021.2.3,Win32,59.96641881,,,,,,,
,,,,,,,,,,,,,,,,,,,,,,-59.44444444,59,20,75,54.55555556,4.444444444,4.444444444,0.207407407,-0.285185185,1,0,0,1.0738,submitButton,7.343815514,-0.111111111,-0.276851852,0,0,0,0,67,67,58,1,59,67009,blockT,180,2022-02-09_23h02.23.363,orientation adjustment block,2021.2.3,Win32,59.96641881,,,,,,,
,,,,,,,,,,,,,,,,,,,,,,-62.77777778,27,20,75,24.22222222,2.777777778,2.777777778,0.221296296,-0.30462963,1,0,0,0.1348,submitButton,7.259259259,-0.134259259,-0.302777778,0,0,0,0,68,68,101,1,27,67009,blockT,180,2022-02-09_23h02.23.363,orientation adjustment block,2021.2.3,Win32,59.96641881,,,,,,,
,,,,,,,,,,,,,,,,,,,,,,32.77777778,-41,20,75,-41.22222222,0.222222222,0.222222222,0.359259259,-0.292592593,1,0,0,0.238,submitButton,7.131313131,-0.153703704,-0.32037037,0,0,0,0,69,69,40,1,41,67009,blockT,180,2022-02-09_23h02.23.363,orientation adjustment block,2021.2.3,Win32,59.96641881,,,,,,,
,,,,,,,,,,,,,,,,,,,,,,-20,-74,20,75,-256,2,2,0.389814815,-0.3,1,0,0,2.7745,submitButton,7.03968254,-0.125925926,-0.312962963,0,0,0,0,70,70,73,1,74,67009,blockT,180,2022-02-09_23h02.23.363,orientation adjustment block,2021.2.3,Win32,59.96641881,,,,,,,
,,,,,,,,,,,,,,,,,,,,,,56.66666667,31,20,75,25.66666667,5.333333333,5.333333333,0.331481481,-0.300925926,1,0,0,0.2229,submitButton,7.009746589,-0.15,-0.297222222,0,0,0,0,71,71,105,1,31,67009,blockT,180,2022-02-09_23h02.23.363,orientation adjustment block,2021.2.3,Win32,59.96641881,,,,,,,
,,,,,,,,,,,,,,,,,,,,,,-34.44444444,-17,20,75,-24.44444444,7.444444444,7.444444444,0.214814815,-0.30462963,1,0,0,0.2564,submitButton,7.017241379,-0.127777778,-0.291666667,0,0,0,0,72,72,16,1,17,67009,blockT,180,2022-02-09_23h02.23.363,orientation adjustment block,2021.2.3,Win32,59.96641881,,,,,,,
,,,,,,,,,,,,,,,,,,,,,,45.55555556,61,20,75,227.5555556,13.44444444,13.44444444,-0.131481481,-0.39537037,1,0,0,3.2601,submitButton,7.126177024,-0.123148148,-0.321296296,0,0,0,0,73,73,60,1,61,67009,blockT,180,2022-02-09_23h02.23.363,orientation adjustment block,2021.2.3,Win32,59.96641881,,,,,,,
,,,,,,,,,,,,,,,,,,,,,,-41.66666667,34,20,75,26.33333333,7.666666667,7.666666667,0.216666667,-0.302777778,1,0,0,0.0507,submitButton,7.135185185,0.286111111,-0.409259259,1,0,0,0,74,74,33,1,34,67009,blockT,180,2022-02-09_23h02.23.363,orientation adjustment block,2021.2.3,Win32,59.96641881,continueButton,,,,,,
,,,,,,,,,,,,,,,,,,,,,,-63.33333333,-46,20,75,-219.3333333,6.666666667,6.666666667,0.42962963,-0.32037037,1,0,0,0.0337,submitButton,7.127504554,-0.218518519,-0.391666667,0,0,0,0,75,75,45,1,46,67009,blockT,180,2022-02-09_23h02.23.363,orientation adjustment block,2021.2.3,Win32,59.96641881,,,,,,,
,,,,,,,,,,,,,,,,,,,,,,37.77777778,51,20,75,53.77777778,2.777777778,2.777777778,0.37962963,-0.299074074,1,0,0,0.1996,submitButton,7.05734767,-0.039814815,-0.265740741,0,0,0,0,76,76,50,1,51,67009,blockT,180,2022-02-09_23h02.23.363,orientation adjustment block,2021.2.3,Win32,59.96641881,,,,,,,
,,,,,,,,,,,,,,,,,,,,,,-55.55555556,76,20,75,73.44444444,2.555555556,2.555555556,-0.132407407,-0.398148148,1,0,0,1.6521,submitButton,6.985890653,-0.015740741,-0.240740741,0,0,0,0,77,77,75,1,76,67009,blockT,180,2022-02-09_23h02.23.363,orientation adjustment block,2021.2.3,Win32,59.96641881,,,,,,,
,,,,,,,,,,,,,,,,,,,,,,37.77777778,-38,20,75,-29.22222222,8.777777778,8.777777778,0.389814815,-0.299074074,1,0,0,0.0169,submitButton,7.013888889,-0.087037037,-0.278703704,0,0,0,0,78,78,37,1,38,67009,blockT,180,2022-02-09_23h02.23.363,orientation adjustment block,2021.2.3,Win32,59.96641881,,,,,,,
,,,,,,,,,,,,,,,,,,,,,,31.66666667,39,20,75,48.66666667,9.666666667,9.666666667,0.366666667,-0.302777778,1,0,0,0.1226,submitButton,7.054700855,-0.049074074,-0.271296296,0,0,0,0,79,79,38,1,39,67009,blockT,180,2022-02-09_23h02.23.363,orientation adjustment block,2021.2.3,Win32,59.96641881,,,,,,,
,,,,,,,,,,,,,,,,,,,,,,31.66666667,-35,20,75,-26.33333333,8.666666667,8.666666667,-0.12037037,-0.398148148,1,0,0,0.9733,submitButton,7.079124579,0.014814815,-0.238888889,0,0,0,0,80,80,34,1,35,67009,blockT,180,2022-02-09_23h02.23.363,orientation adjustment block,2021.2.3,Win32,59.96641881,,,,,,,
,,,,,,,,,,,,,,,,,,,,,,-23.33333333,-53,20,75,-64.33333333,11.33333333,11.33333333,0.232407407,-0.308333333,1,0,0,0.3212,submitButton,7.142620232,-0.131481481,-0.315740741,0,0,0,0,81,81,52,1,53,67009,blockT,180,2022-02-09_23h02.23.363,orientation adjustment block,2021.2.3,Win32,59.96641881,,,,,,,
,,,,,,,,,,,,,,,,,,,,,,-47.77777778,33,20,75,24.22222222,8.777777778,8.777777778,0.218518519,-0.292592593,1,0,0,0.9677,submitButton,7.166666667,-0.1,-0.343518519,0,0,0,0,82,82,107,1,33,67009,blockT,180,2022-02-09_23h02.23.363,orientation adjustment block,2021.2.3,Win32,59.96641881,,,,,,,
,,,,,,,,,,,,,,,,,,,,,,73.33333333,71,20,75,252.3333333,1.333333333,1.333333333,0.381481481,-0.313888889,1,0,0,3.3927,submitButton,7.082125604,-0.162962963,-0.290740741,0,0,0,0,83,83,70,1,71,67009,blockT,180,2022-02-09_23h02.23.363,orientation adjustment block,2021.2.3,Win32,59.96641881,,,,,,,
,,,,,,,,,,,,,,,,,,,,,,62.22222222,83,20,75,263.2222222,0.222222222,0.222222222,0.185185185,-0.303703704,1,0,0,0.7342,submitButton,6.984126984,-0.119444444,-0.32037037,0,0,0,0,84,84,82,1,83,67009,blockT,180,2022-02-09_23h02.23.363,orientation adjustment block,2021.2.3,Win32,59.96641881,,,,,,,
,,,,,,,,,,,,,,,,,,,,,,75,62,20,75,240,2,2,0.200925926,-0.293518519,1,0,0,2.1523,submitButton,6.913928013,-0.137962963,-0.309259259,0,0,0,0,85,85,61,1,62,67009,blockT,180,2022-02-09_23h02.23.363,orientation adjustment block,2021.2.3,Win32,59.96641881,,,,,,,
,,,,,,,,,,,,,,,,,,,,,,64.44444444,43,20,75,215.4444444,7.555555556,7.555555556,0.201851852,-0.3,1,0,0,0.0171,submitButton,6.922839506,-0.107407407,-0.288888889,0,0,0,0,86,86,42,1,43,67009,blockT,180,2022-02-09_23h02.23.363,orientation adjustment block,2021.2.3,Win32,59.96641881,,,,,,,
,,,,,,,,,,,,,,,,,,,,,,65,-14,20,75,-19,5,5,0.393518519,-0.308333333,1,0,0,0.1395,submitButton,6.896499239,-0.114814815,-0.310185185,0,0,0,0,87,87,13,1,14,67009,blockT,180,2022-02-09_23h02.23.363,orientation adjustment block,2021.2.3,Win32,59.96641881,,,,,,,
,,,,,,,,,,,,,,,,,,,,,,-75,-18,20,75,-204,6,6,0.406481481,-0.29537037,1,0,0,0.0277,submitButton,6.884384384,-0.128703704,-0.340740741,0,0,0,0,88,88,92,1,18,67009,blockT,180,2022-02-09_23h02.23.363,orientation adjustment block,2021.2.3,Win32,59.96641881,,,,,,,
,,,,,,,,,,,,,,,,,,,,,,61.66666667,-70,20,75,-77.33333333,7.333333333,7.333333333,0.401851852,-0.291666667,1,0,0,0.9061,submitButton,6.89037037,0.282407407,-0.387037037,1,0,0,0,89,89,69,1,70,67009,blockT,180,2022-02-09_23h02.23.363,orientation adjustment block,2021.2.3,Win32,59.96641881,continueButton,,,,,,
,,,,,,,,,,,,,,,,,,,,,,70,10,20,75,24,14,14,0.382407407,-0.30462963,1,0,0,0.1652,submitButton,6.983918129,-0.023148148,-0.237962963,0,0,0,0,90,90,9,1,10,67009,blockT,180,2022-02-09_23h02.23.363,orientation adjustment block,2021.2.3,Win32,59.96641881,,,,,,,
,,,,,,,,,,,,,,,,,,,,,,-38.88888889,82,20,75,78.11111111,3.888888889,3.888888889,-0.136111111,-0.40462963,1,0,0,1.3179,submitButton,6.943722944,-0.062962963,-0.27962963,0,0,0,0,91,91,81,1,82,67009,blockT,180,2022-02-09_23h02.23.363,orientation adjustment block,2021.2.3,Win32,59.96641881,,,,,,,
,,,,,,,,,,,,,,,,,,,,,,52.77777778,58,20,75,233.7777778,4.222222222,4.222222222,0.181481481,-0.282407407,1,0,0,0.0996,submitButton,6.908831909,-0.097222222,-0.313888889,0,0,0,0,92,92,57,1,58,67009,blockT,180,2022-02-09_23h02.23.363,orientation adjustment block,2021.2.3,Win32,59.96641881,,,,,,,
,,,,,,,,,,,,,,,,,,,,,,-43.33333333,-87,20,75,-83.33333333,3.666666667,3.666666667,0.172222222,-0.310185185,1,0,0,0.0662,submitButton,6.867791842,-0.109259259,-0.312962963,0,0,0,0,93,93,86,1,87,67009,blockT,180,2022-02-09_23h02.23.363,orientation adjustment block,2021.2.3,Win32,59.96641881,,,,,,,
,,,,,,,,,,,,,,,,,,,,,,-27.77777778,62,20,75,64.22222222,2.222222222,2.222222222,-0.132407407,-0.406481481,1,0,0,1.5354,submitButton,6.809722222,-0.122222222,-0.321296296,0,0,0,0,94,94,136,1,62,67009,blockT,180,2022-02-09_23h02.23.363,orientation adjustment block,2021.2.3,Win32,59.96641881,,,,,,,
,,,,,,,,,,,,,,,,,,,,,,-63.88888889,-26,20,75,-22.88888889,3.111111111,3.111111111,0.175,-0.292592593,1,0,0,0.0993,submitButton,6.764060357,-0.178703704,-0.288888889,0,0,0,0,95,95,25,1,26,67009,blockT,180,2022-02-09_23h02.23.363,orientation adjustment block,2021.2.3,Win32,59.96641881,,,,,,,
,,,,,,,,,,,,,,,,,,,,,,-65.55555556,-4,20,75,-5.555555556,1.555555556,1.555555556,0.182407407,-0.314814815,1,0,0,1.4845,submitButton,6.700542005,-0.119444444,-0.317592593,0,0,0,0,96,96,3,1,4,67009,blockT,180,2022-02-09_23h02.23.363,orientation adjustment block,2021.2.3,Win32,59.96641881,,,,,,,
,,,,,,,,,,,,,,,,,,,,,,-73.33333333,-48,20,75,-227.3333333,0.666666667,0.666666667,-0.133333333,-0.39537037,1,0,0,2.9866,submitButton,6.627844712,-0.132407407,-0.332407407,0,0,0,0,97,97,122,1,48,67009,blockT,180,2022-02-09_23h02.23.363,orientation adjustment block,2021.2.3,Win32,59.96641881,,,,,,,
,,,,,,,,,,,,,,,,,,,,,,52.22222222,-25,20,75,-23.77777778,1.222222222,1.222222222,0.364814815,-0.3,1,0,0,0.1226,submitButton,6.563492063,-0.080555556,-0.307407407,0,0,0,0,98,98,24,1,25,67009,blockT,180,2022-02-09_23h02.23.363,orientation adjustment block,2021.2.3,Win32,59.96641881,,,,,,,
,,,,,,,,,,,,,,,,,,,,,,29.44444444,-8,20,75,-25.55555556,17.55555556,17.55555556,0.393518519,-0.309259259,1,0,0,0.0818,submitButton,6.692810458,-0.125925926,-0.294444444,0,0,0,0,99,99,7,1,8,67009,blockT,180,2022-02-09_23h02.23.363,orientation adjustment block,2021.2.3,Win32,59.96641881,,,,,,,
,,,,,,,,,,,,,,,,,,,,,,58.33333333,40,20,75,208.3333333,11.66666667,11.66666667,0.158333333,-0.314814815,1,0,0,1.0511,submitButton,6.750645995,-0.123148148,-0.27962963,0,0,0,0,100,100,114,1,40,67009,blockT,180,2022-02-09_23h02.23.363,orientation adjustment block,2021.2.3,Win32,59.96641881,,,,,,,
,,,,,,,,,,,,,,,,,,,,,,24.44444444,-17,20,75,-26.55555556,9.555555556,9.555555556,0.376851852,-0.293518519,1,0,0,0.2733,submitButton,6.782886335,-0.164814815,-0.311111111,0,0,0,0,101,101,91,1,17,67009,blockT,180,2022-02-09_23h02.23.363,orientation adjustment block,2021.2.3,Win32,59.96641881,,,,,,,
,,,,,,,,,,,,,,,,,,,,,,-57.22222222,73,20,75,54.77777778,18.22222222,18.22222222,-0.132407407,-0.392592593,1,0,0,1.5522,submitButton,6.912878788,-0.117592593,-0.306481481,0,0,0,0,102,102,72,1,73,67009,blockT,180,2022-02-09_23h02.23.363,orientation adjustment block,2021.2.3,Win32,59.96641881,,,,,,,
,,,,,,,,,,,,,,,,,,,,,,66.11111111,-61,20,75,-71.88888889,10.88888889,10.88888889,0.400925926,-0.302777778,1,0,0,1.2239,submitButton,6.957553059,-0.117592593,-0.325,0,0,0,0,103,103,135,1,61,67009,blockT,180,2022-02-09_23h02.23.363,orientation adjustment block,2021.2.3,Win32,59.96641881,,,,,,,
,,,,,,,,,,,,,,,,,,,,,,-53.33333333,-45,20,75,-217.3333333,7.666666667,7.666666667,0.385185185,-0.309259259,1,0,0,0.1519,submitButton,6.965432099,0.309259259,-0.392592593,1,0,0,0,104,104,44,1,45,67009,blockT,180,2022-02-09_23h02.23.363,orientation adjustment block,2021.2.3,Win32,59.96641881,continueButton,,,,,,
,,,,,,,,,,,,,,,,,,,,,,-21.66666667,86,20,75,77.33333333,8.666666667,8.666666667,0.187962963,-0.306481481,1,0,0,0.078,submitButton,6.984126984,-0.115740741,-0.307407407,0,0,0,0,105,105,85,1,86,67009,blockT,180,2022-02-09_23h02.23.363,orientation adjustment block,2021.2.3,Win32,59.96641881,,,,,,,
,,,,,,,,,,,,,,,,,,,,,,35.55555556,-72,20,75,-74.44444444,2.444444444,2.444444444,0.378703704,-0.292592593,1,0,0,0.0672,submitButton,6.934782609,-0.133333333,-0.296296296,0,0,0,0,106,106,71,1,72,67009,blockT,180,2022-02-09_23h02.23.363,orientation adjustment block,2021.2.3,Win32,59.96641881,,,,,,,
,,,,,,,,,,,,,,,,,,,,,,70.55555556,-38,20,75,-21.44444444,16.55555556,16.55555556,0.369444444,-0.298148148,1,0,0,0.4059,submitButton,7.03823178,-0.117592593,-0.298148148,0,0,0,0,107,107,112,1,38,67009,blockT,180,2022-02-09_23h02.23.363,orientation adjustment block,2021.2.3,Win32,59.96641881,,,,,,,
,,,,,,,,,,,,,,,,,,,,,,57.77777778,34,20,75,207.7777778,6.222222222,6.222222222,0.192592593,-0.29537037,1,0,0,0.0673,submitButton,7.029550827,-0.075925926,-0.29537037,0,0,0,0,108,108,108,1,34,67009,blockT,180,2022-02-09_23h02.23.363,orientation adjustment block,2021.2.3,Win32,59.96641881,,,,,,,
,,,,,,,,,,,,,,,,,,,,,,-59.44444444,24,20,75,28.55555556,4.555555556,4.555555556,0.190740741,-0.288888889,1,0,0,0.0232,submitButton,7.003508772,-0.127777778,-0.310185185,0,0,0,0,109,109,23,1,24,67009,blockT,180,2022-02-09_23h02.23.363,orientation adjustment block,2021.2.3,Win32,59.96641881,,,,,,,
,,,,,,,,,,,,,,,,,,,,,,45,20,20,75,19,1,1,0.396296296,-0.316666667,1,0,0,0.1164,submitButton,6.940972222,-0.125925926,-0.313888889,0,0,0,0,110,110,94,1,20,67009,blockT,180,2022-02-09_23h02.23.363,orientation adjustment block,2021.2.3,Win32,59.96641881,,,,,,,
,,,,,,,,,,,,,,,,,,,,,,40.55555556,-39,20,75,-31.44444444,7.555555556,7.555555556,-0.194444444,-0.392592593,1,0,0,1.2737,submitButton,6.947308133,-0.194444444,-0.32037037,0,0,0,0,111,111,113,1,39,67009,blockT,180,2022-02-09_23h02.23.363,orientation adjustment block,2021.2.3,Win32,59.96641881,,,,,,,
,,,,,,,,,,,,,,,,,,,,,,73.33333333,81,20,75,263.3333333,2.333333333,2.333333333,-0.137037037,-0.39537037,1,0,0,3.4221,submitButton,6.900226757,-0.155555556,-0.325925926,0,0,0,0,112,112,80,1,81,67009,blockT,180,2022-02-09_23h02.23.363,orientation adjustment block,2021.2.3,Win32,59.96641881,,,,,,,
,,,,,,,,,,,,,,,,,,,,,,-35.55555556,84,20,75,79.44444444,4.555555556,4.555555556,0.365740741,-0.303703704,1,0,0,1.6411,submitButton,6.87654321,-0.139814815,-0.336111111,0,0,0,0,113,113,83,1,84,67009,blockT,180,2022-02-09_23h02.23.363,orientation adjustment block,2021.2.3,Win32,59.96641881,,,,,,,
,,,,,,,,,,,,,,,,,,,,,,-43.88888889,37,20,75,36.11111111,0.888888889,0.888888889,0.209259259,-0.29537037,1,0,0,1.9746,submitButton,6.816666667,-0.113888889,-0.330555556,0,0,0,0,114,114,36,1,37,67009,blockT,180,2022-02-09_23h02.23.363,orientation adjustment block,2021.2.3,Win32,59.96641881,,,,,,,
,,,,,,,,,,,,,,,,,,,,,,-62.77777778,75,20,75,71.22222222,3.777777778,3.777777778,0.173148148,-0.303703704,1,0,0,1.0526,submitButton,6.786578658,-0.075,-0.336111111,0,0,0,0,115,115,149,1,75,67009,blockT,180,2022-02-09_23h02.23.363,orientation adjustment block,2021.2.3,Win32,59.96641881,,,,,,,
,,,,,,,,,,,,,,,,,,,,,,-47.77777778,-31,20,75,-43.77777778,12.77777778,12.77777778,0.17962963,-0.311111111,1,0,0,0.5884,submitButton,6.845315904,-0.163888889,-0.325925926,0,0,0,0,116,116,30,1,31,67009,blockT,180,2022-02-09_23h02.23.363,orientation adjustment block,2021.2.3,Win32,59.96641881,,,,,,,
,,,,,,,,,,,,,,,,,,,,,,-74.44444444,65,20,75,68.55555556,3.555555556,3.555555556,-0.157407407,-0.402777778,1,0,0,2.2374,submitButton,6.813376483,-0.164814815,-0.315740741,0,0,0,0,117,117,139,1,65,67009,blockT,180,2022-02-09_23h02.23.363,orientation adjustment block,2021.2.3,Win32,59.96641881,,,,,,,
,,,,,,,,,,,,,,,,,,,,,,52.22222222,-23,20,75,-14.77777778,8.222222222,8.222222222,0.37962963,-0.299074074,1,0,0,0.9675,submitButton,6.826923077,-0.126851852,-0.323148148,0,0,0,0,118,118,97,1,23,67009,blockT,180,2022-02-09_23h02.23.363,orientation adjustment block,2021.2.3,Win32,59.96641881,,,,,,,
,,,,,,,,,,,,,,,,,,,,,,-74.44444444,20,20,75,26.55555556,6.555555556,6.555555556,0.209259259,-0.312962963,1,0,0,0.2064,submitButton,6.824338624,0.278703704,-0.407407407,1,0,0,0,119,119,19,1,20,67009,blockT,180,2022-02-09_23h02.23.363,orientation adjustment block,2021.2.3,Win32,59.96641881,continueButton,,,,,,
,,,,,,,,,,,,,,,,,,,,,,-47.77777778,-3,20,75,-11.77777778,8.777777778,8.777777778,0.216666667,-0.288888889,1,0,0,0.3379,submitButton,6.842767296,-0.094444444,-0.240740741,0,0,0,0,120,120,2,1,3,67009,blockT,180,2022-02-09_23h02.23.363,orientation adjustment block,2021.2.3,Win32,59.96641881,,,,,,,
,,,,,,,,,,,,,,,,,,,,,,-57.22222222,70,20,75,39.77777778,30.22222222,30.22222222,-0.156481481,-0.401851852,1,0,0,1.1735,submitButton,7.061266874,0.1,-0.255555556,0,0,0,0,121,121,144,1,70,67009,blockT,180,2022-02-09_23h02.23.363,orientation adjustment block,2021.2.3,Win32,59.96641881,,,,,,,
,,,,,,,,,,,,,,,,,,,,,,-41.66666667,40,20,75,38.33333333,1.666666667,1.666666667,-0.148148148,-0.392592593,1,0,0,1.241,submitButton,7.011316872,-0.077777778,-0.275,0,0,0,0,122,122,39,1,40,67009,blockT,180,2022-02-09_23h02.23.363,orientation adjustment block,2021.2.3,Win32,59.96641881,,,,,,,
,,,,,,,,,,,,,,,,,,,,,,-72.77777778,-63,20,75,-243.7777778,0.777777778,0.777777778,-0.149074074,-0.412962963,1,0,0,2.4528,submitButton,6.95412844,-0.126851852,-0.264814815,0,0,0,0,123,123,62,1,63,67009,blockT,180,2022-02-09_23h02.23.363,orientation adjustment block,2021.2.3,Win32,59.96641881,,,,,,,
,,,,,,,,,,,,,,,,,,,,,,-46.66666667,47,20,75,41.33333333,5.666666667,5.666666667,-0.146296296,-0.399074074,1,0,0,1.4576,submitButton,6.942424242,-0.05462963,-0.282407407,0,0,0,0,124,124,121,1,47,67009,blockT,180,2022-02-09_23h02.23.363,orientation adjustment block,2021.2.3,Win32,59.96641881,,,,,,,
,,,,,,,,,,,,,,,,,,,,,,-38.88888889,-43,20,75,-44.88888889,1.888888889,1.888888889,0.202777778,-0.30462963,1,0,0,0.2398,submitButton,6.896896897,-0.140740741,-0.208333333,0,0,0,0,125,125,117,1,43,67009,blockT,180,2022-02-09_23h02.23.363,orientation adjustment block,2021.2.3,Win32,59.96641881,,,,,,,
,,,,,,,,,,,,,,,,,,,,,,-55,68,20,75,49,19,19,-0.128703704,-0.412037037,1,0,0,1.1233,submitButton,7.004960317,-0.157407407,-0.233333333,0,0,0,0,126,126,142,1,68,67009,blockT,180,2022-02-09_23h02.23.363,orientation adjustment block,2021.2.3,Win32,59.96641881,,,,,,,
,,,,,,,,,,,,,,,,,,,,,,69.44444444,28,20,75,19.44444444,8.555555556,8.555555556,0.375,-0.298148148,1,0,0,0.2727,submitButton,7.018682399,-0.246296296,-0.173148148,0,0,0,0,127,127,27,1,28,67009,blockT,180,2022-02-09_23h02.23.363,orientation adjustment block,2021.2.3,Win32,59.96641881,,,,,,,
,,,,,,,,,,,,,,,,,,,,,,27.22222222,-44,20,75,-32.77777778,11.22222222,11.22222222,0.388888889,-0.299074074,1,0,0,0.2834,submitButton,7.055555556,-0.139814815,-0.253703704,0,0,0,0,128,128,118,1,44,67009,blockT,180,2022-02-09_23h02.23.363,orientation adjustment block,2021.2.3,Win32,59.96641881,,,,,,,
,,,,,,,,,,,,,,,,,,,,,,-20.55555556,-26,20,75,-46.55555556,20.55555556,20.55555556,-0.158333333,-0.406481481,1,0,0,1.6648,submitButton,7.17294686,-0.134259259,-0.306481481,0,0,0,0,129,129,100,1,26,67009,blockT,180,2022-02-09_23h02.23.363,orientation adjustment block,2021.2.3,Win32,59.96641881,,,,,,,
,,,,,,,,,,,,,,,,,,,,,,41.66666667,-59,20,75,-43.33333333,15.66666667,15.66666667,0.368518519,-0.292592593,1,0,0,0.3558,submitButton,7.246168582,-0.175925926,-0.288888889,0,0,0,0,130,130,133,1,59,67009,blockT,180,2022-02-09_23h02.23.363,orientation adjustment block,2021.2.3,Win32,59.96641881,,,,,,,
,,,,,,,,,,,,,,,,,,,,,,-68.33333333,-19,20,75,-21.33333333,2.333333333,2.333333333,0.194444444,-0.296296296,1,0,0,1.2065,submitButton,7.204178538,-0.093518519,-0.319444444,0,0,0,0,131,131,93,1,19,67009,blockT,180,2022-02-09_23h02.23.363,orientation adjustment block,2021.2.3,Win32,59.96641881,,,,,,,
,,,,,,,,,,,,,,,,,,,,,,22.77777778,33,20,75,25.77777778,7.222222222,7.222222222,0.374074074,-0.297222222,1,0,0,0.1848,submitButton,7.20433145,-0.128703704,-0.292592593,0,0,0,0,132,132,32,1,33,67009,blockT,180,2022-02-09_23h02.23.363,orientation adjustment block,2021.2.3,Win32,59.96641881,,,,,,,
,,,,,,,,,,,,,,,,,,,,,,75,-71,20,75,-66,5,5,-0.12037037,-0.39537037,1,0,0,2.1199,submitButton,7.185807656,-0.162037037,-0.294444444,0,0,0,0,133,133,145,1,71,67009,blockT,180,2022-02-09_23h02.23.363,orientation adjustment block,2021.2.3,Win32,59.96641881,,,,,,,
,,,,,,,,,,,,,,,,,,,,,,-21.11111111,13,20,75,23.88888889,10.88888889,10.88888889,-0.137037037,-0.397222222,1,0,0,1.0518,submitButton,7.216666667,0.337037037,-0.405555556,1,0,0,0,134,134,12,1,13,67009,blockT,180,2022-02-09_23h02.23.363,orientation adjustment block,2021.2.3,Win32,59.96641881,continueButton,,,,,,
,,,,,,,,,,,,,,,,,,,,,,-62.22222222,66,20,75,58.77777778,7.222222222,7.222222222,0.200925926,-0.294444444,1,0,0,0.9563,submitButton,7.21671258,-0.066666667,-0.218518519,0,0,0,0,135,135,140,1,66,67009,blockT,180,2022-02-09_23h02.23.363,orientation adjustment block,2021.2.3,Win32,59.96641881,,,,,,,
,,,,,,,,,,,,,,,,,,,,,,72.22222222,-57,20,75,-29.77777778,27.22222222,27.22222222,-0.12037037,-0.4,1,0,0,1.658,submitButton,7.380692168,-0.111111111,-0.274074074,0,0,0,0,136,136,56,1,57,67009,blockT,180,2022-02-09_23h02.23.363,orientation adjustment block,2021.2.3,Win32,59.96641881,,,,,,,
,,,,,,,,,,,,,,,,,,,,,,-27.22222222,-22,20,75,-30.22222222,8.222222222,8.222222222,-0.113888889,-0.391666667,1,0,0,1.001,submitButton,7.387533875,-0.107407407,-0.264814815,0,0,0,0,137,137,96,1,22,67009,blockT,180,2022-02-09_23h02.23.363,orientation adjustment block,2021.2.3,Win32,59.96641881,,,,,,,
,,,,,,,,,,,,,,,,,,,,,,-29.44444444,-58,20,75,-63.44444444,5.444444444,5.444444444,0.231481481,-0.298148148,1,0,0,0.0168,submitButton,7.371863799,-0.157407407,-0.275,0,0,0,0,138,138,132,1,58,67009,blockT,180,2022-02-09_23h02.23.363,orientation adjustment block,2021.2.3,Win32,59.96641881,,,,,,,
,,,,,,,,,,,,,,,,,,,,,,-58.88888889,-57,20,75,-231.8888889,5.111111111,5.111111111,0.416666667,-0.302777778,1,0,0,0.0667,submitButton,7.353777778,-0.131481481,-0.212962963,0,0,0,0,139,139,131,1,57,67009,blockT,180,2022-02-09_23h02.23.363,orientation adjustment block,2021.2.3,Win32,59.96641881,,,,,,,
,,,,,,,,,,,,,,,,,,,,,,-20,46,20,75,26,20,20,-0.190740741,-0.388888889,1,0,0,0.9855,submitButton,7.454144621,-0.191666667,-0.299074074,0,0,0,0,140,140,120,1,46,67009,blockT,180,2022-02-09_23h02.23.363,orientation adjustment block,2021.2.3,Win32,59.96641881,,,,,,,
,,,,,,,,,,,,,,,,,,,,,,-50.55555556,-52,20,75,-226.5555556,5.444444444,5.444444444,0.401851852,-0.32037037,1,0,0,0.2239,submitButton,7.43832021,-0.116666667,-0.225925926,0,0,0,0,141,141,126,1,52,67009,blockT,180,2022-02-09_23h02.23.363,orientation adjustment block,2021.2.3,Win32,59.96641881,,,,,,,
,,,,,,,,,,,,,,,,,,,,,,22.22222222,69,20,75,71.22222222,2.222222222,2.222222222,0.384259259,-0.312962963,1,0,0,0.54,submitButton,7.397569444,-0.187037037,-0.265740741,0,0,0,0,142,142,68,1,69,67009,blockT,180,2022-02-09_23h02.23.363,orientation adjustment block,2021.2.3,Win32,59.96641881,,,,,,,
,,,,,,,,,,,,,,,,,,,,,,-41.11111111,-16,20,75,-27.11111111,11.11111111,11.11111111,0.214814815,-0.285185185,1,0,0,0.0898,submitButton,7.426356589,-0.157407407,-0.149074074,0,0,0,0,143,143,90,1,16,67009,blockT,180,2022-02-09_23h02.23.363,orientation adjustment block,2021.2.3,Win32,59.96641881,,,,,,,
,,,,,,,,,,,,,,,,,,,,,,40.55555556,29,20,75,30.55555556,1.555555556,1.555555556,0.387962963,-0.298148148,1,0,0,0.1329,submitButton,7.381196581,-0.102777778,-0.272222222,0,0,0,0,144,144,28,1,29,67009,blockT,180,2022-02-09_23h02.23.363,orientation adjustment block,2021.2.3,Win32,59.96641881,,,,,,,
,,,,,,,,,,,,,,,,,,,,,,55.55555556,45,20,75,208.5555556,16.44444444,16.44444444,-0.119444444,-0.398148148,1,0,0,2.5363,submitButton,7.450381679,-0.128703704,-0.312962963,0,0,0,0,145,145,119,1,45,67009,blockT,180,2022-02-09_23h02.23.363,orientation adjustment block,2021.2.3,Win32,59.96641881,,,,,,,
,,,,,,,,,,,,,,,,,,,,,,-37.77777778,-63,20,75,-250.7777778,7.777777778,7.777777778,0.389814815,-0.301851852,1,0,0,0.8797,submitButton,7.452861953,-0.132407407,-0.289814815,0,0,0,0,146,146,137,1,63,67009,blockT,180,2022-02-09_23h02.23.363,orientation adjustment block,2021.2.3,Win32,59.96641881,,,,,,,
,,,,,,,,,,,,,,,,,,,,,,56.11111111,53,20,75,227.1111111,5.888888889,5.888888889,0.168518519,-0.303703704,1,0,0,0.2068,submitButton,7.441102757,-0.167592593,-0.311111111,0,0,0,0,147,147,127,1,53,67009,blockT,180,2022-02-09_23h02.23.363,orientation adjustment block,2021.2.3,Win32,59.96641881,,,,,,,
,,,,,,,,,,,,,,,,,,,,,,-34.44444444,-55,20,75,-58.44444444,3.444444444,3.444444444,0.187037037,-0.318518519,1,0,0,0.1663,submitButton,7.411276949,-0.142592593,-0.315740741,0,0,0,0,148,148,129,1,55,67009,blockT,180,2022-02-09_23h02.23.363,orientation adjustment block,2021.2.3,Win32,59.96641881,,,,,,,
,,,,,,,,,,,,,,,,,,,,,,-20,35,20,75,15,20,20,-0.162037037,-0.401851852,1,0,0,0.8176,submitButton,7.504526749,0.269444444,-0.387037037,1,0,0,0,149,149,109,1,35,67009,blockT,180,2022-02-09_23h02.23.363,orientation adjustment block,2021.2.3,Win32,59.96641881,continueButton,,,,,,
,,,,,,,,,,,,,,,,,,,,,,66.66666667,19,20,75,13.66666667,5.333333333,,,,,,,,,,,,,,,,,,,,,67009,blockT,180,2022-02-09_23h02.23.363,orientation adjustment block,2021.2.3,Win32,59.96641881,,0.269444444,-0.403703704,1,0,0,EndButtonTxt
,,,,,,,,,,,,,,,,,,,,,,73.88888889,53,20,75,228.8888889,4.111111111,,,,,,,,,,,,,,,,,,,,,,,,,,,,,,,,,,,
,,,,,,,,,,,,,,,,,,,,,,-70,-73,20,75,-253,0,,,,,,,,,,,,,,,,,,,,,,,,,,,,,,,,,,,
,,,,,,,,,,,,,,,,,,,,,,-70,61,20,75,78,17,,,,,,,,,,,,,,,,,,,,,,,,,,,,,,,,,,,
,,,,,,,,,,,,,,,,,,,,,,-39.44444444,-35,20,75,-38.44444444,3.444444444,,,,,,,,,,,,,,,,,,,,,,,,,,,,,,,,,,,
,,,,,,,,,,,,,,,,,,,,,,-68.33333333,69,20,75,72.66666667,3.666666667,,,,,,,,,,,,,,,,,,,,,,,,,,,,,,,,,,,
,,,,,,,,,,,,,,,,,,,,,,73.33333333,-59,20,75,-45.66666667,13.33333333,,,,,,,,,,,,,,,,,,,,,,,,,,,,,,,,,,,
,,,,,,,,,,,,,,,,,,,,,,74.44444444,-63,20,75,-60.55555556,2.444444444,,,,,,,,,,,,,,,,,,,,,,,,,,,,,,,,,,,
,,,,,,,,,,,,,,,,,,,,,,24.44444444,-37,20,75,-23.55555556,13.44444444,,,,,,,,,,,,,,,,,,,,,,,,,,,,,,,,,,,
,,,,,,,,,,,,,,,,,,,,,,-51.66666667,68,20,75,71.33333333,3.333333333,,,,,,,,,,,,,,,,,,,,,,,,,,,,,,,,,,,
,,,,,,,,,,,,,,,,,,,,,,-61.66666667,-51,20,75,-56.66666667,5.666666667,,,,,,,,,,,,,,,,,,,,,,,,,,,,,,,,,,,
,,,,,,,,,,,,,,,,,,,,,,32.77777778,-30,20,75,-23.22222222,6.777777778,,,,,,,,,,,,,,,,,,,,,,,,,,,,,,,,,,,
,,,,,,,,,,,,,,,,,,,,,,-66.11111111,-43,20,75,-66.11111111,23.11111111,,,,,,,,,,,,,,,,,,,,,,,,,,,,,,,,,,,
,,,,,,,,,,,,,,,,,,,,,,28.88888889,49,20,75,46.88888889,2.111111111,,,,,,,,,,,,,,,,,,,,,,,,,,,,,,,,,,,
,,,,,,,,,,,,,,,,,,,,,,32.77777778,-21,20,75,-11.22222222,9.777777778,,,,,,,,,,,,,,,,,,,,,,,,,,,,,,,,,,,
,,,,,,,,,,,,,,,,,,,,,,-29.44444444,-54,20,75,-63.44444444,9.444444444,,,,,,,,,,,,,,,,,,,,,,,,,,,,,,,,,,,
,,,,,,,,,,,,,,,,,,,,,,69.44444444,-72,20,75,-80.55555556,8.555555556,,,,,,,,,,,,,,,,,,,,,,,,,,,,,,,,,,,
,,,,,,,,,,,,,,,,,,,,,,-56.11111111,42,20,75,30.88888889,11.11111111,,,,,,,,,,,,,,,,,,,,,,,,,,,,,,,,,,,
,,,,,,,,,,,,,,,,,,,,,,33.33333333,-70,20,75,-68.66666667,1.333333333,,,,,,,,,,,,,,,,,,,,,,,,,,,,,,,,,,,
,,,,,,,,,,,,,,,,,,,,,,-52.22222222,39,20,75,24.77777778,14.22222222,,,,,,,,,,,,,,,,,,,,,,,,,,,,,,,,,,,
,,,,,,,,,,,,,,,,,,,,,,-36.11111111,-20,20,75,-19.11111111,0.888888889,,,,,,,,,,,,,,,,,,,,,,,,,,,,,,,,,,,
,,,,,,,,,,,,,,,,,,,,,,43.33333333,-47,20,75,-34.66666667,12.33333333,,,,,,,,,,,,,,,,,,,,,,,,,,,,,,,,,,,
,,,,,,,,,,,,,,,,,,,,,,71.11111111,45,20,75,230.1111111,5.111111111,,,,,,,,,,,,,,,,,,,,,,,,,,,,,,,,,,,
,,,,,,,,,,,,,,,,,,,,,,-66.66666667,18,20,75,10.33333333,7.666666667,,,,,,,,,,,,,,,,,,,,,,,,,,,,,,,,,,,
,,,,,,,,,,,,,,,,,,,,,,20,34,20,75,36,2,,,,,,,,,,,,,,,,,,,,,,,,,,,,,,,,,,,
,,,,,,,,,,,,,,,,,,,,,,-57.22222222,28,20,75,18.77777778,9.222222222,,,,,,,,,,,,,,,,,,,,,,,,,,,,,,,,,,,
,,,,,,,,,,,,,,,,,,,,,,55.55555556,-41,20,75,-34.44444444,6.555555556,,,,,,,,,,,,,,,,,,,,,,,,,,,,,,,,,,,
,,,,,,,,,,,,,,,,,,,,,,-57.22222222,-23,20,75,-26.22222222,3.222222222,,,,,,,,,,,,,,,,,,,,,,,,,,,,,,,,,,,
,,,,,,,,,,,,,,,,,,,,,,-38.88888889,-31,20,75,-27.88888889,3.111111111,,,,,,,,,,,,,,,,,,,,,,,,,,,,,,,,,,,
,,,,,,,,,,,,,,,,,,,,,,-56.11111111,-64,20,75,-71.11111111,7.111111111,,,,,,,,,,,,,,,,,,,,,,,,,,,,,,,,,,,
