consentMouse1.x,consentMouse1.y,consentMouse1.leftButton,consentMouse1.midButton,consentMouse1.rightButton,consentMouse1.clicked_name,consent_Mouse.x,consent_Mouse.y,consent_Mouse.leftButton,consent_Mouse.midButton,consent_Mouse.rightButton,consent_Mouse.clicked_name,startMouse.x,startMouse.y,startMouse.leftButton,startMouse.midButton,startMouse.rightButton,startMouse_2.x,startMouse_2.y,startMouse_2.leftButton,startMouse_2.midButton,startMouse_2.rightButton,start_distance,fixedOri,minimalDistance,maxOri,this_ori,accuracy,presented_accuracy,submitMouse.x,submitMouse.y,submitMouse.leftButton,submitMouse.midButton,submitMouse.rightButton,submitMouse.time,submitMouse.clicked_name,block_accuracy,continueMouse.x,continueMouse.y,continueMouse.leftButton,continueMouse.midButton,continueMouse.rightButton,trials.thisRepN,trials.thisTrialN,trials.thisN,trials.thisIndex,trials.ran,startOri,participant,condition,nTrials,date,expName,psychopyVersion,OS,frameRate,continueMouse.clicked_name,EndButtonMouse.x,EndButtonMouse.y,EndButtonMouse.leftButton,EndButtonMouse.midButton,EndButtonMouse.rightButton,EndButtonMouse.clicked_name
0.426666667,-0.403333333,1,0,0,consent_button1,0.422222222,-0.404444444,1,0,0,consent_button,0.395555556,-0.235555556,1,0,0,0.241111111,0.277777778,1,0,0,24.44444444,67,20,75,135.4444444,68.44444444,68.44444444,0.225555556,-0.305555556,1,0,0,3.383,submitButton,68.44444444,-0.233333333,-0.401111111,0,0,0,0,0,0,51,1,67,67120,blockT,180,2022-02-17_12h15.54,orientation adjustment block,2021.2.3,MacIntel,47.61904762,,,,,,,
,,,,,,,,,,,,,,,,,,,,,,34.44444444,-58,20,75,-44.55555556,13.44444444,13.44444444,0.39,-0.29,1,0,0,0.401,submitButton,40.94444444,-0.221111111,-0.393333333,0,0,0,0,1,1,42,1,58,67120,blockT,180,2022-02-17_12h15.54,orientation adjustment block,2021.2.3,MacIntel,47.61904762,,,,,,,
,,,,,,,,,,,,,,,,,,,,,,27.22222222,-32,20,75,-35.77777778,3.777777778,3.777777778,0.388888889,-0.305555556,1,0,0,0.183,submitButton,28.55555556,-0.184444444,-0.392222222,0,0,0,0,2,2,16,1,32,67120,blockT,180,2022-02-17_12h15.54,orientation adjustment block,2021.2.3,MacIntel,47.61904762,,,,,,,
,,,,,,,,,,,,,,,,,,,,,,65.55555556,-19,20,75,148.5555556,12.44444444,12.44444444,0.233333333,-0.315555556,1,0,0,0.483,submitButton,12.44444444,-0.206666667,-0.396666667,0,0,0,0,3,3,3,1,19,67120,blockT,180,2022-02-17_12h15.54,orientation adjustment block,2021.2.3,MacIntel,47.61904762,,,,,,,
,,,,,,,,,,,,,,,,,,,,,,42.77777778,46,20,75,45.77777778,0.222222222,0.222222222,0.378888889,-0.306666667,1,0,0,0.549,submitButton,6.333333333,-0.236666667,-0.384444444,0,0,0,0,4,4,30,1,46,67120,blockT,180,2022-02-17_12h15.54,orientation adjustment block,2021.2.3,MacIntel,47.61904762,,,,,,,
,,,,,,,,,,,,,,,,,,,,,,-43.88888889,-51,20,75,23.11111111,74.11111111,74.11111111,0.192222222,-0.311111111,1,0,0,0.333,submitButton,28.92592593,-0.28,-0.412222222,0,0,0,0,5,5,35,1,51,67120,blockT,180,2022-02-17_12h15.54,orientation adjustment block,2021.2.3,MacIntel,47.61904762,,,,,,,
,,,,,,,,,,,,,,,,,,,,,,-32.77777778,-64,20,75,-215.7777778,28.22222222,28.22222222,0.38,-0.301111111,1,0,0,0.15,submitButton,28.22222222,-0.186666667,-0.397777778,0,0,0,0,6,6,48,1,64,67120,blockT,180,2022-02-17_12h15.54,orientation adjustment block,2021.2.3,MacIntel,47.61904762,,,,,,,
,,,,,,,,,,,,,,,,,,,,,,-37.22222222,-57,20,75,-251.2222222,14.22222222,14.22222222,0.411111111,-0.316666667,1,0,0,2.4,submitButton,21.22222222,-0.266666667,-0.394444444,0,0,0,0,7,7,41,1,57,67120,blockT,180,2022-02-17_12h15.54,orientation adjustment block,2021.2.3,MacIntel,47.61904762,,,,,,,
,,,,,,,,,,,,,,,,,,,,,,-42.22222222,-34,20,75,-25.22222222,8.777777778,8.777777778,0.226666667,-0.323333333,1,0,0,0.983,submitButton,17.07407407,0.217777778,-0.323333333,0,0,0,0,8,8,18,1,34,67120,blockT,180,2022-02-17_12h15.54,orientation adjustment block,2021.2.3,MacIntel,47.61904762,,,,,,,
,,,,,,,,,,,,,,,,,,,,,,-68.33333333,40,20,75,26.66666667,13.33333333,13.33333333,0.215555556,-0.308888889,1,0,0,1.05,submitButton,13.33333333,0.185555556,-0.254444444,0,0,0,0,9,9,24,1,40,67120,blockT,180,2022-02-17_12h15.54,orientation adjustment block,2021.2.3,MacIntel,47.61904762,,,,,,,
,,,,,,,,,,,,,,,,,,,,,,35.55555556,-48,20,75,-48.44444444,0.444444444,0.444444444,0.42,-0.284444444,1,0,0,0.667,submitButton,6.888888889,-0.106666667,-0.383333333,0,0,0,0,10,10,32,1,48,67120,blockT,180,2022-02-17_12h15.54,orientation adjustment block,2021.2.3,MacIntel,47.61904762,,,,,,,
,,,,,,,,,,,,,,,,,,,,,,28.88888889,-54,20,75,-68.11111111,14.11111111,14.11111111,0.397777778,-0.301111111,1,0,0,0.117,submitButton,9.296296296,0.287777778,-0.251111111,0,0,0,0,11,11,38,1,54,67120,blockT,180,2022-02-17_12h15.54,orientation adjustment block,2021.2.3,MacIntel,47.61904762,,,,,,,
,,,,,,,,,,,,,,,,,,,,,,72.22222222,75,20,75,53.22222222,21.77777778,21.77777778,0.357777778,-0.313333333,1,0,0,0.267,submitButton,21.77777778,-0.232222222,-0.387777778,0,0,0,0,12,12,59,1,75,67120,blockT,180,2022-02-17_12h15.54,orientation adjustment block,2021.2.3,MacIntel,47.61904762,,,,,,,
,,,,,,,,,,,,,,,,,,,,,,43.33333333,-74,20,75,-69.66666667,4.333333333,4.333333333,-0.152222222,-0.405555556,1,0,0,1.434,submitButton,13.05555556,-0.152222222,-0.405555556,0,0,0,0,13,13,58,1,74,67120,blockT,180,2022-02-17_12h15.54,orientation adjustment block,2021.2.3,MacIntel,47.61904762,,,,,,,
,,,,,,,,,,,,,,,,,,,,,,-25.55555556,-28,20,75,-19.55555556,8.444444444,8.444444444,0.19,-0.296666667,1,0,0,0.099,submitButton,11.51851852,0.394444444,-0.402222222,1,0,0,0,14,14,12,1,28,67120,blockT,180,2022-02-17_12h15.54,orientation adjustment block,2021.2.3,MacIntel,47.61904762,continueButton,,,,,,
,,,,,,,,,,,,,,,,,,,,,,41.66666667,-66,20,75,-62.33333333,3.666666667,3.666666667,-0.17,-0.433333333,1,0,0,0.882,submitButton,3.666666667,0.207777778,-0.305555556,0,0,0,0,15,15,50,1,66,67120,blockT,180,2022-02-17_12h15.54,orientation adjustment block,2021.2.3,MacIntel,47.61904762,,,,,,,
,,,,,,,,,,,,,,,,,,,,,,-38.88888889,-18,20,75,-11.88888889,6.111111111,6.111111111,0.235555556,-0.295555556,1,0,0,0.25,submitButton,4.888888889,-0.203333333,-0.398888889,0,0,0,0,16,16,2,1,18,67120,blockT,180,2022-02-17_12h15.54,orientation adjustment block,2021.2.3,MacIntel,47.61904762,,,,,,,
,,,,,,,,,,,,,,,,,,,,,,48.88888889,27,20,75,24.88888889,2.111111111,2.111111111,0.38,-0.286666667,1,0,0,0.8,submitButton,3.962962963,-0.202222222,-0.384444444,0,0,0,0,17,17,11,1,27,67120,blockT,180,2022-02-17_12h15.54,orientation adjustment block,2021.2.3,MacIntel,47.61904762,,,,,,,
,,,,,,,,,,,,,,,,,,,,,,-32.22222222,-72,20,75,-253.2222222,1.222222222,1.222222222,0.378888889,-0.301111111,1,0,0,0.3,submitButton,3.277777778,0.364444444,-0.23,0,0,0,0,18,18,56,1,72,67120,blockT,180,2022-02-17_12h15.54,orientation adjustment block,2021.2.3,MacIntel,47.61904762,,,,,,,
,,,,,,,,,,,,,,,,,,,,,,-25.55555556,31,20,75,25.44444444,5.555555556,5.555555556,0.227777778,-0.295555556,1,0,0,0.318,submitButton,3.733333333,-0.117777778,-0.38,0,0,0,0,19,19,15,1,31,67120,blockT,180,2022-02-17_12h15.54,orientation adjustment block,2021.2.3,MacIntel,47.61904762,,,,,,,
,,,,,,,,,,,,,,,,,,,,,,-25,45,20,75,44,1,1,-0.15,-0.404444444,1,0,0,0.9,submitButton,3.277777778,-0.15,-0.404444444,0,0,0,0,20,20,29,1,45,67120,blockT,180,2022-02-17_12h15.54,orientation adjustment block,2021.2.3,MacIntel,47.61904762,,,,,,,
,,,,,,,,,,,,,,,,,,,,,,-40.55555556,63,20,75,53.44444444,9.555555556,9.555555556,-0.191111111,-0.392222222,1,0,0,0.9,submitButton,4.174603175,-0.191111111,-0.392222222,0,0,0,0,21,21,47,1,63,67120,blockT,180,2022-02-17_12h15.54,orientation adjustment block,2021.2.3,MacIntel,47.61904762,,,,,,,
,,,,,,,,,,,,,,,,,,,,,,-21.11111111,17,20,75,18.88888889,1.888888889,1.888888889,-0.204444444,-0.412222222,1,0,0,0.882,submitButton,3.888888889,-0.204444444,-0.412222222,0,0,0,0,22,22,1,1,17,67120,blockT,180,2022-02-17_12h15.54,orientation adjustment block,2021.2.3,MacIntel,47.61904762,,,,,,,
,,,,,,,,,,,,,,,,,,,,,,53.33333333,16,20,75,22.33333333,6.333333333,6.333333333,0.446666667,-0.298888889,1,0,0,0.216,submitButton,4.160493827,-0.142222222,-0.415555556,0,0,0,0,23,23,0,1,16,67120,blockT,180,2022-02-17_12h15.54,orientation adjustment block,2021.2.3,MacIntel,47.61904762,,,,,,,
,,,,,,,,,,,,,,,,,,,,,,53.88888889,61,20,75,217.8888889,23.11111111,23.11111111,0.21,-0.286666667,1,0,0,1.367,submitButton,6.055555556,-0.2,-0.425555556,0,0,0,0,24,24,45,1,61,67120,blockT,180,2022-02-17_12h15.54,orientation adjustment block,2021.2.3,MacIntel,47.61904762,,,,,,,
,,,,,,,,,,,,,,,,,,,,,,71.66666667,39,20,75,206.6666667,12.33333333,12.33333333,0.214444444,-0.324444444,1,0,0,0.033,submitButton,6.626262626,-0.268888889,-0.416666667,0,0,0,0,25,25,23,1,39,67120,blockT,180,2022-02-17_12h15.54,orientation adjustment block,2021.2.3,MacIntel,47.61904762,,,,,,,
,,,,,,,,,,,,,,,,,,,,,,47.22222222,-53,20,75,-57.77777778,4.777777778,4.777777778,0.394444444,-0.31,1,0,0,0.134,submitButton,6.472222222,0.122222222,-0.243333333,0,0,0,0,26,26,37,1,53,67120,blockT,180,2022-02-17_12h15.54,orientation adjustment block,2021.2.3,MacIntel,47.61904762,,,,,,,
,,,,,,,,,,,,,,,,,,,,,,-67.22222222,60,20,75,-133.2222222,13.22222222,13.22222222,0.444444444,-0.312222222,1,0,0,0.2,submitButton,6.991452991,-0.154444444,-0.4,0,0,0,0,27,27,44,1,60,67120,blockT,180,2022-02-17_12h15.54,orientation adjustment block,2021.2.3,MacIntel,47.61904762,,,,,,,
,,,,,,,,,,,,,,,,,,,,,,-36.11111111,-20,20,75,-17.11111111,2.888888889,2.888888889,-0.26,-0.386666667,1,0,0,1.1,submitButton,6.698412698,-0.26,-0.386666667,0,0,0,0,28,28,4,1,20,67120,blockT,180,2022-02-17_12h15.54,orientation adjustment block,2021.2.3,MacIntel,47.61904762,,,,,,,
,,,,,,,,,,,,,,,,,,,,,,52.22222222,-22,20,75,-21.77777778,0.222222222,0.222222222,-0.165555556,-0.392222222,1,0,0,1.284,submitButton,6.266666667,0.325555556,-0.396666667,1,0,0,0,29,29,6,1,22,67120,blockT,180,2022-02-17_12h15.54,orientation adjustment block,2021.2.3,MacIntel,47.61904762,continueButton,,,,,,
,,,,,,,,,,,,,,,,,,,,,,60,-21,20,75,-21,0,0,-0.188888889,-0.4,1,0,0,3.8,submitButton,5.875,-0.188888889,-0.4,0,0,0,0,30,30,5,1,21,67120,blockT,180,2022-02-17_12h15.54,orientation adjustment block,2021.2.3,MacIntel,47.61904762,,,,,,,
,,,,,,,,,,,,,,,,,,,,,,-30,-47,20,75,-54,7,7,0.182222222,-0.304444444,1,0,0,0.4,submitButton,5.941176471,-0.347777778,-0.361111111,0,0,0,0,31,31,31,1,47,67120,blockT,180,2022-02-17_12h15.54,orientation adjustment block,2021.2.3,MacIntel,47.61904762,,,,,,,
,,,,,,,,,,,,,,,,,,,,,,-40,-50,20,75,-50,0,0,0.38,-0.282222222,1,0,0,2.182,submitButton,5.611111111,-0.226666667,-0.411111111,0,0,0,0,32,32,34,1,50,67120,blockT,180,2022-02-17_12h15.54,orientation adjustment block,2021.2.3,MacIntel,47.61904762,,,,,,,
,,,,,,,,,,,,,,,,,,,,,,56.66666667,-24,20,75,-24.33333333,0.333333333,0.333333333,0.392222222,-0.292222222,1,0,0,0.283,submitButton,5.333333333,-0.18,-0.381111111,0,0,0,0,33,33,8,1,24,67120,blockT,180,2022-02-17_12h15.54,orientation adjustment block,2021.2.3,MacIntel,47.61904762,,,,,,,
,,,,,,,,,,,,,,,,,,,,,,47.77777778,-30,20,75,-24.22222222,5.777777778,5.777777778,0.397777778,-0.281111111,1,0,0,0.083,submitButton,5.355555556,-0.177777778,-0.402222222,0,0,0,0,34,34,14,1,30,67120,blockT,180,2022-02-17_12h15.54,orientation adjustment block,2021.2.3,MacIntel,47.61904762,,,,,,,
,,,,,,,,,,,,,,,,,,,,,,-73.88888889,62,20,75,59.11111111,2.888888889,2.888888889,0.221111111,-0.294444444,1,0,0,1.785,submitButton,5.238095238,-0.345555556,-0.395555556,0,0,0,0,35,35,46,1,62,67120,blockT,180,2022-02-17_12h15.54,orientation adjustment block,2021.2.3,MacIntel,47.61904762,,,,,,,
,,,,,,,,,,,,,,,,,,,,,,47.22222222,65,20,75,245.2222222,0.222222222,0.222222222,0.226666667,-0.29,1,0,0,0.833,submitButton,5.01010101,-0.161111111,-0.373333333,0,0,0,0,36,36,49,1,65,67120,blockT,180,2022-02-17_12h15.54,orientation adjustment block,2021.2.3,MacIntel,47.61904762,,,,,,,
,,,,,,,,,,,,,,,,,,,,,,-36.66666667,36,20,75,39.33333333,3.333333333,3.333333333,0.208888889,-0.317777778,1,0,0,0.317,submitButton,4.937198068,0.096666667,-0.298888889,0,0,0,0,37,37,20,1,36,67120,blockT,180,2022-02-17_12h15.54,orientation adjustment block,2021.2.3,MacIntel,47.61904762,,,,,,,
,,,,,,,,,,,,,,,,,,,,,,51.11111111,-26,20,75,-25.88888889,0.111111111,0.111111111,0.404444444,-0.326666667,1,0,0,0.484,submitButton,4.736111111,-0.127777778,-0.414444444,0,0,0,0,38,38,10,1,26,67120,blockT,180,2022-02-17_12h15.54,orientation adjustment block,2021.2.3,MacIntel,47.61904762,,,,,,,
,,,,,,,,,,,,,,,,,,,,,,-57.77777778,-49,20,75,-42.77777778,6.222222222,6.222222222,0.186666667,-0.313333333,1,0,0,0.701,submitButton,4.795555556,-0.191111111,-0.38,0,0,0,0,39,39,33,1,49,67120,blockT,180,2022-02-17_12h15.54,orientation adjustment block,2021.2.3,MacIntel,47.61904762,,,,,,,
,,,,,,,,,,,,,,,,,,,,,,60.55555556,-44,20,75,-40.44444444,3.555555556,3.555555556,0.363333333,-0.283333333,1,0,0,0.067,submitButton,4.747863248,-0.035555556,-0.327777778,0,0,0,0,40,40,28,1,44,67120,blockT,180,2022-02-17_12h15.54,orientation adjustment block,2021.2.3,MacIntel,47.61904762,,,,,,,
,,,,,,,,,,,,,,,,,,,,,,-65.55555556,-59,20,75,-246.5555556,7.555555556,7.555555556,0.378888889,-0.298888889,1,0,0,1.567,submitButton,4.851851852,-0.225555556,-0.387777778,0,0,0,0,41,41,43,1,59,67120,blockT,180,2022-02-17_12h15.54,orientation adjustment block,2021.2.3,MacIntel,47.61904762,,,,,,,
,,,,,,,,,,,,,,,,,,,,,,-40,52,20,75,66,14,14,0.204444444,-0.302222222,1,0,0,0.416,submitButton,5.178571429,0.228888889,-0.313333333,0,0,0,0,42,42,36,1,52,67120,blockT,180,2022-02-17_12h15.54,orientation adjustment block,2021.2.3,MacIntel,47.61904762,,,,,,,
,,,,,,,,,,,,,,,,,,,,,,34.44444444,38,20,75,44.44444444,6.444444444,6.444444444,0.404444444,-0.316666667,1,0,0,0.434,submitButton,5.222222222,0.023333333,-0.202222222,0,0,0,0,43,43,22,1,38,67120,blockT,180,2022-02-17_12h15.54,orientation adjustment block,2021.2.3,MacIntel,47.61904762,,,,,,,
,,,,,,,,,,,,,,,,,,,,,,71.66666667,-43,20,75,-46.33333333,3.333333333,3.333333333,0.215555556,-0.288888889,1,0,0,0.134,submitButton,5.159259259,0.302222222,-0.398888889,1,0,0,0,44,44,27,1,43,67120,blockT,180,2022-02-17_12h15.54,orientation adjustment block,2021.2.3,MacIntel,47.61904762,continueButton,,,,,,
,,,,,,,,,,,,,,,,,,,,,,62.22222222,23,20,75,32.22222222,9.222222222,9.222222222,0.416666667,-0.3,1,0,0,0.384,submitButton,5.290322581,-0.295555556,-0.4,0,0,0,0,45,45,7,1,23,67120,blockT,180,2022-02-17_12h15.54,orientation adjustment block,2021.2.3,MacIntel,47.61904762,,,,,,,
,,,,,,,,,,,,,,,,,,,,,,-28.88888889,-29,20,75,-34.88888889,5.888888889,5.888888889,0.207777778,-0.326666667,1,0,0,0.701,submitButton,5.309027778,-0.245555556,-0.408888889,0,0,0,0,46,46,13,1,29,67120,blockT,180,2022-02-17_12h15.54,orientation adjustment block,2021.2.3,MacIntel,47.61904762,,,,,,,
,,,,,,,,,,,,,,,,,,,,,,54.44444444,69,20,75,238.4444444,10.55555556,10.55555556,0.175555556,-0.31,1,0,0,2.216,submitButton,5.468013468,-0.226666667,-0.408888889,0,0,0,0,47,47,53,1,69,67120,blockT,180,2022-02-17_12h15.54,orientation adjustment block,2021.2.3,MacIntel,47.61904762,,,,,,,
,,,,,,,,,,,,,,,,,,,,,,-20,-33,20,75,-212,1,1,0.367777778,-0.3,1,0,0,0.1,submitButton,5.336601307,0.228888889,-0.093333333,0,0,0,0,48,48,17,1,33,67120,blockT,180,2022-02-17_12h15.54,orientation adjustment block,2021.2.3,MacIntel,47.61904762,,,,,,,
,,,,,,,,,,,,,,,,,,,,,,67.77777778,73,20,75,245.7777778,7.222222222,7.222222222,0.176666667,-0.298888889,1,0,0,0.917,submitButton,5.39047619,-0.326666667,-0.388888889,0,0,0,0,49,49,57,1,73,67120,blockT,180,2022-02-17_12h15.54,orientation adjustment block,2021.2.3,MacIntel,47.61904762,,,,,,,
,,,,,,,,,,,,,,,,,,,,,,-59.44444444,-71,20,75,-67.44444444,3.555555556,3.555555556,0.224444444,-0.302222222,1,0,0,0.133,submitButton,5.339506173,-0.226666667,-0.412222222,0,0,0,0,50,50,55,1,71,67120,blockT,180,2022-02-17_12h15.54,orientation adjustment block,2021.2.3,MacIntel,47.61904762,,,,,,,
,,,,,,,,,,,,,,,,,,,,,,65,-35,20,75,-30,5,5,0.4,-0.287777778,1,0,0,0.034,submitButton,5.33033033,-0.247777778,-0.363333333,0,0,0,0,51,51,19,1,35,67120,blockT,180,2022-02-17_12h15.54,orientation adjustment block,2021.2.3,MacIntel,47.61904762,,,,,,,
,,,,,,,,,,,,,,,,,,,,,,-46.11111111,41,20,75,43.88888889,2.888888889,2.888888889,0.133333333,-0.307777778,1,0,0,0.733,submitButton,5.266081871,0.284444444,-0.082222222,0,0,0,0,52,52,25,1,41,67120,blockT,180,2022-02-17_12h15.54,orientation adjustment block,2021.2.3,MacIntel,47.61904762,,,,,,,
,,,,,,,,,,,,,,,,,,,,,,-50.55555556,56,20,75,59.44444444,3.444444444,3.444444444,-0.225555556,-0.425555556,1,0,0,1.35,submitButton,5.219373219,-0.225555556,-0.425555556,0,0,0,0,53,53,40,1,56,67120,blockT,180,2022-02-17_12h15.54,orientation adjustment block,2021.2.3,MacIntel,47.61904762,,,,,,,
,,,,,,,,,,,,,,,,,,,,,,-32.77777778,-42,20,75,-209.7777778,12.22222222,12.22222222,-0.32,-0.385555556,1,0,0,2.901,submitButton,5.394444444,-0.3,-0.361111111,0,0,0,0,54,54,26,1,42,67120,blockT,180,2022-02-17_12h15.54,orientation adjustment block,2021.2.3,MacIntel,47.61904762,,,,,,,
,,,,,,,,,,,,,,,,,,,,,,51.66666667,-25,20,75,-35.33333333,10.33333333,10.33333333,-0.172222222,-0.383333333,1,0,0,1.632,submitButton,5.514905149,-0.172222222,-0.383333333,0,0,0,0,55,55,9,1,25,67120,blockT,180,2022-02-17_12h15.54,orientation adjustment block,2021.2.3,MacIntel,47.61904762,,,,,,,
,,,,,,,,,,,,,,,,,,,,,,70,-55,20,75,-65,10,10,0.421111111,-0.283333333,1,0,0,0.25,submitButton,5.621693122,0.394444444,-0.232222222,0,0,0,0,56,56,39,1,55,67120,blockT,180,2022-02-17_12h15.54,orientation adjustment block,2021.2.3,MacIntel,47.61904762,,,,,,,
,,,,,,,,,,,,,,,,,,,,,,-46.11111111,70,20,75,71.88888889,1.888888889,1.888888889,0.208888889,-0.296666667,1,0,0,0.067,submitButton,5.534883721,-0.234444444,-0.402222222,0,0,0,0,57,57,54,1,70,67120,blockT,180,2022-02-17_12h15.54,orientation adjustment block,2021.2.3,MacIntel,47.61904762,,,,,,,
,,,,,,,,,,,,,,,,,,,,,,-40.55555556,37,20,75,43.44444444,6.444444444,6.444444444,0.223333333,-0.302222222,1,0,0,0.5,submitButton,5.555555556,-0.172222222,-0.381111111,0,0,0,0,58,58,21,1,37,67120,blockT,180,2022-02-17_12h15.54,orientation adjustment block,2021.2.3,MacIntel,47.61904762,,,,,,,
,,,,,,,,,,,,,,,,,,,,,,-26.66666667,-68,20,75,-76.66666667,8.666666667,8.666666667,0.203333333,-0.296666667,1,0,0,1.35,submitButton,5.624691358,0.392222222,-0.401111111,1,0,0,0,59,59,52,1,68,67120,blockT,180,2022-02-17_12h15.54,orientation adjustment block,2021.2.3,MacIntel,47.61904762,continueButton,,,,,,
,,,,,,,,,,,,,,,,,,,,,,-35,73,20,75,63,10,10,0.225555556,-0.3,1,0,0,0.051,submitButton,5.719806763,-0.194444444,-0.412222222,0,0,0,1,0,60,57,1,73,67120,blockT,180,2022-02-17_12h15.54,orientation adjustment block,2021.2.3,MacIntel,47.61904762,,,,,,,
,,,,,,,,,,,,,,,,,,,,,,-68.88888889,69,20,75,65.11111111,3.888888889,3.888888889,-0.217777778,-0.377777778,1,0,0,1.75,submitButton,5.680851064,-0.217777778,-0.377777778,0,0,0,1,1,61,53,1,69,67120,blockT,180,2022-02-17_12h15.54,orientation adjustment block,2021.2.3,MacIntel,47.61904762,,,,,,,
,,,,,,,,,,,,,,,,,,,,,,-48.33333333,60,20,75,61.66666667,1.666666667,1.666666667,0.255555556,-0.302222222,1,0,0,1.733,submitButton,5.597222222,-0.114444444,-0.396666667,0,0,0,1,2,62,44,1,60,67120,blockT,180,2022-02-17_12h15.54,orientation adjustment block,2021.2.3,MacIntel,47.61904762,,,,,,,
,,,,,,,,,,,,,,,,,,,,,,60.55555556,36,20,75,33.55555556,2.444444444,2.444444444,0.42,-0.287777778,1,0,0,1.467,submitButton,5.532879819,-0.233333333,-0.401111111,0,0,0,1,3,63,20,1,36,67120,blockT,180,2022-02-17_12h15.54,orientation adjustment block,2021.2.3,MacIntel,47.61904762,,,,,,,
,,,,,,,,,,,,,,,,,,,,,,31.66666667,35,20,75,32.66666667,2.333333333,2.333333333,0.383333333,-0.325555556,1,0,0,0.033,submitButton,5.468888889,0.037777778,-0.332222222,0,0,0,1,4,64,19,1,35,67120,blockT,180,2022-02-17_12h15.54,orientation adjustment block,2021.2.3,MacIntel,47.61904762,,,,,,,
,,,,,,,,,,,,,,,,,,,,,,34.44444444,-55,20,75,-58.55555556,3.555555556,3.555555556,0.384444444,-0.295555556,1,0,0,0.316,submitButton,5.431372549,-0.137777778,-0.406666667,0,0,0,1,5,65,39,1,55,67120,blockT,180,2022-02-17_12h15.54,orientation adjustment block,2021.2.3,MacIntel,47.61904762,,,,,,,
,,,,,,,,,,,,,,,,,,,,,,42.22222222,-68,20,75,-75.77777778,7.777777778,7.777777778,0.382222222,-0.28,1,0,0,0.266,submitButton,5.476495726,-0.263333333,-0.393333333,0,0,0,1,6,66,52,1,68,67120,blockT,180,2022-02-17_12h15.54,orientation adjustment block,2021.2.3,MacIntel,47.61904762,,,,,,,
,,,,,,,,,,,,,,,,,,,,,,-58.88888889,47,20,75,52.11111111,5.111111111,5.111111111,0.204444444,-0.314444444,1,0,0,0.467,submitButton,5.469601677,0.24,-0.186666667,0,0,0,1,7,67,31,1,47,67120,blockT,180,2022-02-17_12h15.54,orientation adjustment block,2021.2.3,MacIntel,47.61904762,,,,,,,
,,,,,,,,,,,,,,,,,,,,,,-37.22222222,-61,20,75,-66.22222222,5.222222222,5.222222222,0.403333333,-0.277777778,1,0,0,0.683,submitButton,5.465020576,0.123333333,-0.217777778,0,0,0,1,8,68,45,1,61,67120,blockT,180,2022-02-17_12h15.54,orientation adjustment block,2021.2.3,MacIntel,47.61904762,,,,,,,
,,,,,,,,,,,,,,,,,,,,,,-41.11111111,20,20,75,25.88888889,5.888888889,5.888888889,0.237777778,-0.306666667,1,0,0,1.983,submitButton,5.472727273,-0.251111111,-0.412222222,0,0,0,1,9,69,4,1,20,67120,blockT,180,2022-02-17_12h15.54,orientation adjustment block,2021.2.3,MacIntel,47.61904762,,,,,,,
,,,,,,,,,,,,,,,,,,,,,,53.88888889,-52,20,75,-46.11111111,5.888888889,5.888888889,0.418888889,-0.311111111,1,0,0,0.184,submitButton,5.48015873,0.214444444,-0.28,0,0,0,1,10,70,36,1,52,67120,blockT,180,2022-02-17_12h15.54,orientation adjustment block,2021.2.3,MacIntel,47.61904762,,,,,,,
,,,,,,,,,,,,,,,,,,,,,,-26.66666667,-30,20,75,-23.66666667,6.333333333,6.333333333,0.225555556,-0.294444444,1,0,0,0.966,submitButton,5.495126706,-0.298888889,-0.376666667,0,0,0,1,11,71,14,1,30,67120,blockT,180,2022-02-17_12h15.54,orientation adjustment block,2021.2.3,MacIntel,47.61904762,,,,,,,
,,,,,,,,,,,,,,,,,,,,,,-36.66666667,-59,20,75,-61.66666667,2.666666667,2.666666667,0.21,-0.314444444,1,0,0,0.233,submitButton,5.446360153,-0.281111111,-0.398888889,0,0,0,1,12,72,43,1,59,67120,blockT,180,2022-02-17_12h15.54,orientation adjustment block,2021.2.3,MacIntel,47.61904762,,,,,,,
,,,,,,,,,,,,,,,,,,,,,,-66.66666667,-42,20,75,-27.66666667,14.33333333,14.33333333,0.228888889,-0.306666667,1,0,0,0.699,submitButton,5.596986817,-0.183333333,-0.41,0,0,0,1,13,73,26,1,42,67120,blockT,180,2022-02-17_12h15.54,orientation adjustment block,2021.2.3,MacIntel,47.61904762,,,,,,,
,,,,,,,,,,,,,,,,,,,,,,75,-31,20,75,150,1,1,0.182222222,-0.287777778,1,0,0,0.482,submitButton,5.52037037,0.406666667,-0.42,1,0,0,1,14,74,15,1,31,67120,blockT,180,2022-02-17_12h15.54,orientation adjustment block,2021.2.3,MacIntel,47.61904762,continueButton,,,,,,
,,,,,,,,,,,,,,,,,,,,,,46.66666667,46,20,75,220.6666667,5.333333333,5.333333333,0.188888889,-0.278888889,1,0,0,0.584,submitButton,5.517304189,-0.2,-0.385555556,0,0,0,1,15,75,30,1,46,67120,blockT,180,2022-02-17_12h15.54,orientation adjustment block,2021.2.3,MacIntel,47.61904762,,,,,,,
,,,,,,,,,,,,,,,,,,,,,,28.88888889,-19,20,75,-32.11111111,13.11111111,13.11111111,0.383333333,-0.271111111,1,0,0,0.201,submitButton,5.639784946,-0.397777778,-0.407777778,0,0,0,1,16,76,3,1,19,67120,blockT,180,2022-02-17_12h15.54,orientation adjustment block,2021.2.3,MacIntel,47.61904762,,,,,,,
,,,,,,,,,,,,,,,,,,,,,,20.55555556,-49,20,75,-52.44444444,3.444444444,3.444444444,0.406666667,-0.275555556,1,0,0,0.466,submitButton,5.604938272,-0.304444444,-0.404444444,0,0,0,1,17,77,33,1,49,67120,blockT,180,2022-02-17_12h15.54,orientation adjustment block,2021.2.3,MacIntel,47.61904762,,,,,,,
,,,,,,,,,,,,,,,,,,,,,,-58.88888889,58,20,75,63.11111111,5.111111111,5.111111111,0.195555556,-0.301111111,1,0,0,0.465,submitButton,5.597222222,-0.153333333,-0.232222222,0,0,0,1,18,78,42,1,58,67120,blockT,180,2022-02-17_12h15.54,orientation adjustment block,2021.2.3,MacIntel,47.61904762,,,,,,,
,,,,,,,,,,,,,,,,,,,,,,-56.66666667,17,20,75,30.33333333,13.33333333,13.33333333,0.243333333,-0.318888889,1,0,0,1.017,submitButton,5.716239316,0.106666667,-0.234444444,0,0,0,1,19,79,1,1,17,67120,blockT,180,2022-02-17_12h15.54,orientation adjustment block,2021.2.3,MacIntel,47.61904762,,,,,,,
,,,,,,,,,,,,,,,,,,,,,,-68.88888889,-38,20,75,-219.8888889,1.888888889,1.888888889,0.405555556,-0.312222222,1,0,0,0.067,submitButton,5.658249158,-0.253333333,-0.393333333,0,0,0,1,20,80,22,1,38,67120,blockT,180,2022-02-17_12h15.54,orientation adjustment block,2021.2.3,MacIntel,47.61904762,,,,,,,
,,,,,,,,,,,,,,,,,,,,,,-62.22222222,-33,20,75,-218.2222222,5.222222222,5.222222222,-0.222222222,-0.404444444,1,0,0,2.467,submitButton,5.651741294,-0.222222222,-0.404444444,0,0,0,1,21,81,17,1,33,67120,blockT,180,2022-02-17_12h15.54,orientation adjustment block,2021.2.3,MacIntel,47.61904762,,,,,,,
,,,,,,,,,,,,,,,,,,,,,,-69.44444444,50,20,75,32.55555556,17.44444444,17.44444444,-0.231111111,-0.392222222,1,0,0,1.133,submitButton,5.825163399,-0.231111111,-0.392222222,0,0,0,1,22,82,34,1,50,67120,blockT,180,2022-02-17_12h15.54,orientation adjustment block,2021.2.3,MacIntel,47.61904762,,,,,,,
,,,,,,,,,,,,,,,,,,,,,,63.33333333,75,20,75,225.3333333,29.66666667,29.66666667,-0.251111111,-0.42,1,0,0,1.5,submitButton,6.170692432,-0.108888889,-0.355555556,0,0,0,1,23,83,59,1,75,67120,blockT,180,2022-02-17_12h15.54,orientation adjustment block,2021.2.3,MacIntel,47.61904762,,,,,,,
,,,,,,,,,,,,,,,,,,,,,,27.77777778,-71,20,75,-70.22222222,0.777777778,0.777777778,-0.173333333,-0.404444444,1,0,0,0.833,submitButton,6.093650794,-0.173333333,-0.404444444,0,0,0,1,24,84,55,1,71,67120,blockT,180,2022-02-17_12h15.54,orientation adjustment block,2021.2.3,MacIntel,47.61904762,,,,,,,
,,,,,,,,,,,,,,,,,,,,,,-72.77777778,22,20,75,-143.7777778,14.22222222,14.22222222,0.416666667,-0.303333333,1,0,0,0.933,submitButton,6.208137715,0.302222222,-0.355555556,0,0,0,1,25,85,6,1,22,67120,blockT,180,2022-02-17_12h15.54,orientation adjustment block,2021.2.3,MacIntel,47.61904762,,,,,,,
,,,,,,,,,,,,,,,,,,,,,,25.55555556,70,20,75,63.55555556,6.444444444,6.444444444,0.404444444,-0.3,1,0,0,1.15,submitButton,6.211419753,-0.214444444,-0.397777778,0,0,0,1,26,86,54,1,70,67120,blockT,180,2022-02-17_12h15.54,orientation adjustment block,2021.2.3,MacIntel,47.61904762,,,,,,,
,,,,,,,,,,,,,,,,,,,,,,-70,44,20,75,-143,7,7,0.411111111,-0.3,1,0,0,0.749,submitButton,6.222222222,-0.201111111,-0.394444444,0,0,0,1,27,87,28,1,44,67120,blockT,180,2022-02-17_12h15.54,orientation adjustment block,2021.2.3,MacIntel,47.61904762,,,,,,,
,,,,,,,,,,,,,,,,,,,,,,-60,-28,20,75,-20,8,8,0.193333333,-0.313333333,1,0,0,0.635,submitButton,6.246246246,-0.281111111,-0.416666667,0,0,0,1,28,88,12,1,28,67120,blockT,180,2022-02-17_12h15.54,orientation adjustment block,2021.2.3,MacIntel,47.61904762,,,,,,,
,,,,,,,,,,,,,,,,,,,,,,59.44444444,-56,20,75,-43.55555556,12.44444444,12.44444444,0.403333333,-0.311111111,1,0,0,0.234,submitButton,6.328888889,0.325555556,-0.396666667,1,0,0,1,29,89,40,1,56,67120,blockT,180,2022-02-17_12h15.54,orientation adjustment block,2021.2.3,MacIntel,47.61904762,continueButton,,,,,,
,,,,,,,,,,,,,,,,,,,,,,25,66,20,75,61,5,5,0.381111111,-0.316666667,1,0,0,0.267,submitButton,6.311403509,-0.228888889,-0.383333333,0,0,0,1,30,90,50,1,66,67120,blockT,180,2022-02-17_12h15.54,orientation adjustment block,2021.2.3,MacIntel,47.61904762,,,,,,,
,,,,,,,,,,,,,,,,,,,,,,-49.44444444,51,20,75,-146.4444444,17.44444444,17.44444444,-0.258888889,-0.405555556,1,0,0,3.083,submitButton,6.455988456,-0.258888889,-0.405555556,0,0,0,1,31,91,35,1,51,67120,blockT,180,2022-02-17_12h15.54,orientation adjustment block,2021.2.3,MacIntel,47.61904762,,,,,,,
,,,,,,,,,,,,,,,,,,,,,,-57.22222222,41,20,75,27.77777778,13.22222222,13.22222222,0.234444444,-0.295555556,1,0,0,0.051,submitButton,6.542735043,0.298888889,-0.154444444,0,0,0,1,32,92,25,1,41,67120,blockT,180,2022-02-17_12h15.54,orientation adjustment block,2021.2.3,MacIntel,47.61904762,,,,,,,
,,,,,,,,,,,,,,,,,,,,,,42.77777778,-43,20,75,-27.22222222,15.77777778,15.77777778,0.426666667,-0.298888889,1,0,0,0.7,submitButton,6.659634318,-0.207777778,-0.421111111,0,0,0,1,33,93,27,1,43,67120,blockT,180,2022-02-17_12h15.54,orientation adjustment block,2021.2.3,MacIntel,47.61904762,,,,,,,
,,,,,,,,,,,,,,,,,,,,,,-35,-18,20,75,-5,13,13,0.218888889,-0.294444444,1,0,0,0.215,submitButton,6.738888889,0.475555556,-0.206666667,0,0,0,1,34,94,2,1,18,67120,blockT,180,2022-02-17_12h15.54,orientation adjustment block,2021.2.3,MacIntel,47.61904762,,,,,,,
,,,,,,,,,,,,,,,,,,,,,,51.11111111,32,20,75,27.11111111,4.888888889,4.888888889,0.221111111,-0.3,1,0,0,0.599,submitButton,6.716049383,-0.351111111,-0.411111111,0,0,0,1,35,95,16,1,32,67120,blockT,180,2022-02-17_12h15.54,orientation adjustment block,2021.2.3,MacIntel,47.61904762,,,,,,,
,,,,,,,,,,,,,,,,,,,,,,60,-27,20,75,-27,0,0,0.234444444,-0.311111111,1,0,0,0.101,submitButton,6.634146341,0.162222222,-0.246666667,0,0,0,1,36,96,11,1,27,67120,blockT,180,2022-02-17_12h15.54,orientation adjustment block,2021.2.3,MacIntel,47.61904762,,,,,,,
,,,,,,,,,,,,,,,,,,,,,,-55.55555556,-57,20,75,-43.55555556,13.44444444,13.44444444,0.228888889,-0.288888889,1,0,0,0.067,submitButton,6.716198126,-0.178888889,-0.414444444,0,0,0,1,37,97,41,1,57,67120,blockT,180,2022-02-17_12h15.54,orientation adjustment block,2021.2.3,MacIntel,47.61904762,,,,,,,
,,,,,,,,,,,,,,,,,,,,,,-28.33333333,-40,20,75,-36.33333333,3.666666667,3.666666667,0.206666667,-0.293333333,1,0,0,0.517,submitButton,6.67989418,-0.36,-0.405555556,0,0,0,1,38,98,24,1,40,67120,blockT,180,2022-02-17_12h15.54,orientation adjustment block,2021.2.3,MacIntel,47.61904762,,,,,,,
,,,,,,,,,,,,,,,,,,,,,,-47.22222222,-67,20,75,-59.22222222,7.777777778,7.777777778,0.216666667,-0.314444444,1,0,0,0.65,submitButton,6.692810458,-0.25,-0.383333333,0,0,0,1,39,99,51,1,67,67120,blockT,180,2022-02-17_12h15.54,orientation adjustment block,2021.2.3,MacIntel,47.61904762,,,,,,,
,,,,,,,,,,,,,,,,,,,,,,-74.44444444,37,20,75,39.55555556,2.555555556,2.555555556,0.22,-0.306666667,1,0,0,0.549,submitButton,6.644702842,-0.211111111,-0.396666667,0,0,0,1,40,100,21,1,37,67120,blockT,180,2022-02-17_12h15.54,orientation adjustment block,2021.2.3,MacIntel,47.61904762,,,,,,,
,,,,,,,,,,,,,,,,,,,,,,-43.33333333,-64,20,75,-59.33333333,4.666666667,4.666666667,0.207777778,-0.312222222,1,0,0,0.067,submitButton,6.621966794,-0.267777778,-0.362222222,0,0,0,1,41,101,48,1,64,67120,blockT,180,2022-02-17_12h15.54,orientation adjustment block,2021.2.3,MacIntel,47.61904762,,,,,,,
,,,,,,,,,,,,,,,,,,,,,,-44.44444444,-53,20,75,-34.44444444,18.55555556,18.55555556,0.174444444,-0.302222222,1,0,0,0.016,submitButton,6.757575758,-0.361111111,-0.415555556,0,0,0,1,42,102,37,1,53,67120,blockT,180,2022-02-17_12h15.54,orientation adjustment block,2021.2.3,MacIntel,47.61904762,,,,,,,
,,,,,,,,,,,,,,,,,,,,,,-61.66666667,-65,20,75,-64.66666667,0.333333333,0.333333333,0.191111111,-0.292222222,1,0,0,0.167,submitButton,6.685393258,-0.388888889,-0.397777778,0,0,0,1,43,103,49,1,65,67120,blockT,180,2022-02-17_12h15.54,orientation adjustment block,2021.2.3,MacIntel,47.61904762,,,,,,,
,,,,,,,,,,,,,,,,,,,,,,-70.55555556,48,20,75,51.44444444,3.444444444,3.444444444,0.197777778,-0.293333333,1,0,0,0.666,submitButton,6.649382716,0.383333333,-0.397777778,1,0,0,1,44,104,32,1,48,67120,blockT,180,2022-02-17_12h15.54,orientation adjustment block,2021.2.3,MacIntel,47.61904762,continueButton,,,,,,
,,,,,,,,,,,,,,,,,,,,,,36.11111111,72,20,75,255.1111111,3.111111111,3.111111111,0.212222222,-0.312222222,1,0,0,0.166,submitButton,6.610500611,0.218888889,-0.191111111,0,0,0,1,45,105,56,1,72,67120,blockT,180,2022-02-17_12h15.54,orientation adjustment block,2021.2.3,MacIntel,47.61904762,,,,,,,
,,,,,,,,,,,,,,,,,,,,,,45.55555556,-23,20,75,-35.44444444,12.44444444,12.44444444,0.384444444,-0.306666667,1,0,0,0.084,submitButton,6.673913043,-0.156666667,-0.402222222,0,0,0,1,46,106,7,1,23,67120,blockT,180,2022-02-17_12h15.54,orientation adjustment block,2021.2.3,MacIntel,47.61904762,,,,,,,
,,,,,,,,,,,,,,,,,,,,,,-51.11111111,-54,20,75,-56.11111111,2.111111111,2.111111111,0.195555556,-0.334444444,1,0,0,0.149,submitButton,6.624850657,0.077777778,-0.272222222,0,0,0,1,47,107,38,1,54,67120,blockT,180,2022-02-17_12h15.54,orientation adjustment block,2021.2.3,MacIntel,47.61904762,,,,,,,
,,,,,,,,,,,,,,,,,,,,,,-57.77777778,25,20,75,23.22222222,1.777777778,1.777777778,0.224444444,-0.28,1,0,0,0.349,submitButton,6.573286052,-0.363333333,-0.42,0,0,0,1,48,108,9,1,25,67120,blockT,180,2022-02-17_12h15.54,orientation adjustment block,2021.2.3,MacIntel,47.61904762,,,,,,,
,,,,,,,,,,,,,,,,,,,,,,-39.44444444,-24,20,75,-25.44444444,1.444444444,1.444444444,-0.377777778,-0.368888889,1,0,0,1.134,submitButton,6.519298246,-0.326666667,-0.387777778,0,0,0,1,49,109,8,1,24,67120,blockT,180,2022-02-17_12h15.54,orientation adjustment block,2021.2.3,MacIntel,47.61904762,,,,,,,
,,,,,,,,,,,,,,,,,,,,,,22.22222222,-16,20,75,-12.77777778,3.222222222,3.222222222,0.402222222,-0.271111111,1,0,0,0.2,submitButton,6.484953704,-0.261111111,-0.4,0,0,0,1,50,110,0,1,16,67120,blockT,180,2022-02-17_12h15.54,orientation adjustment block,2021.2.3,MacIntel,47.61904762,,,,,,,
,,,,,,,,,,,,,,,,,,,,,,62.22222222,29,20,75,200.2222222,8.777777778,8.777777778,0.226666667,-0.298888889,1,0,0,0.649,submitButton,6.508591065,0.268888889,-0.168888889,0,0,0,1,51,111,13,1,29,67120,blockT,180,2022-02-17_12h15.54,orientation adjustment block,2021.2.3,MacIntel,47.61904762,,,,,,,
,,,,,,,,,,,,,,,,,,,,,,32.77777778,34,20,75,26.77777778,7.222222222,7.222222222,0.427777778,-0.293333333,1,0,0,0.333,submitButton,6.515873016,-0.193333333,-0.385555556,0,0,0,1,52,112,18,1,34,67120,blockT,180,2022-02-17_12h15.54,orientation adjustment block,2021.2.3,MacIntel,47.61904762,,,,,,,
,,,,,,,,,,,,,,,,,,,,,,50.55555556,-39,20,75,-31.44444444,7.555555556,7.555555556,0.435555556,-0.294444444,1,0,0,0.151,submitButton,6.52637486,0.142222222,-0.261111111,0,0,0,1,53,113,23,1,39,67120,blockT,180,2022-02-17_12h15.54,orientation adjustment block,2021.2.3,MacIntel,47.61904762,,,,,,,
,,,,,,,,,,,,,,,,,,,,,,-71.66666667,62,20,75,62.33333333,0.333333333,0.333333333,0.226666667,-0.317777778,1,0,0,0.35,submitButton,6.464444444,-0.135555556,-0.405555556,0,0,0,1,54,114,46,1,62,67120,blockT,180,2022-02-17_12h15.54,orientation adjustment block,2021.2.3,MacIntel,47.61904762,,,,,,,
,,,,,,,,,,,,,,,,,,,,,,48.88888889,26,20,75,38.88888889,12.88888889,12.88888889,0.415555556,-0.301111111,1,0,0,0.134,submitButton,6.528052805,-0.182222222,-0.383333333,0,0,0,1,55,115,10,1,26,67120,blockT,180,2022-02-17_12h15.54,orientation adjustment block,2021.2.3,MacIntel,47.61904762,,,,,,,
,,,,,,,,,,,,,,,,,,,,,,71.11111111,-63,20,75,-63.88888889,0.888888889,0.888888889,0.348888889,-0.345555556,1,0,0,1.399,submitButton,6.472766885,-0.263333333,-0.393333333,0,0,0,1,56,116,47,1,63,67120,blockT,180,2022-02-17_12h15.54,orientation adjustment block,2021.2.3,MacIntel,47.61904762,,,,,,,
,,,,,,,,,,,,,,,,,,,,,,-45.55555556,21,20,75,17.44444444,3.555555556,3.555555556,0.245555556,-0.293333333,1,0,0,0.4,submitButton,6.444444444,-0.294444444,-0.4,0,0,0,1,57,117,5,1,21,67120,blockT,180,2022-02-17_12h15.54,orientation adjustment block,2021.2.3,MacIntel,47.61904762,,,,,,,
,,,,,,,,,,,,,,,,,,,,,,-26.66666667,-74,20,75,-59.66666667,14.33333333,14.33333333,0.202222222,-0.303333333,1,0,0,0.233,submitButton,6.520299145,-0.287777778,-0.385555556,0,0,0,1,58,118,58,1,74,67120,blockT,180,2022-02-17_12h15.54,orientation adjustment block,2021.2.3,MacIntel,47.61904762,,,,,,,
,,,,,,,,,,,,,,,,,,,,,,-54.44444444,45,20,75,30.55555556,14.44444444,14.44444444,0.202222222,-0.317777778,1,0,0,0.134,submitButton,6.595767196,0.38,-0.41,1,0,0,1,59,119,29,1,45,67120,blockT,180,2022-02-17_12h15.54,orientation adjustment block,2021.2.3,MacIntel,47.61904762,continueButton,,,,,,
,,,,,,,,,,,,,,,,,,,,,,-28.33333333,-61,20,75,-230.3333333,10.66666667,10.66666667,0.381111111,-0.294444444,1,0,0,0.083,submitButton,6.634171908,-0.172222222,-0.417777778,0,0,0,2,0,120,45,1,61,67120,blockT,180,2022-02-17_12h15.54,orientation adjustment block,2021.2.3,MacIntel,47.61904762,,,,,,,
,,,,,,,,,,,,,,,,,,,,,,40,65,20,75,61,4,4,0.247777778,-0.312222222,1,0,0,0.367,submitButton,6.609553479,-0.228888889,-0.411111111,0,0,0,2,1,121,49,1,65,67120,blockT,180,2022-02-17_12h15.54,orientation adjustment block,2021.2.3,MacIntel,47.61904762,,,,,,,
,,,,,,,,,,,,,,,,,,,,,,-70,-42,20,75,-33,9,9,0.247777778,-0.286666667,1,0,0,0.332,submitButton,6.631687243,-0.205555556,-0.408888889,0,0,0,2,2,122,26,1,42,67120,blockT,180,2022-02-17_12h15.54,orientation adjustment block,2021.2.3,MacIntel,47.61904762,,,,,,,
,,,,,,,,,,,,,,,,,,,,,,75,64,20,75,241,3,3,-0.28,-0.393333333,1,0,0,2.3,submitButton,6.598369011,-0.28,-0.393333333,0,0,0,2,3,123,48,1,64,67120,blockT,180,2022-02-17_12h15.54,orientation adjustment block,2021.2.3,MacIntel,47.61904762,,,,,,,
,,,,,,,,,,,,,,,,,,,,,,46.11111111,18,20,75,23.11111111,5.111111111,5.111111111,0.196666667,-0.314444444,1,0,0,0.117,submitButton,6.584848485,-0.231111111,-0.392222222,0,0,0,2,4,124,2,1,18,67120,blockT,180,2022-02-17_12h15.54,orientation adjustment block,2021.2.3,MacIntel,47.61904762,,,,,,,
,,,,,,,,,,,,,,,,,,,,,,-21.66666667,63,20,75,70.33333333,7.333333333,7.333333333,0.38,-0.316666667,1,0,0,0.1,submitButton,6.591591592,-0.208888889,-0.413333333,0,0,0,2,5,125,47,1,63,67120,blockT,180,2022-02-17_12h15.54,orientation adjustment block,2021.2.3,MacIntel,47.61904762,,,,,,,
,,,,,,,,,,,,,,,,,,,,,,-51.11111111,-67,20,75,-60.11111111,6.888888889,6.888888889,0.21,-0.294444444,1,0,0,0.184,submitButton,6.594246032,-0.276666667,-0.376666667,0,0,0,2,6,126,51,1,67,67120,blockT,180,2022-02-17_12h15.54,orientation adjustment block,2021.2.3,MacIntel,47.61904762,,,,,,,
,,,,,,,,,,,,,,,,,,,,,,-48.88888889,48,20,75,52.11111111,4.111111111,4.111111111,0.202222222,-0.307777778,1,0,0,0.2,submitButton,6.572271386,-0.211111111,-0.395555556,0,0,0,2,7,127,32,1,48,67120,blockT,180,2022-02-17_12h15.54,orientation adjustment block,2021.2.3,MacIntel,47.61904762,,,,,,,
,,,,,,,,,,,,,,,,,,,,,,-56.11111111,68,20,75,61.88888889,6.111111111,6.111111111,-0.253333333,-0.428888889,1,0,0,1.217,submitButton,6.568226121,-0.265555556,-0.397777778,0,0,0,2,8,128,52,1,68,67120,blockT,180,2022-02-17_12h15.54,orientation adjustment block,2021.2.3,MacIntel,47.61904762,,,,,,,
,,,,,,,,,,,,,,,,,,,,,,45,30,20,75,18,12,12,0.374444444,-0.307777778,1,0,0,1.6,submitButton,6.615458937,-0.194444444,-0.414444444,0,0,0,2,9,129,14,1,30,67120,blockT,180,2022-02-17_12h15.54,orientation adjustment block,2021.2.3,MacIntel,47.61904762,,,,,,,
,,,,,,,,,,,,,,,,,,,,,,58.88888889,62,20,75,50.88888889,11.11111111,11.11111111,0.383333333,-0.301111111,1,0,0,0.617,submitButton,6.654214559,-0.18,-0.398888889,0,0,0,2,10,130,46,1,62,67120,blockT,180,2022-02-17_12h15.54,orientation adjustment block,2021.2.3,MacIntel,47.61904762,,,,,,,
,,,,,,,,,,,,,,,,,,,,,,-62.22222222,-43,20,75,-223.2222222,0.222222222,0.222222222,0.358888889,-0.305555556,1,0,0,0.8,submitButton,6.599240266,-0.313333333,-0.391111111,0,0,0,2,11,131,27,1,43,67120,blockT,180,2022-02-17_12h15.54,orientation adjustment block,2021.2.3,MacIntel,47.61904762,,,,,,,
,,,,,,,,,,,,,,,,,,,,,,-67.77777778,71,20,75,75.22222222,4.222222222,4.222222222,0.412222222,-0.311111111,1,0,0,0.568,submitButton,6.579096045,-0.174444444,-0.392222222,0,0,0,2,12,132,55,1,71,67120,blockT,180,2022-02-17_12h15.54,orientation adjustment block,2021.2.3,MacIntel,47.61904762,,,,,,,
,,,,,,,,,,,,,,,,,,,,,,60.55555556,-56,20,75,134.5555556,10.55555556,10.55555556,0.221111111,-0.276666667,1,0,0,0.317,submitButton,6.612511671,-0.143333333,-0.402222222,0,0,0,2,13,133,40,1,56,67120,blockT,180,2022-02-17_12h15.54,orientation adjustment block,2021.2.3,MacIntel,47.61904762,,,,,,,
,,,,,,,,,,,,,,,,,,,,,,57.77777778,39,20,75,218.7777778,0.222222222,0.222222222,0.218888889,-0.323333333,1,0,0,0.384,submitButton,6.559259259,0.363333333,-0.384444444,1,0,0,2,14,134,23,1,39,67120,blockT,180,2022-02-17_12h15.54,orientation adjustment block,2021.2.3,MacIntel,47.61904762,continueButton,,,,,,
,,,,,,,,,,,,,,,,,,,,,,50,51,20,75,224,7,7,0.23,-0.297777778,1,0,0,0.084,submitButton,6.562901745,-0.24,-0.405555556,0,0,0,2,15,135,35,1,51,67120,blockT,180,2022-02-17_12h15.54,orientation adjustment block,2021.2.3,MacIntel,47.61904762,,,,,,,
,,,,,,,,,,,,,,,,,,,,,,58.33333333,-26,20,75,-36.66666667,10.66666667,10.66666667,0.241111111,-0.302222222,1,0,0,0.017,submitButton,6.596539162,-0.384444444,-0.406666667,0,0,0,2,16,136,10,1,26,67120,blockT,180,2022-02-17_12h15.54,orientation adjustment block,2021.2.3,MacIntel,47.61904762,,,,,,,
,,,,,,,,,,,,,,,,,,,,,,-57.77777778,44,20,75,53.22222222,9.222222222,9.222222222,0.205555556,-0.326666667,1,0,0,0.184,submitButton,6.617886179,-0.351111111,-0.41,0,0,0,2,17,137,28,1,44,67120,blockT,180,2022-02-17_12h15.54,orientation adjustment block,2021.2.3,MacIntel,47.61904762,,,,,,,
,,,,,,,,,,,,,,,,,,,,,,-39.44444444,41,20,75,52.55555556,11.55555556,11.55555556,0.201111111,-0.325555556,1,0,0,0.201,submitButton,6.657706093,-0.265555556,-0.405555556,0,0,0,2,18,138,25,1,41,67120,blockT,180,2022-02-17_12h15.54,orientation adjustment block,2021.2.3,MacIntel,47.61904762,,,,,,,
,,,,,,,,,,,,,,,,,,,,,,55,46,20,75,40,6,6,0.4,-0.317777778,1,0,0,0.25,submitButton,6.652444444,0.153333333,-0.22,0,0,0,2,19,139,30,1,46,67120,blockT,180,2022-02-17_12h15.54,orientation adjustment block,2021.2.3,MacIntel,47.61904762,,,,,,,
,,,,,,,,,,,,,,,,,,,,,,61.11111111,73,20,75,61.11111111,11.88888889,11.88888889,0.411111111,-0.295555556,1,0,0,0.267,submitButton,6.694003527,-0.274444444,-0.395555556,0,0,0,2,20,140,57,1,73,67120,blockT,180,2022-02-17_12h15.54,orientation adjustment block,2021.2.3,MacIntel,47.61904762,,,,,,,
,,,,,,,,,,,,,,,,,,,,,,41.11111111,-16,20,75,-27.88888889,11.88888889,11.88888889,0.365555556,-0.3,1,0,0,0.617,submitButton,6.734908136,-0.155555556,-0.404444444,0,0,0,2,21,141,0,1,16,67120,blockT,180,2022-02-17_12h15.54,orientation adjustment block,2021.2.3,MacIntel,47.61904762,,,,,,,
,,,,,,,,,,,,,,,,,,,,,,-42.22222222,34,20,75,38.77777778,4.777777778,4.777777778,-0.351111111,-0.43,1,0,0,1.316,submitButton,6.719618056,-0.347777778,-0.396666667,0,0,0,2,22,142,18,1,34,67120,blockT,180,2022-02-17_12h15.54,orientation adjustment block,2021.2.3,MacIntel,47.61904762,,,,,,,
,,,,,,,,,,,,,,,,,,,,,,55,24,20,75,37,13,13,0.35,-0.271111111,1,0,0,0.15,submitButton,6.768303187,-0.34,-0.407777778,0,0,0,2,23,143,8,1,24,67120,blockT,180,2022-02-17_12h15.54,orientation adjustment block,2021.2.3,MacIntel,47.61904762,,,,,,,
,,,,,,,,,,,,,,,,,,,,,,-40.55555556,72,20,75,58.44444444,13.55555556,13.55555556,-0.231111111,-0.365555556,1,0,0,0.6,submitButton,6.820512821,-0.243333333,-0.383333333,0,0,0,2,24,144,56,1,72,67120,blockT,180,2022-02-17_12h15.54,orientation adjustment block,2021.2.3,MacIntel,47.61904762,,,,,,,
,,,,,,,,,,,,,,,,,,,,,,32.22222222,57,20,75,55.22222222,1.777777778,1.777777778,0.224444444,-0.301111111,1,0,0,0.1,submitButton,6.78201866,-0.14,-0.403333333,0,0,0,2,25,145,41,1,57,67120,blockT,180,2022-02-17_12h15.54,orientation adjustment block,2021.2.3,MacIntel,47.61904762,,,,,,,
,,,,,,,,,,,,,,,,,,,,,,70,-27,20,75,-32,5,5,0.365555556,-0.297777778,1,0,0,0.383,submitButton,6.768518519,-0.25,-0.415555556,0,0,0,2,26,146,11,1,27,67120,blockT,180,2022-02-17_12h15.54,orientation adjustment block,2021.2.3,MacIntel,47.61904762,,,,,,,
,,,,,,,,,,,,,,,,,,,,,,-45.55555556,-37,20,75,-51.55555556,14.55555556,14.55555556,0.2,-0.305555556,1,0,0,0.65,submitButton,6.827067669,-0.173333333,-0.408888889,0,0,0,2,27,147,21,1,37,67120,blockT,180,2022-02-17_12h15.54,orientation adjustment block,2021.2.3,MacIntel,47.61904762,,,,,,,
,,,,,,,,,,,,,,,,,,,,,,-33.88888889,49,20,75,45.11111111,3.888888889,3.888888889,0.203333333,-0.297777778,1,0,0,0.567,submitButton,6.805140962,0.034444444,-0.225555556,0,0,0,2,28,148,33,1,49,67120,blockT,180,2022-02-17_12h15.54,orientation adjustment block,2021.2.3,MacIntel,47.61904762,,,,,,,
,,,,,,,,,,,,,,,,,,,,,,-55,-36,20,75,-40,4,4,-0.224444444,-0.385555556,1,0,0,1.316,submitButton,6.78436214,0.315555556,-0.408888889,1,0,0,2,29,149,20,1,36,67120,blockT,180,2022-02-17_12h15.54,orientation adjustment block,2021.2.3,MacIntel,47.61904762,continueButton,,,,,,
,,,,,,,,,,,,,,,,,,,,,,53.88888889,54,20,75,222.8888889,11.11111111,11.11111111,0.224444444,-0.316666667,1,0,0,0.101,submitButton,6.816176471,-0.225555556,-0.398888889,0,0,0,2,30,150,38,1,54,67120,blockT,180,2022-02-17_12h15.54,orientation adjustment block,2021.2.3,MacIntel,47.61904762,,,,,,,
,,,,,,,,,,,,,,,,,,,,,,40.55555556,75,20,75,71.55555556,3.444444444,3.444444444,0.412222222,-0.315555556,1,0,0,0.383,submitButton,6.791565288,-0.198888889,-0.423333333,0,0,0,2,31,151,59,1,75,67120,blockT,180,2022-02-17_12h15.54,orientation adjustment block,2021.2.3,MacIntel,47.61904762,,,,,,,
,,,,,,,,,,,,,,,,,,,,,,-20,69,20,75,65,4,4,0.212222222,-0.291111111,1,0,0,0.283,submitButton,6.771336554,-0.188888889,-0.388888889,0,0,0,2,32,152,53,1,69,67120,blockT,180,2022-02-17_12h15.54,orientation adjustment block,2021.2.3,MacIntel,47.61904762,,,,,,,
,,,,,,,,,,,,,,,,,,,,,,62.22222222,52,20,75,46.22222222,5.777777778,5.777777778,0.385555556,-0.305555556,1,0,0,0.334,submitButton,6.764188649,-0.244444444,-0.391111111,0,0,0,2,33,153,36,1,52,67120,blockT,180,2022-02-17_12h15.54,orientation adjustment block,2021.2.3,MacIntel,47.61904762,,,,,,,
,,,,,,,,,,,,,,,,,,,,,,-50,-29,20,75,-28,1,1,0.253333333,-0.265555556,1,0,0,0.616,submitButton,6.723015873,-0.194444444,-0.406666667,0,0,0,2,34,154,13,1,29,67120,blockT,180,2022-02-17_12h15.54,orientation adjustment block,2021.2.3,MacIntel,47.61904762,,,,,,,
,,,,,,,,,,,,,,,,,,,,,,47.22222222,-66,20,75,-66.77777778,0.777777778,0.777777778,0.417777778,-0.303333333,1,0,0,0.199,submitButton,6.680851064,-0.162222222,-0.388888889,0,0,0,2,35,155,50,1,66,67120,blockT,180,2022-02-17_12h15.54,orientation adjustment block,2021.2.3,MacIntel,47.61904762,,,,,,,
,,,,,,,,,,,,,,,,,,,,,,-60,60,20,75,64,4,4,0.225555556,-0.303333333,1,0,0,0.134,submitButton,6.661971831,-0.232222222,-0.408888889,0,0,0,2,36,156,44,1,60,67120,blockT,180,2022-02-17_12h15.54,orientation adjustment block,2021.2.3,MacIntel,47.61904762,,,,,,,
,,,,,,,,,,,,,,,,,,,,,,-39.44444444,-50,20,75,-50.44444444,0.444444444,0.444444444,-0.264444444,-0.391111111,1,0,0,1.215,submitButton,6.618492618,-0.264444444,-0.391111111,0,0,0,2,37,157,34,1,50,67120,blockT,180,2022-02-17_12h15.54,orientation adjustment block,2021.2.3,MacIntel,47.61904762,,,,,,,
,,,,,,,,,,,,,,,,,,,,,,-56.11111111,-19,20,75,-26.11111111,7.111111111,7.111111111,0.211111111,-0.275555556,1,0,0,0.233,submitButton,6.62191358,-0.237777778,-0.385555556,0,0,0,2,38,158,3,1,19,67120,blockT,180,2022-02-17_12h15.54,orientation adjustment block,2021.2.3,MacIntel,47.61904762,,,,,,,
,,,,,,,,,,,,,,,,,,,,,,63.33333333,-74,20,75,-67.66666667,6.333333333,6.333333333,0.435555556,-0.285555556,1,0,0,0.166,submitButton,6.619923372,-0.251111111,-0.393333333,0,0,0,2,39,159,58,1,74,67120,blockT,180,2022-02-17_12h15.54,orientation adjustment block,2021.2.3,MacIntel,47.61904762,,,,,,,
,,,,,,,,,,,,,,,,,,,,,,-32.22222222,35,20,75,40.77777778,5.777777778,5.777777778,0.206666667,-0.288888889,1,0,0,0.2,submitButton,6.614155251,-0.188888889,-0.402222222,0,0,0,2,40,160,19,1,35,67120,blockT,180,2022-02-17_12h15.54,orientation adjustment block,2021.2.3,MacIntel,47.61904762,,,,,,,
,,,,,,,,,,,,,,,,,,,,,,30.55555556,-70,20,75,-68.44444444,1.555555556,1.555555556,0.388888889,-0.3,1,0,0,0.133,submitButton,6.579743008,-0.142222222,-0.402222222,0,0,0,2,41,161,54,1,70,67120,blockT,180,2022-02-17_12h15.54,orientation adjustment block,2021.2.3,MacIntel,47.61904762,,,,,,,
,,,,,,,,,,,,,,,,,,,,,,-54.44444444,20,20,75,26.55555556,6.555555556,6.555555556,0.252222222,-0.311111111,1,0,0,1.349,submitButton,6.57957958,-0.163333333,-0.398888889,0,0,0,2,42,162,4,1,20,67120,blockT,180,2022-02-17_12h15.54,orientation adjustment block,2021.2.3,MacIntel,47.61904762,,,,,,,
,,,,,,,,,,,,,,,,,,,,,,-75,-21,20,75,-31,10,10,-0.142222222,-0.383333333,1,0,0,1.499,submitButton,6.602535421,-0.142222222,-0.383333333,0,0,0,2,43,163,5,1,21,67120,blockT,180,2022-02-17_12h15.54,orientation adjustment block,2021.2.3,MacIntel,47.61904762,,,,,,,
,,,,,,,,,,,,,,,,,,,,,,57.77777778,-53,20,75,-50.22222222,2.777777778,2.777777778,0.37,-0.305555556,1,0,0,0.016,submitButton,6.577037037,0.455555556,-0.394444444,1,0,0,2,44,164,37,1,53,67120,blockT,180,2022-02-17_12h15.54,orientation adjustment block,2021.2.3,MacIntel,47.61904762,continueButton,,,,,,
,,,,,,,,,,,,,,,,,,,,,,-22.22222222,38,20,75,29.77777778,8.222222222,8.222222222,0.248888889,-0.307777778,1,0,0,0.033,submitButton,6.587932303,-0.457777778,-0.38,0,0,0,2,45,165,22,1,38,67120,blockT,180,2022-02-17_12h15.54,orientation adjustment block,2021.2.3,MacIntel,47.61904762,,,,,,,
,,,,,,,,,,,,,,,,,,,,,,-25.55555556,-55,20,75,-50.55555556,4.444444444,4.444444444,-0.263333333,-0.405555556,1,0,0,1,submitButton,6.573830409,-0.263333333,-0.405555556,0,0,0,2,46,166,39,1,55,67120,blockT,180,2022-02-17_12h15.54,orientation adjustment block,2021.2.3,MacIntel,47.61904762,,,,,,,
,,,,,,,,,,,,,,,,,,,,,,38.33333333,-33,20,75,-25.66666667,7.333333333,7.333333333,0.231111111,-0.274444444,1,0,0,1.866,submitButton,6.578794481,-0.168888889,-0.392222222,0,0,0,2,47,167,17,1,33,67120,blockT,180,2022-02-17_12h15.54,orientation adjustment block,2021.2.3,MacIntel,47.61904762,,,,,,,
,,,,,,,,,,,,,,,,,,,,,,38.88888889,32,20,75,17.88888889,14.11111111,14.11111111,0.396666667,-0.283333333,1,0,0,0.134,submitButton,6.627705628,-0.428888889,-0.42,0,0,0,2,48,168,16,1,32,67120,blockT,180,2022-02-17_12h15.54,orientation adjustment block,2021.2.3,MacIntel,47.61904762,,,,,,,
,,,,,,,,,,,,,,,,,,,,,,-21.11111111,25,20,75,16.88888889,8.111111111,8.111111111,0.186666667,-0.307777778,1,0,0,0.099,submitButton,6.637275986,-0.441111111,-0.41,0,0,0,2,49,169,9,1,25,67120,blockT,180,2022-02-17_12h15.54,orientation adjustment block,2021.2.3,MacIntel,47.61904762,,,,,,,
,,,,,,,,,,,,,,,,,,,,,,-72.22222222,28,20,75,22.77777778,5.222222222,5.222222222,0.212222222,-0.282222222,1,0,0,0.033,submitButton,6.628205128,-0.473333333,-0.422222222,0,0,0,2,50,170,12,1,28,67120,blockT,180,2022-02-17_12h15.54,orientation adjustment block,2021.2.3,MacIntel,47.61904762,,,,,,,
,,,,,,,,,,,,,,,,,,,,,,-43.33333333,-59,20,75,-61.33333333,2.333333333,2.333333333,0.21,-0.291111111,1,0,0,0.749,submitButton,6.600849257,-0.183333333,-0.393333333,0,0,0,2,51,171,43,1,59,67120,blockT,180,2022-02-17_12h15.54,orientation adjustment block,2021.2.3,MacIntel,47.61904762,,,,,,,
,,,,,,,,,,,,,,,,,,,,,,50,40,20,75,36,4,4,0.194444444,-0.302222222,1,0,0,0.433,submitButton,6.584388186,-0.58,-0.416666667,0,0,0,2,52,172,24,1,40,67120,blockT,180,2022-02-17_12h15.54,orientation adjustment block,2021.2.3,MacIntel,47.61904762,,,,,,,
,,,,,,,,,,,,,,,,,,,,,,-30.55555556,-23,20,75,-21.55555556,1.444444444,1.444444444,0.218888889,-0.29,1,0,0,0.483,submitButton,6.552061495,-0.247777778,-0.384444444,0,0,0,2,53,173,7,1,23,67120,blockT,180,2022-02-17_12h15.54,orientation adjustment block,2021.2.3,MacIntel,47.61904762,,,,,,,
,,,,,,,,,,,,,,,,,,,,,,-55,47,20,75,36,11,11,0.216666667,-0.285555556,1,0,0,0.134,submitButton,6.579861111,-0.375555556,-0.39,0,0,0,2,54,174,31,1,47,67120,blockT,180,2022-02-17_12h15.54,orientation adjustment block,2021.2.3,MacIntel,47.61904762,,,,,,,
,,,,,,,,,,,,,,,,,,,,,,28.33333333,-17,20,75,-22.66666667,5.666666667,5.666666667,0.365555556,-0.316666667,1,0,0,0.584,submitButton,6.574189096,-0.138888889,-0.391111111,0,0,0,2,55,175,1,1,17,67120,blockT,180,2022-02-17_12h15.54,orientation adjustment block,2021.2.3,MacIntel,47.61904762,,,,,,,
,,,,,,,,,,,,,,,,,,,,,,50,58,20,75,228,10,10,0.204444444,-0.3,1,0,0,1.884,submitButton,6.595336077,-0.366666667,-0.385555556,0,0,0,2,56,176,42,1,58,67120,blockT,180,2022-02-17_12h15.54,orientation adjustment block,2021.2.3,MacIntel,47.61904762,,,,,,,
,,,,,,,,,,,,,,,,,,,,,,-68.88888889,-31,20,75,-30.88888889,0.111111111,0.111111111,0.194444444,-0.292222222,1,0,0,0.7,submitButton,6.555555556,-0.154444444,-0.406666667,0,0,0,2,57,177,15,1,31,67120,blockT,180,2022-02-17_12h15.54,orientation adjustment block,2021.2.3,MacIntel,47.61904762,,,,,,,
,,,,,,,,,,,,,,,,,,,,,,-59.44444444,45,20,75,39.55555556,5.444444444,5.444444444,-0.198888889,-0.416666667,1,0,0,1.417,submitButton,6.548780488,-0.198888889,-0.416666667,0,0,0,2,58,178,29,1,45,67120,blockT,180,2022-02-17_12h15.54,orientation adjustment block,2021.2.3,MacIntel,47.61904762,,,,,,,
,,,,,,,,,,,,,,,,,,,,,,-74.44444444,22,20,75,24.55555556,2.555555556,2.555555556,-0.161111111,-0.388888889,1,0,0,1.649,submitButton,6.524579125,-0.161111111,-0.388888889,0,0,0,2,59,179,6,1,22,67120,blockT,180,2022-02-17_12h15.54,orientation adjustment block,2021.2.3,MacIntel,47.61904762,,,,,,,
,,,,,,,,,,,,,,,,,,,,,,,,,,,,,,,,,,,,,,,,,,,,,,,,67120,blockT,180,2022-02-17_12h15.54,orientation adjustment block,2021.2.3,MacIntel,47.61904762,,0.305555556,-0.383333333,1,0,0,EndButtonTxt
