consentMouse1.x,consentMouse1.y,consentMouse1.leftButton,consentMouse1.midButton,consentMouse1.rightButton,consentMouse1.clicked_name,consent_Mouse.x,consent_Mouse.y,consent_Mouse.leftButton,consent_Mouse.midButton,consent_Mouse.rightButton,consent_Mouse.clicked_name,startMouse.x,startMouse.y,startMouse.leftButton,startMouse.midButton,startMouse.rightButton,startMouse_2.x,startMouse_2.y,startMouse_2.leftButton,startMouse_2.midButton,startMouse_2.rightButton,start_distance,fixedOri,minimalDistance,maxOri,this_ori,accuracy,presented_accuracy,submitMouse.x,submitMouse.y,submitMouse.leftButton,submitMouse.midButton,submitMouse.rightButton,submitMouse.time,submitMouse.clicked_name,block_accuracy,continueMouse.x,continueMouse.y,continueMouse.leftButton,continueMouse.midButton,continueMouse.rightButton,trials.thisRepN,trials.thisTrialN,trials.thisN,trials.thisIndex,trials.ran,startOri,participant,condition,nTrials,date,expName,psychopyVersion,OS,frameRate,continueMouse.clicked_name,EndButtonMouse.x,EndButtonMouse.y,EndButtonMouse.leftButton,EndButtonMouse.midButton,EndButtonMouse.rightButton,EndButtonMouse.clicked_name
0.416666667,-0.41,1,0,0,consent_button1,0.41,-0.403333333,1,0,0,consent_button,0.143333333,-0.235555556,1,0,0,0.198888889,-0.28,1,0,0,-39.44444444,83,20,75,88.55555556,5.555555556,5.555555556,0.205555556,-0.288888889,1,0,0,3.732,submitButton,5.555555556,-0.265555556,-0.416666667,0,0,0,0,0,0,82,1,83,67273,blockT,180,2022-02-09_23h48.07.503,orientation adjustment block,2021.2.3,MacIntel,55.55555556,,,,,,,
,,,,,,,,,,,,,,,,,,,,,,31.66666667,74,20,75,96.66666667,22.66666667,22.66666667,0.206666667,-0.302222222,1,0,0,0.633,submitButton,14.11111111,-0.148888889,-0.385555556,0,0,0,0,1,1,73,1,74,67273,blockT,180,2022-02-09_23h48.07.503,orientation adjustment block,2021.2.3,MacIntel,55.55555556,,,,,,,
,,,,,,,,,,,,,,,,,,,,,,-48.33333333,-51,20,75,-58.33333333,7.333333333,7.333333333,0.221111111,-0.288888889,1,0,0,0.7,submitButton,11.85185185,-0.127777778,-0.407777778,0,0,0,0,2,2,50,1,51,67273,blockT,180,2022-02-09_23h48.07.503,orientation adjustment block,2021.2.3,MacIntel,55.55555556,,,,,,,
,,,,,,,,,,,,,,,,,,,,,,-35.55555556,22,20,75,27.44444444,5.444444444,5.444444444,-0.16,-0.403333333,1,0,0,1.116,submitButton,5.444444444,-0.16,-0.403333333,0,0,0,0,3,3,21,1,22,67273,blockT,180,2022-02-09_23h48.07.503,orientation adjustment block,2021.2.3,MacIntel,55.55555556,,,,,,,
,,,,,,,,,,,,,,,,,,,,,,-54.44444444,-57,20,75,-53.44444444,3.555555556,3.555555556,-0.211111111,-0.401111111,1,0,0,1.049,submitButton,4.5,-0.085555556,-0.205555556,0,0,0,0,4,4,131,1,57,67273,blockT,180,2022-02-09_23h48.07.503,orientation adjustment block,2021.2.3,MacIntel,55.55555556,,,,,,,
,,,,,,,,,,,,,,,,,,,,,,71.66666667,-59,20,75,129.6666667,8.666666667,8.666666667,-0.154444444,-0.403333333,1,0,0,1.95,submitButton,5.888888889,0.053333333,-0.308888889,0,0,0,0,5,5,58,1,59,67273,blockT,180,2022-02-09_23h48.07.503,orientation adjustment block,2021.2.3,MacIntel,55.55555556,,,,,,,
,,,,,,,,,,,,,,,,,,,,,,-25.55555556,71,20,75,57.44444444,13.55555556,13.55555556,0.366666667,-0.307777778,1,0,0,0.433,submitButton,13.55555556,-0.09,-0.205555556,0,0,0,0,6,6,70,1,71,67273,blockT,180,2022-02-09_23h48.07.503,orientation adjustment block,2021.2.3,MacIntel,55.55555556,,,,,,,
,,,,,,,,,,,,,,,,,,,,,,69.44444444,57,20,75,239.4444444,2.444444444,2.444444444,0.203333333,-0.302222222,1,0,0,1.4,submitButton,8,-0.09,-0.32,0,0,0,0,7,7,56,1,57,67273,blockT,180,2022-02-09_23h48.07.503,orientation adjustment block,2021.2.3,MacIntel,55.55555556,,,,,,,
,,,,,,,,,,,,,,,,,,,,,,-56.66666667,18,20,75,14.33333333,3.666666667,3.666666667,-0.142222222,-0.392222222,1,0,0,1.1,submitButton,6.555555556,-0.142222222,-0.392222222,0,0,0,0,8,8,17,1,18,67273,blockT,180,2022-02-09_23h48.07.503,orientation adjustment block,2021.2.3,MacIntel,55.55555556,,,,,,,
,,,,,,,,,,,,,,,,,,,,,,20,-4,20,75,-7,3,3,0.212222222,-0.28,1,0,0,1.434,submitButton,3,0.023333333,-0.237777778,0,0,0,0,9,9,3,1,4,67273,blockT,180,2022-02-09_23h48.07.503,orientation adjustment block,2021.2.3,MacIntel,55.55555556,,,,,,,
,,,,,,,,,,,,,,,,,,,,,,75,3,20,75,186,3,3,-0.166666667,-0.402222222,1,0,0,2.167,submitButton,3,0.015555556,-0.294444444,0,0,0,0,10,10,2,1,3,67273,blockT,180,2022-02-09_23h48.07.503,orientation adjustment block,2021.2.3,MacIntel,55.55555556,,,,,,,
,,,,,,,,,,,,,,,,,,,,,,-70.55555556,58,20,75,58.44444444,0.444444444,0.444444444,-0.18,-0.386666667,1,0,0,1.067,submitButton,2.148148148,-0.154444444,-0.366666667,0,0,0,0,11,11,132,1,58,67273,blockT,180,2022-02-09_23h48.07.503,orientation adjustment block,2021.2.3,MacIntel,55.55555556,,,,,,,
,,,,,,,,,,,,,,,,,,,,,,52.22222222,-13,20,75,159.2222222,7.777777778,7.777777778,-0.266666667,-0.391111111,1,0,0,2.016,submitButton,7.777777778,-0.023333333,-0.341111111,0,0,0,0,12,12,12,1,13,67273,blockT,180,2022-02-09_23h48.07.503,orientation adjustment block,2021.2.3,MacIntel,55.55555556,,,,,,,
,,,,,,,,,,,,,,,,,,,,,,38.88888889,-29,20,75,-16.11111111,12.88888889,12.88888889,0.385555556,-0.311111111,1,0,0,0.267,submitButton,10.33333333,-0.184444444,-0.425555556,0,0,0,0,13,13,103,1,29,67273,blockT,180,2022-02-09_23h48.07.503,orientation adjustment block,2021.2.3,MacIntel,55.55555556,,,,,,,
,,,,,,,,,,,,,,,,,,,,,,34.44444444,-61,20,75,-58.55555556,2.444444444,2.444444444,0.403333333,-0.295555556,1,0,0,0.017,submitButton,7.703703704,0.345555556,-0.397777778,1,0,0,0,14,14,60,1,61,67273,blockT,180,2022-02-09_23h48.07.503,orientation adjustment block,2021.2.3,MacIntel,55.55555556,continueButton,,,,,,
,,,,,,,,,,,,,,,,,,,,,,63.88888889,-40,20,75,129.8888889,10.11111111,10.11111111,-0.197777778,-0.417777778,1,0,0,1.783,submitButton,10.11111111,-0.196666667,-0.416666667,0,0,0,0,15,15,114,1,40,67273,blockT,180,2022-02-09_23h48.07.503,orientation adjustment block,2021.2.3,MacIntel,55.55555556,,,,,,,
,,,,,,,,,,,,,,,,,,,,,,30,-78,20,75,-77,1,1,-0.124444444,-0.396666667,1,0,0,0.683,submitButton,5.555555556,-0.123333333,-0.395555556,0,0,0,0,16,16,77,1,78,67273,blockT,180,2022-02-09_23h48.07.503,orientation adjustment block,2021.2.3,MacIntel,55.55555556,,,,,,,
,,,,,,,,,,,,,,,,,,,,,,47.77777778,25,20,75,194.7777778,10.22222222,10.22222222,-0.148888889,-0.401111111,1,0,0,1.9,submitButton,7.111111111,0.113333333,-0.304444444,0,0,0,0,17,17,99,1,25,67273,blockT,180,2022-02-09_23h48.07.503,orientation adjustment block,2021.2.3,MacIntel,55.55555556,,,,,,,
,,,,,,,,,,,,,,,,,,,,,,-29.44444444,37,20,75,21.55555556,15.44444444,15.44444444,-0.117777778,-0.403333333,1,0,0,0.783,submitButton,9.194444444,-0.065555556,-0.386666667,0,0,0,0,18,18,111,1,37,67273,blockT,180,2022-02-09_23h48.07.503,orientation adjustment block,2021.2.3,MacIntel,55.55555556,,,,,,,
,,,,,,,,,,,,,,,,,,,,,,-51.66666667,-74,20,75,-245.6666667,8.333333333,8.333333333,-0.142222222,-0.417777778,1,0,0,2.217,submitButton,9.022222222,0.046666667,-0.334444444,0,0,0,0,19,19,148,1,74,67273,blockT,180,2022-02-09_23h48.07.503,orientation adjustment block,2021.2.3,MacIntel,55.55555556,,,,,,,
,,,,,,,,,,,,,,,,,,,,,,-38.88888889,21,20,75,21.11111111,0.111111111,0.111111111,-0.197777778,-0.42,1,0,0,0.616,submitButton,7.537037037,0.025555556,-0.242222222,0,0,0,0,20,20,95,1,21,67273,blockT,180,2022-02-09_23h48.07.503,orientation adjustment block,2021.2.3,MacIntel,55.55555556,,,,,,,
,,,,,,,,,,,,,,,,,,,,,,-67.77777778,43,20,75,43.22222222,0.222222222,0.222222222,-0.163333333,-0.398888889,1,0,0,0.9,submitButton,6.492063492,0.173333333,-0.361111111,0,0,0,0,21,21,117,1,43,67273,blockT,180,2022-02-09_23h48.07.503,orientation adjustment block,2021.2.3,MacIntel,55.55555556,,,,,,,
,,,,,,,,,,,,,,,,,,,,,,21.66666667,47,20,75,232.6666667,5.666666667,5.666666667,-0.195555556,-0.41,1,0,0,2.784,submitButton,6.388888889,-0.193333333,-0.407777778,0,0,0,0,22,22,46,1,47,67273,blockT,180,2022-02-09_23h48.07.503,orientation adjustment block,2021.2.3,MacIntel,55.55555556,,,,,,,
,,,,,,,,,,,,,,,,,,,,,,-51.66666667,-66,20,75,-240.6666667,5.333333333,5.333333333,-0.175555556,-0.391111111,1,0,0,2.4,submitButton,6.271604938,-0.173333333,-0.391111111,0,0,0,0,23,23,65,1,66,67273,blockT,180,2022-02-09_23h48.07.503,orientation adjustment block,2021.2.3,MacIntel,55.55555556,,,,,,,
,,,,,,,,,,,,,,,,,,,,,,-72.22222222,-75,20,75,-70.22222222,4.777777778,4.777777778,-0.291111111,-0.396666667,1,0,0,1.884,submitButton,6.122222222,-0.291111111,-0.396666667,0,0,0,0,24,24,74,1,75,67273,blockT,180,2022-02-09_23h48.07.503,orientation adjustment block,2021.2.3,MacIntel,55.55555556,,,,,,,
,,,,,,,,,,,,,,,,,,,,,,-57.22222222,55,20,75,57.77777778,2.777777778,2.777777778,-0.162222222,-0.407777778,1,0,0,1.267,submitButton,5.818181818,-0.055555556,-0.276666667,0,0,0,0,25,25,129,1,55,67273,blockT,180,2022-02-09_23h48.07.503,orientation adjustment block,2021.2.3,MacIntel,55.55555556,,,,,,,
,,,,,,,,,,,,,,,,,,,,,,-66.11111111,-38,20,75,-56.11111111,18.11111111,18.11111111,0.271111111,-0.296666667,1,0,0,0.25,submitButton,6.842592593,-0.082222222,-0.333333333,0,0,0,0,26,26,112,1,38,67273,blockT,180,2022-02-09_23h48.07.503,orientation adjustment block,2021.2.3,MacIntel,55.55555556,,,,,,,
,,,,,,,,,,,,,,,,,,,,,,-52.77777778,-55,20,75,-55.77777778,0.777777778,0.777777778,-0.223333333,-0.395555556,1,0,0,1.6,submitButton,6.376068376,0.082222222,-0.285555556,0,0,0,0,27,27,54,1,55,67273,blockT,180,2022-02-09_23h48.07.503,orientation adjustment block,2021.2.3,MacIntel,55.55555556,,,,,,,
,,,,,,,,,,,,,,,,,,,,,,27.77777778,-24,20,75,-20.22222222,3.777777778,3.777777778,0.451111111,-0.3,1,0,0,0.2,submitButton,6.19047619,0.213333333,-0.337777778,0,0,0,0,28,28,98,1,24,67273,blockT,180,2022-02-09_23h48.07.503,orientation adjustment block,2021.2.3,MacIntel,55.55555556,,,,,,,
,,,,,,,,,,,,,,,,,,,,,,-46.11111111,66,20,75,60.88888889,5.111111111,5.111111111,-0.193333333,-0.39,1,0,0,0.617,submitButton,6.118518519,0.3,-0.395555556,1,0,0,0,29,29,140,1,66,67273,blockT,180,2022-02-09_23h48.07.503,orientation adjustment block,2021.2.3,MacIntel,55.55555556,continueButton,,,,,,
,,,,,,,,,,,,,,,,,,,,,,30.55555556,-6,20,75,-18.44444444,12.44444444,12.44444444,-0.155555556,-0.382222222,1,0,0,0.933,submitButton,6.513888889,-0.148888889,-0.383333333,0,0,0,0,30,30,5,1,6,67273,blockT,180,2022-02-09_23h48.07.503,orientation adjustment block,2021.2.3,MacIntel,55.55555556,,,,,,,
,,,,,,,,,,,,,,,,,,,,,,-53.88888889,-11,20,75,-18.88888889,7.888888889,7.888888889,-0.206666667,-0.398888889,1,0,0,1,submitButton,6.594771242,-0.2,-0.396666667,0,0,0,0,31,31,10,1,11,67273,blockT,180,2022-02-09_23h48.07.503,orientation adjustment block,2021.2.3,MacIntel,55.55555556,,,,,,,
,,,,,,,,,,,,,,,,,,,,,,26.11111111,87,20,75,93.11111111,6.111111111,6.111111111,0.377777778,-0.3,1,0,0,0.317,submitButton,6.567901235,0.074444444,-0.306666667,0,0,0,0,32,32,86,1,87,67273,blockT,180,2022-02-09_23h48.07.503,orientation adjustment block,2021.2.3,MacIntel,55.55555556,,,,,,,
,,,,,,,,,,,,,,,,,,,,,,-32.77777778,-69,20,75,-67.77777778,1.222222222,1.222222222,-0.183333333,-0.406666667,1,0,0,0.633,submitButton,6.286549708,-0.07,-0.255555556,0,0,0,0,33,33,68,1,69,67273,blockT,180,2022-02-09_23h48.07.503,orientation adjustment block,2021.2.3,MacIntel,55.55555556,,,,,,,
,,,,,,,,,,,,,,,,,,,,,,-22.22222222,9,20,75,11.77777778,2.777777778,2.777777778,-0.192222222,-0.398888889,1,0,0,0.617,submitButton,6.111111111,-0.187777778,-0.397777778,0,0,0,0,34,34,8,1,9,67273,blockT,180,2022-02-09_23h48.07.503,orientation adjustment block,2021.2.3,MacIntel,55.55555556,,,,,,,
,,,,,,,,,,,,,,,,,,,,,,72.22222222,-70,20,75,-66.77777778,3.222222222,3.222222222,0.371111111,-0.305555556,1,0,0,0.083,submitButton,5.973544974,-0.183333333,-0.23,0,0,0,0,35,35,144,1,70,67273,blockT,180,2022-02-09_23h48.07.503,orientation adjustment block,2021.2.3,MacIntel,55.55555556,,,,,,,
,,,,,,,,,,,,,,,,,,,,,,52.77777778,23,20,75,182.7777778,20.22222222,20.22222222,-0.161111111,-0.403333333,1,0,0,1.85,submitButton,6.621212121,-0.136666667,-0.39,0,0,0,0,36,36,97,1,23,67273,blockT,180,2022-02-09_23h48.07.503,orientation adjustment block,2021.2.3,MacIntel,55.55555556,,,,,,,
,,,,,,,,,,,,,,,,,,,,,,-62.77777778,-44,20,75,-210.7777778,13.22222222,13.22222222,-0.122222222,-0.41,1,0,0,1.733,submitButton,6.90821256,-0.12,-0.41,0,0,0,0,37,37,118,1,44,67273,blockT,180,2022-02-09_23h48.07.503,orientation adjustment block,2021.2.3,MacIntel,55.55555556,,,,,,,
,,,,,,,,,,,,,,,,,,,,,,-30,33,20,75,30,3,3,-0.255555556,-0.377777778,1,0,0,0.317,submitButton,6.74537037,0.133333333,-0.308888889,0,0,0,0,38,38,32,1,33,67273,blockT,180,2022-02-09_23h48.07.503,orientation adjustment block,2021.2.3,MacIntel,55.55555556,,,,,,,
,,,,,,,,,,,,,,,,,,,,,,-58.88888889,-34,20,75,-203.8888889,10.11111111,10.11111111,-0.26,-0.393333333,1,0,0,1.883,submitButton,6.88,-0.26,-0.393333333,0,0,0,0,39,39,108,1,34,67273,blockT,180,2022-02-09_23h48.07.503,orientation adjustment block,2021.2.3,MacIntel,55.55555556,,,,,,,
,,,,,,,,,,,,,,,,,,,,,,-30.55555556,21,20,75,21.44444444,0.444444444,0.444444444,-0.292222222,-0.415555556,1,0,0,0.767,submitButton,6.632478632,-0.211111111,-0.326666667,0,0,0,0,40,40,20,1,21,67273,blockT,180,2022-02-09_23h48.07.503,orientation adjustment block,2021.2.3,MacIntel,55.55555556,,,,,,,
,,,,,,,,,,,,,,,,,,,,,,75,76,20,75,254,2,2,-0.101111111,-0.408888889,1,0,0,1.333,submitButton,6.46090535,-0.098888889,-0.405555556,0,0,0,0,41,41,75,1,76,67273,blockT,180,2022-02-09_23h48.07.503,orientation adjustment block,2021.2.3,MacIntel,55.55555556,,,,,,,
,,,,,,,,,,,,,,,,,,,,,,62.22222222,80,20,75,251.2222222,8.777777778,8.777777778,-0.158888889,-0.398888889,1,0,0,2.033,submitButton,6.543650794,0.084444444,-0.314444444,0,0,0,0,42,42,79,1,80,67273,blockT,180,2022-02-09_23h48.07.503,orientation adjustment block,2021.2.3,MacIntel,55.55555556,,,,,,,
,,,,,,,,,,,,,,,,,,,,,,36.11111111,-46,20,75,-35.88888889,10.11111111,10.11111111,-0.181111111,-0.41,1,0,0,0.349,submitButton,6.666666667,0.128888889,-0.338888889,0,0,0,0,43,43,120,1,46,67273,blockT,180,2022-02-09_23h48.07.503,orientation adjustment block,2021.2.3,MacIntel,55.55555556,,,,,,,
,,,,,,,,,,,,,,,,,,,,,,61.11111111,-56,20,75,-55.88888889,0.111111111,0.111111111,-0.135555556,-0.391111111,1,0,0,1.066,submitButton,6.448148148,0.323333333,-0.406666667,1,0,0,0,44,44,130,1,56,67273,blockT,180,2022-02-09_23h48.07.503,orientation adjustment block,2021.2.3,MacIntel,55.55555556,continueButton,,,,,,
,,,,,,,,,,,,,,,,,,,,,,31.11111111,-27,20,75,-34.88888889,7.888888889,7.888888889,0.378888889,-0.321111111,1,0,0,0.817,submitButton,6.494623656,-0.05,-0.25,0,0,0,0,45,45,101,1,27,67273,blockT,180,2022-02-09_23h48.07.503,orientation adjustment block,2021.2.3,MacIntel,55.55555556,,,,,,,
,,,,,,,,,,,,,,,,,,,,,,72.22222222,-35,20,75,141.2222222,3.777777778,3.777777778,-0.218888889,-0.407777778,1,0,0,1.666,submitButton,6.409722222,0.234444444,-0.297777778,0,0,0,0,46,46,34,1,35,67273,blockT,180,2022-02-09_23h48.07.503,orientation adjustment block,2021.2.3,MacIntel,55.55555556,,,,,,,
,,,,,,,,,,,,,,,,,,,,,,-58.33333333,-64,20,75,-236.3333333,7.666666667,7.666666667,-0.203333333,-0.403333333,1,0,0,1.9,submitButton,6.447811448,0.332222222,-0.295555556,0,0,0,0,47,47,138,1,64,67273,blockT,180,2022-02-09_23h48.07.503,orientation adjustment block,2021.2.3,MacIntel,55.55555556,,,,,,,
,,,,,,,,,,,,,,,,,,,,,,-38.88888889,-44,20,75,-51.88888889,7.888888889,7.888888889,-0.147777778,-0.406666667,1,0,0,0.383,submitButton,6.490196078,0.187777778,-0.292222222,0,0,0,0,48,48,43,1,44,67273,blockT,180,2022-02-09_23h48.07.503,orientation adjustment block,2021.2.3,MacIntel,55.55555556,,,,,,,
,,,,,,,,,,,,,,,,,,,,,,66.11111111,-31,20,75,-24.88888889,6.111111111,6.111111111,0.418888889,-0.321111111,1,0,0,0.3,submitButton,6.479365079,0.093333333,-0.302222222,0,0,0,0,49,49,105,1,31,67273,blockT,180,2022-02-09_23h48.07.503,orientation adjustment block,2021.2.3,MacIntel,55.55555556,,,,,,,
,,,,,,,,,,,,,,,,,,,,,,-30.55555556,-2,20,75,-0.555555556,1.444444444,1.444444444,-0.152222222,-0.375555556,1,0,0,0.434,submitButton,6.339506173,-0.153333333,-0.374444444,0,0,0,0,50,50,1,1,2,67273,blockT,180,2022-02-09_23h48.07.503,orientation adjustment block,2021.2.3,MacIntel,55.55555556,,,,,,,
,,,,,,,,,,,,,,,,,,,,,,-66.11111111,8,20,75,20.88888889,12.88888889,12.88888889,0.186666667,-0.308888889,1,0,0,0.716,submitButton,6.516516517,0.022222222,-0.228888889,0,0,0,0,51,51,7,1,8,67273,blockT,180,2022-02-09_23h48.07.503,orientation adjustment block,2021.2.3,MacIntel,55.55555556,,,,,,,
,,,,,,,,,,,,,,,,,,,,,,73.33333333,-45,20,75,-30.66666667,14.33333333,14.33333333,-0.184444444,-0.412222222,1,0,0,0.9,submitButton,6.722222222,0.033333333,-0.245555556,0,0,0,0,52,52,44,1,45,67273,blockT,180,2022-02-09_23h48.07.503,orientation adjustment block,2021.2.3,MacIntel,55.55555556,,,,,,,
,,,,,,,,,,,,,,,,,,,,,,-43.33333333,30,20,75,29.66666667,0.333333333,0.333333333,-0.265555556,-0.39,1,0,0,0.284,submitButton,6.558404558,0.097777778,-0.356666667,0,0,0,0,53,53,104,1,30,67273,blockT,180,2022-02-09_23h48.07.503,orientation adjustment block,2021.2.3,MacIntel,55.55555556,,,,,,,
,,,,,,,,,,,,,,,,,,,,,,-36.11111111,40,20,75,40.88888889,0.888888889,0.888888889,-0.178888889,-0.415555556,1,0,0,0.566,submitButton,6.416666667,0.131111111,-0.352222222,0,0,0,0,54,54,39,1,40,67273,blockT,180,2022-02-09_23h48.07.503,orientation adjustment block,2021.2.3,MacIntel,55.55555556,,,,,,,
,,,,,,,,,,,,,,,,,,,,,,-75,-82,20,75,-245,17,17,-0.175555556,-0.415555556,1,0,0,1.584,submitButton,6.674796748,-0.15,-0.401111111,0,0,0,0,55,55,81,1,82,67273,blockT,180,2022-02-09_23h48.07.503,orientation adjustment block,2021.2.3,MacIntel,55.55555556,,,,,,,
,,,,,,,,,,,,,,,,,,,,,,28.88888889,47,20,75,58.88888889,11.88888889,11.88888889,0.186666667,-0.322222222,1,0,0,0.483,submitButton,6.798941799,-0.148888889,-0.405555556,0,0,0,0,56,56,121,1,47,67273,blockT,180,2022-02-09_23h48.07.503,orientation adjustment block,2021.2.3,MacIntel,55.55555556,,,,,,,
,,,,,,,,,,,,,,,,,,,,,,24.44444444,-73,20,75,-22.55555556,50.44444444,50.44444444,0.213333333,-0.294444444,1,0,0,1.051,submitButton,7.813953488,0.222222222,-0.267777778,0,0,0,0,57,57,147,1,73,67273,blockT,180,2022-02-09_23h48.07.503,orientation adjustment block,2021.2.3,MacIntel,55.55555556,,,,,,,
,,,,,,,,,,,,,,,,,,,,,,-25,-43,20,75,-39,4,4,0.238888889,-0.317777778,1,0,0,0.35,submitButton,7.727272727,0.361111111,-0.346666667,0,0,0,0,58,58,42,1,43,67273,blockT,180,2022-02-09_23h48.07.503,orientation adjustment block,2021.2.3,MacIntel,55.55555556,,,,,,,
,,,,,,,,,,,,,,,,,,,,,,49.44444444,16,20,75,187.4444444,8.555555556,8.555555556,-0.12,-0.398888889,1,0,0,2.035,submitButton,7.745679012,0.377777778,-0.393333333,1,0,0,0,59,59,90,1,16,67273,blockT,180,2022-02-09_23h48.07.503,orientation adjustment block,2021.2.3,MacIntel,55.55555556,continueButton,,,,,,
,,,,,,,,,,,,,,,,,,,,,,43.33333333,46,20,75,193.3333333,32.66666667,32.66666667,-0.184444444,-0.395555556,1,0,0,2.017,submitButton,8.287439614,-0.072222222,-0.331111111,0,0,0,0,60,60,45,1,46,67273,blockT,180,2022-02-09_23h48.07.503,orientation adjustment block,2021.2.3,MacIntel,55.55555556,,,,,,,
,,,,,,,,,,,,,,,,,,,,,,-60,-20,20,75,-22,2,2,0.233333333,-0.294444444,1,0,0,0.033,submitButton,8.153664303,0.116666667,-0.358888889,0,0,0,0,61,61,94,1,20,67273,blockT,180,2022-02-09_23h48.07.503,orientation adjustment block,2021.2.3,MacIntel,55.55555556,,,,,,,
,,,,,,,,,,,,,,,,,,,,,,73.88888889,-58,20,75,-62.11111111,4.111111111,4.111111111,-0.116666667,-0.388888889,1,0,0,1.082,submitButton,8.069444444,0.243333333,-0.341111111,0,0,0,0,62,62,57,1,58,67273,blockT,180,2022-02-09_23h48.07.503,orientation adjustment block,2021.2.3,MacIntel,55.55555556,,,,,,,
,,,,,,,,,,,,,,,,,,,,,,62.77777778,-67,20,75,-69.22222222,2.222222222,2.222222222,-0.237777778,-0.394444444,1,0,0,1.299,submitButton,7.950113379,0.203333333,-0.323333333,0,0,0,0,63,63,141,1,67,67273,blockT,180,2022-02-09_23h48.07.503,orientation adjustment block,2021.2.3,MacIntel,55.55555556,,,,,,,
,,,,,,,,,,,,,,,,,,,,,,-61.66666667,-39,20,75,-43.66666667,4.666666667,4.666666667,-0.157777778,-0.353333333,1,0,0,0.434,submitButton,7.884444444,0.33,-0.298888889,0,0,0,0,64,64,38,1,39,67273,blockT,180,2022-02-09_23h48.07.503,orientation adjustment block,2021.2.3,MacIntel,55.55555556,,,,,,,
,,,,,,,,,,,,,,,,,,,,,,64.44444444,-79,20,75,-71.55555556,7.444444444,7.444444444,-0.155555556,-0.381111111,1,0,0,0.834,submitButton,7.875816993,-0.153333333,-0.38,0,0,0,0,65,65,78,1,79,67273,blockT,180,2022-02-09_23h48.07.503,orientation adjustment block,2021.2.3,MacIntel,55.55555556,,,,,,,
,,,,,,,,,,,,,,,,,,,,,,22.77777778,84,20,75,254.7777778,9.222222222,9.222222222,-0.244444444,-0.386666667,1,0,0,2.533,submitButton,7.901709402,0.062222222,-0.25,0,0,0,0,66,66,83,1,84,67273,blockT,180,2022-02-09_23h48.07.503,orientation adjustment block,2021.2.3,MacIntel,55.55555556,,,,,,,
,,,,,,,,,,,,,,,,,,,,,,-52.22222222,-73,20,75,-240.2222222,12.77777778,12.77777778,-0.346666667,-0.413333333,1,0,0,1.9,submitButton,7.993710692,0.052222222,-0.294444444,0,0,0,0,67,67,72,1,73,67273,blockT,180,2022-02-09_23h48.07.503,orientation adjustment block,2021.2.3,MacIntel,55.55555556,,,,,,,
,,,,,,,,,,,,,,,,,,,,,,71.11111111,-65,20,75,-62.88888889,2.111111111,2.111111111,-0.203333333,-0.398888889,1,0,0,1.25,submitButton,7.884773663,0.066666667,-0.347777778,0,0,0,0,68,68,64,1,65,67273,blockT,180,2022-02-09_23h48.07.503,orientation adjustment block,2021.2.3,MacIntel,55.55555556,,,,,,,
,,,,,,,,,,,,,,,,,,,,,,-55.55555556,31,20,75,24.44444444,6.555555556,6.555555556,-0.09,-0.397777778,1,0,0,0.55,submitButton,7.860606061,0.165555556,-0.293333333,0,0,0,0,69,69,30,1,31,67273,blockT,180,2022-02-09_23h48.07.503,orientation adjustment block,2021.2.3,MacIntel,55.55555556,,,,,,,
,,,,,,,,,,,,,,,,,,,,,,40,-62,20,75,-66,4,4,-0.288888889,-0.387777778,1,0,0,0.417,submitButton,7.791666667,0.124444444,-0.271111111,0,0,0,0,70,70,61,1,62,67273,blockT,180,2022-02-09_23h48.07.503,orientation adjustment block,2021.2.3,MacIntel,55.55555556,,,,,,,
,,,,,,,,,,,,,,,,,,,,,,-21.66666667,5,20,75,20.33333333,15.33333333,15.33333333,-0.225555556,-0.355555556,1,0,0,0.285,submitButton,7.923976608,0.077777778,-0.308888889,0,0,0,0,71,71,4,1,5,67273,blockT,180,2022-02-09_23h48.07.503,orientation adjustment block,2021.2.3,MacIntel,55.55555556,,,,,,,
,,,,,,,,,,,,,,,,,,,,,,-61.66666667,-35,20,75,-201.6666667,13.33333333,13.33333333,-0.163333333,-0.41,1,0,0,1.733,submitButton,8.017241379,0.19,-0.26,0,0,0,0,72,72,109,1,35,67273,blockT,180,2022-02-09_23h48.07.503,orientation adjustment block,2021.2.3,MacIntel,55.55555556,,,,,,,
,,,,,,,,,,,,,,,,,,,,,,-27.22222222,72,20,75,75.77777778,3.777777778,3.777777778,-0.308888889,-0.368888889,1,0,0,0.133,submitButton,7.945386064,0.176666667,-0.328888889,0,0,0,0,73,73,146,1,72,67273,blockT,180,2022-02-09_23h48.07.503,orientation adjustment block,2021.2.3,MacIntel,55.55555556,,,,,,,
,,,,,,,,,,,,,,,,,,,,,,55.55555556,28,20,75,25.55555556,2.444444444,2.444444444,-0.154444444,-0.402222222,1,0,0,1.384,submitButton,7.853703704,0.37,-0.405555556,1,0,0,0,74,74,102,1,28,67273,blockT,180,2022-02-09_23h48.07.503,orientation adjustment block,2021.2.3,MacIntel,55.55555556,continueButton,,,,,,
,,,,,,,,,,,,,,,,,,,,,,75,17,20,75,192,5,5,-0.232222222,-0.39,1,0,0,1.3,submitButton,7.806921676,-0.024444444,-0.181111111,0,0,0,0,75,75,16,1,17,67273,blockT,180,2022-02-09_23h48.07.503,orientation adjustment block,2021.2.3,MacIntel,55.55555556,,,,,,,
,,,,,,,,,,,,,,,,,,,,,,70.55555556,-49,20,75,-54.44444444,5.444444444,5.444444444,-0.215555556,-0.407777778,1,0,0,1.217,submitButton,7.768817204,-0.168888889,-0.396666667,0,0,0,0,76,76,123,1,49,67273,blockT,180,2022-02-09_23h48.07.503,orientation adjustment block,2021.2.3,MacIntel,55.55555556,,,,,,,
,,,,,,,,,,,,,,,,,,,,,,40.55555556,42,20,75,46.55555556,4.555555556,4.555555556,0.368888889,-0.311111111,1,0,0,0.216,submitButton,7.717813051,-0.137777778,-0.34,0,0,0,0,77,77,116,1,42,67273,blockT,180,2022-02-09_23h48.07.503,orientation adjustment block,2021.2.3,MacIntel,55.55555556,,,,,,,
,,,,,,,,,,,,,,,,,,,,,,55.55555556,-60,20,75,-67.44444444,7.444444444,7.444444444,0.398888889,-0.324444444,1,0,0,1.883,submitButton,7.713541667,0.097777778,-0.275555556,0,0,0,0,78,78,59,1,60,67273,blockT,180,2022-02-09_23h48.07.503,orientation adjustment block,2021.2.3,MacIntel,55.55555556,,,,,,,
,,,,,,,,,,,,,,,,,,,,,,23.88888889,-81,20,75,-80.11111111,0.888888889,0.888888889,-0.297777778,-0.43,1,0,0,0.101,submitButton,7.608547009,0.166666667,-0.257777778,0,0,0,0,79,79,80,1,81,67273,blockT,180,2022-02-09_23h48.07.503,orientation adjustment block,2021.2.3,MacIntel,55.55555556,,,,,,,
,,,,,,,,,,,,,,,,,,,,,,52.22222222,39,20,75,198.2222222,20.77777778,20.77777778,-0.244444444,-0.378888889,1,0,0,1.684,submitButton,7.808080808,0.212222222,-0.283333333,0,0,0,0,80,80,113,1,39,67273,blockT,180,2022-02-09_23h48.07.503,orientation adjustment block,2021.2.3,MacIntel,55.55555556,,,,,,,
,,,,,,,,,,,,,,,,,,,,,,30,-71,20,75,-72,1,1,-0.241111111,-0.385555556,1,0,0,0.366,submitButton,7.706467662,0.323333333,-0.29,0,0,0,0,81,81,145,1,71,67273,blockT,180,2022-02-09_23h48.07.503,orientation adjustment block,2021.2.3,MacIntel,55.55555556,,,,,,,
,,,,,,,,,,,,,,,,,,,,,,-57.77777778,59,20,75,42.22222222,16.77777778,16.77777778,-0.227777778,-0.371111111,1,0,0,0.351,submitButton,7.839869281,0.238888889,-0.307777778,0,0,0,0,82,82,133,1,59,67273,blockT,180,2022-02-09_23h48.07.503,orientation adjustment block,2021.2.3,MacIntel,55.55555556,,,,,,,
,,,,,,,,,,,,,,,,,,,,,,22.77777778,16,20,75,13.77777778,2.222222222,2.222222222,-0.22,-0.376666667,1,0,0,0.334,submitButton,7.758454106,0.174444444,-0.262222222,0,0,0,0,83,83,15,1,16,67273,blockT,180,2022-02-09_23h48.07.503,orientation adjustment block,2021.2.3,MacIntel,55.55555556,,,,,,,
,,,,,,,,,,,,,,,,,,,,,,-65,-27,20,75,-199,8,8,-0.228888889,-0.394444444,1,0,0,1.517,submitButton,7.761904762,0.175555556,-0.257777778,0,0,0,0,84,84,26,1,27,67273,blockT,180,2022-02-09_23h48.07.503,orientation adjustment block,2021.2.3,MacIntel,55.55555556,,,,,,,
,,,,,,,,,,,,,,,,,,,,,,-39.44444444,86,20,75,76.55555556,9.444444444,9.444444444,-0.177777778,-0.397777778,1,0,0,0.367,submitButton,7.785602504,0.118888889,-0.324444444,0,0,0,0,85,85,85,1,86,67273,blockT,180,2022-02-09_23h48.07.503,orientation adjustment block,2021.2.3,MacIntel,55.55555556,,,,,,,
,,,,,,,,,,,,,,,,,,,,,,-57.77777778,67,20,75,63.22222222,3.777777778,3.777777778,-0.174444444,-0.392222222,1,0,0,1.25,submitButton,7.729938272,-0.071111111,-0.363333333,0,0,0,0,86,86,66,1,67,67273,blockT,180,2022-02-09_23h48.07.503,orientation adjustment block,2021.2.3,MacIntel,55.55555556,,,,,,,
,,,,,,,,,,,,,,,,,,,,,,24.44444444,68,20,75,239.4444444,8.555555556,8.555555556,-0.212222222,-0.407777778,1,0,0,2.334,submitButton,7.741248097,0.17,-0.294444444,0,0,0,0,87,87,142,1,68,67273,blockT,180,2022-02-09_23h48.07.503,orientation adjustment block,2021.2.3,MacIntel,55.55555556,,,,,,,
,,,,,,,,,,,,,,,,,,,,,,31.11111111,-33,20,75,-26.88888889,6.111111111,6.111111111,-0.151111111,-0.396666667,1,0,0,0.584,submitButton,7.719219219,0.025555556,-0.31,0,0,0,0,88,88,107,1,33,67273,blockT,180,2022-02-09_23h48.07.503,orientation adjustment block,2021.2.3,MacIntel,55.55555556,,,,,,,
,,,,,,,,,,,,,,,,,,,,,,-48.33333333,15,20,75,18.66666667,3.666666667,3.666666667,-0.158888889,-0.398888889,1,0,0,1.05,submitButton,7.665185185,0.375555556,-0.381111111,1,0,0,0,89,89,14,1,15,67273,blockT,180,2022-02-09_23h48.07.503,orientation adjustment block,2021.2.3,MacIntel,55.55555556,continueButton,,,,,,
,,,,,,,,,,,,,,,,,,,,,,68.88888889,-19,20,75,49.88888889,68.88888889,68.88888889,-0.104444444,-0.404444444,1,0,0,2.901,submitButton,8.470760234,-0.104444444,-0.404444444,0,0,0,0,90,90,93,1,19,67273,blockT,180,2022-02-09_23h48.07.503,orientation adjustment block,2021.2.3,MacIntel,55.55555556,,,,,,,
,,,,,,,,,,,,,,,,,,,,,,38.33333333,17,20,75,25.33333333,8.333333333,8.333333333,-0.155555556,-0.42,1,0,0,1.067,submitButton,8.468975469,-0.155555556,-0.42,0,0,0,0,91,91,91,1,17,67273,blockT,180,2022-02-09_23h48.07.503,orientation adjustment block,2021.2.3,MacIntel,55.55555556,,,,,,,
,,,,,,,,,,,,,,,,,,,,,,55.55555556,-68,20,75,-64.44444444,3.555555556,3.555555556,-0.176666667,-0.403333333,1,0,0,0.95,submitButton,8.405982906,-0.036666667,-0.294444444,0,0,0,0,92,92,67,1,68,67273,blockT,180,2022-02-09_23h48.07.503,orientation adjustment block,2021.2.3,MacIntel,55.55555556,,,,,,,
,,,,,,,,,,,,,,,,,,,,,,-44.44444444,51,20,75,47.55555556,3.444444444,3.444444444,-0.203333333,-0.394444444,1,0,0,0.601,submitButton,8.343178622,0.176666667,-0.324444444,0,0,0,0,93,93,125,1,51,67273,blockT,180,2022-02-09_23h48.07.503,orientation adjustment block,2021.2.3,MacIntel,55.55555556,,,,,,,
,,,,,,,,,,,,,,,,,,,,,,69.44444444,-52,20,75,-50.55555556,1.444444444,1.444444444,-0.276666667,-0.392222222,1,0,0,1.051,submitButton,8.256944444,-0.277777778,-0.392222222,0,0,0,0,94,94,51,1,52,67273,blockT,180,2022-02-09_23h48.07.503,orientation adjustment block,2021.2.3,MacIntel,55.55555556,,,,,,,
,,,,,,,,,,,,,,,,,,,,,,47.22222222,-56,20,75,-58.77777778,2.777777778,2.777777778,-0.233333333,-0.388888889,1,0,0,1.282,submitButton,8.189300412,-0.233333333,-0.388888889,0,0,0,0,95,95,55,1,56,67273,blockT,180,2022-02-09_23h48.07.503,orientation adjustment block,2021.2.3,MacIntel,55.55555556,,,,,,,
,,,,,,,,,,,,,,,,,,,,,,-72.22222222,24,20,75,26.77777778,2.777777778,2.777777778,-0.154444444,-0.405555556,1,0,0,1.433,submitButton,8.123306233,-0.158888889,-0.398888889,0,0,0,0,96,96,23,1,24,67273,blockT,180,2022-02-09_23h48.07.503,orientation adjustment block,2021.2.3,MacIntel,55.55555556,,,,,,,
,,,,,,,,,,,,,,,,,,,,,,69.44444444,-70,20,75,-70.55555556,0.555555556,0.555555556,-0.302222222,-0.412222222,1,0,0,1.483,submitButton,8.032128514,0.306666667,-0.368888889,0,0,0,0,97,97,69,1,70,67273,blockT,180,2022-02-09_23h48.07.503,orientation adjustment block,2021.2.3,MacIntel,55.55555556,,,,,,,
,,,,,,,,,,,,,,,,,,,,,,25.55555556,-75,20,75,-81.44444444,6.444444444,6.444444444,-0.228888889,-0.41,1,0,0,0.5,submitButton,8.013227513,0.158888889,-0.265555556,0,0,0,0,98,98,149,1,75,67273,blockT,180,2022-02-09_23h48.07.503,orientation adjustment block,2021.2.3,MacIntel,55.55555556,,,,,,,
,,,,,,,,,,,,,,,,,,,,,,-40.55555556,34,20,75,32.44444444,1.555555556,1.555555556,-0.197777778,-0.392222222,1,0,0,0.917,submitButton,7.937254902,0.202222222,-0.324444444,0,0,0,0,99,99,33,1,34,67273,blockT,180,2022-02-09_23h48.07.503,orientation adjustment block,2021.2.3,MacIntel,55.55555556,,,,,,,
,,,,,,,,,,,,,,,,,,,,,,63.88888889,-29,20,75,-28.11111111,0.888888889,0.888888889,-0.21,-0.375555556,1,0,0,1.215,submitButton,7.855297158,0.121111111,-0.312222222,0,0,0,0,100,100,28,1,29,67273,blockT,180,2022-02-09_23h48.07.503,orientation adjustment block,2021.2.3,MacIntel,55.55555556,,,,,,,
,,,,,,,,,,,,,,,,,,,,,,49.44444444,-90,20,75,-86.55555556,3.444444444,3.444444444,0.17,-0.308888889,1,0,0,1.383,submitButton,7.804597701,0.133333333,-0.295555556,0,0,0,0,101,101,89,1,90,67273,blockT,180,2022-02-09_23h48.07.503,orientation adjustment block,2021.2.3,MacIntel,55.55555556,,,,,,,
,,,,,,,,,,,,,,,,,,,,,,-58.33333333,25,20,75,20.66666667,4.333333333,4.333333333,-0.163333333,-0.401111111,1,0,0,0.917,submitButton,7.765151515,0.056666667,-0.37,0,0,0,0,102,102,24,1,25,67273,blockT,180,2022-02-09_23h48.07.503,orientation adjustment block,2021.2.3,MacIntel,55.55555556,,,,,,,
,,,,,,,,,,,,,,,,,,,,,,-43.33333333,-63,20,75,-71.33333333,8.333333333,8.333333333,-0.185555556,-0.39,1,0,0,0.65,submitButton,7.771535581,0.137777778,-0.344444444,0,0,0,0,103,103,62,1,63,67273,blockT,180,2022-02-09_23h48.07.503,orientation adjustment block,2021.2.3,MacIntel,55.55555556,,,,,,,
,,,,,,,,,,,,,,,,,,,,,,-68.33333333,-20,20,75,-21.33333333,1.333333333,1.333333333,-0.22,-0.401111111,1,0,0,0.982,submitButton,7.7,0.301111111,-0.391111111,1,0,0,0,104,104,19,1,20,67273,blockT,180,2022-02-09_23h48.07.503,orientation adjustment block,2021.2.3,MacIntel,55.55555556,continueButton,,,,,,
,,,,,,,,,,,,,,,,,,,,,,39.44444444,-50,20,75,-10.55555556,39.44444444,39.44444444,-0.172222222,-0.39,1,0,0,1.051,submitButton,8.048840049,0.126666667,-0.306666667,0,0,0,0,105,105,124,1,50,67273,blockT,180,2022-02-09_23h48.07.503,orientation adjustment block,2021.2.3,MacIntel,55.55555556,,,,,,,
,,,,,,,,,,,,,,,,,,,,,,25,10,20,75,22,12,12,0.38,-0.316666667,1,0,0,0.133,submitButton,8.09178744,0.047777778,-0.344444444,0,0,0,0,106,106,9,1,10,67273,blockT,180,2022-02-09_23h48.07.503,orientation adjustment block,2021.2.3,MacIntel,55.55555556,,,,,,,
,,,,,,,,,,,,,,,,,,,,,,-32.77777778,-42,20,75,-43.77777778,1.777777778,1.777777778,-0.143333333,-0.423333333,1,0,0,1.001,submitButton,8.023894863,0.34,-0.314444444,0,0,0,0,107,107,41,1,42,67273,blockT,180,2022-02-09_23h48.07.503,orientation adjustment block,2021.2.3,MacIntel,55.55555556,,,,,,,
,,,,,,,,,,,,,,,,,,,,,,32.22222222,69,20,75,251.2222222,2.222222222,2.222222222,0.187777778,-0.31,1,0,0,1.968,submitButton,7.962174941,0.064444444,-0.325555556,0,0,0,0,108,108,143,1,69,67273,blockT,180,2022-02-09_23h48.07.503,orientation adjustment block,2021.2.3,MacIntel,55.55555556,,,,,,,
,,,,,,,,,,,,,,,,,,,,,,-38.33333333,38,20,75,18.66666667,19.33333333,19.33333333,0.208888889,-0.3,1,0,0,0.182,submitButton,8.081871345,0.156666667,-0.32,0,0,0,0,109,109,37,1,38,67273,blockT,180,2022-02-09_23h48.07.503,orientation adjustment block,2021.2.3,MacIntel,55.55555556,,,,,,,
,,,,,,,,,,,,,,,,,,,,,,-40,7,20,75,11,4,4,-0.175555556,-0.405555556,1,0,0,0.967,submitButton,8.039351852,0.182222222,-0.293333333,0,0,0,0,110,110,6,1,7,67273,blockT,180,2022-02-09_23h48.07.503,orientation adjustment block,2021.2.3,MacIntel,55.55555556,,,,,,,
,,,,,,,,,,,,,,,,,,,,,,-36.11111111,12,20,75,18.88888889,6.888888889,6.888888889,-0.141111111,-0.402222222,1,0,0,0.732,submitButton,8.027491409,0.203333333,-0.296666667,0,0,0,0,111,111,11,1,12,67273,blockT,180,2022-02-09_23h48.07.503,orientation adjustment block,2021.2.3,MacIntel,55.55555556,,,,,,,
,,,,,,,,,,,,,,,,,,,,,,42.77777778,-65,20,75,-74.22222222,9.222222222,9.222222222,-0.296666667,-0.415555556,1,0,0,0.816,submitButton,8.03968254,-0.054444444,-0.333333333,0,0,0,0,112,112,139,1,65,67273,blockT,180,2022-02-09_23h48.07.503,orientation adjustment block,2021.2.3,MacIntel,55.55555556,,,,,,,
,,,,,,,,,,,,,,,,,,,,,,72.22222222,-88,20,75,-72.77777778,15.22222222,15.22222222,-0.16,-0.407777778,1,0,0,1.65,submitButton,8.112233446,0.29,-0.214444444,0,0,0,0,113,113,87,1,88,67273,blockT,180,2022-02-09_23h48.07.503,orientation adjustment block,2021.2.3,MacIntel,55.55555556,,,,,,,
,,,,,,,,,,,,,,,,,,,,,,-40.55555556,-37,20,75,-39.55555556,2.555555556,2.555555556,-0.196666667,-0.394444444,1,0,0,0.683,submitButton,8.056666667,0.165555556,-0.277777778,0,0,0,0,114,114,36,1,37,67273,blockT,180,2022-02-09_23h48.07.503,orientation adjustment block,2021.2.3,MacIntel,55.55555556,,,,,,,
,,,,,,,,,,,,,,,,,,,,,,-68.33333333,49,20,75,48.66666667,0.333333333,0.333333333,-0.194444444,-0.413333333,1,0,0,1.384,submitButton,7.98019802,0.267777778,-0.3,0,0,0,0,115,115,48,1,49,67273,blockT,180,2022-02-09_23h48.07.503,orientation adjustment block,2021.2.3,MacIntel,55.55555556,,,,,,,
,,,,,,,,,,,,,,,,,,,,,,-29.44444444,-1,20,75,-3.444444444,2.444444444,2.444444444,0.404444444,-0.323333333,1,0,0,1.268,submitButton,7.925925926,0.044444444,-0.247777778,0,0,0,0,116,116,0,1,1,67273,blockT,180,2022-02-09_23h48.07.503,orientation adjustment block,2021.2.3,MacIntel,55.55555556,,,,,,,
,,,,,,,,,,,,,,,,,,,,,,47.22222222,30,20,75,192.2222222,17.77777778,17.77777778,-0.165555556,-0.411111111,1,0,0,1.782,submitButton,8.021574973,0.187777778,-0.305555556,0,0,0,0,117,117,29,1,30,67273,blockT,180,2022-02-09_23h48.07.503,orientation adjustment block,2021.2.3,MacIntel,55.55555556,,,,,,,
,,,,,,,,,,,,,,,,,,,,,,43.33333333,36,20,75,200.3333333,15.66666667,15.66666667,-0.242222222,-0.405555556,1,0,0,1.951,submitButton,8.09508547,0.201111111,-0.333333333,0,0,0,0,118,118,110,1,36,67273,blockT,180,2022-02-09_23h48.07.503,orientation adjustment block,2021.2.3,MacIntel,55.55555556,,,,,,,
,,,,,,,,,,,,,,,,,,,,,,-73.88888889,-28,20,75,-197.8888889,10.11111111,10.11111111,-0.2,-0.392222222,1,0,0,1.8,submitButton,8.114285714,0.401111111,-0.402222222,1,0,0,0,119,119,27,1,28,67273,blockT,180,2022-02-09_23h48.07.503,orientation adjustment block,2021.2.3,MacIntel,55.55555556,continueButton,,,,,,
,,,,,,,,,,,,,,,,,,,,,,49.44444444,-41,20,75,-54.55555556,13.55555556,13.55555556,-0.314444444,-0.403333333,1,0,0,1.317,submitButton,8.165618449,0.121111111,-0.28,0,0,0,0,120,120,115,1,41,67273,blockT,180,2022-02-09_23h48.07.503,orientation adjustment block,2021.2.3,MacIntel,55.55555556,,,,,,,
,,,,,,,,,,,,,,,,,,,,,,56.11111111,-22,20,75,144.1111111,13.88888889,13.88888889,-0.214444444,-0.385555556,1,0,0,1.467,submitButton,8.219106957,0.142222222,-0.286666667,0,0,0,0,121,121,96,1,22,67273,blockT,180,2022-02-09_23h48.07.503,orientation adjustment block,2021.2.3,MacIntel,55.55555556,,,,,,,
,,,,,,,,,,,,,,,,,,,,,,33.33333333,-41,20,75,-29.66666667,11.33333333,11.33333333,0.404444444,-0.303333333,1,0,0,0.034,submitButton,8.247942387,0.19,-0.324444444,0,0,0,0,122,122,40,1,41,67273,blockT,180,2022-02-09_23h48.07.503,orientation adjustment block,2021.2.3,MacIntel,55.55555556,,,,,,,
,,,,,,,,,,,,,,,,,,,,,,20.55555556,26,20,75,46.55555556,20.55555556,20.55555556,-0.183333333,-0.391111111,1,0,0,0.617,submitButton,8.360856269,0.234444444,-0.292222222,0,0,0,0,123,123,25,1,26,67273,blockT,180,2022-02-09_23h48.07.503,orientation adjustment block,2021.2.3,MacIntel,55.55555556,,,,,,,
,,,,,,,,,,,,,,,,,,,,,,-34.44444444,-48,20,75,-219.4444444,8.555555556,8.555555556,-0.215555556,-0.425555556,1,0,0,2.2,submitButton,8.362626263,0.212222222,-0.307777778,0,0,0,0,124,124,122,1,48,67273,blockT,180,2022-02-09_23h48.07.503,orientation adjustment block,2021.2.3,MacIntel,55.55555556,,,,,,,
,,,,,,,,,,,,,,,,,,,,,,55.55555556,-52,20,75,-56.44444444,4.444444444,4.444444444,-0.246666667,-0.383333333,1,0,0,1.118,submitButton,8.327327327,0.098888889,-0.235555556,0,0,0,0,125,125,126,1,52,67273,blockT,180,2022-02-09_23h48.07.503,orientation adjustment block,2021.2.3,MacIntel,55.55555556,,,,,,,
,,,,,,,,,,,,,,,,,,,,,,-40,-64,20,75,-77,13,13,0.191111111,-0.313333333,1,0,0,0.251,submitButton,8.369047619,0.321111111,-0.193333333,0,0,0,0,126,126,63,1,64,67273,blockT,180,2022-02-09_23h48.07.503,orientation adjustment block,2021.2.3,MacIntel,55.55555556,,,,,,,
,,,,,,,,,,,,,,,,,,,,,,-36.66666667,-14,20,75,-15.66666667,1.666666667,1.666666667,-0.222222222,-0.387777778,1,0,0,0.499,submitButton,8.309734513,0.177777778,-0.341111111,0,0,0,0,127,127,13,1,14,67273,blockT,180,2022-02-09_23h48.07.503,orientation adjustment block,2021.2.3,MacIntel,55.55555556,,,,,,,
,,,,,,,,,,,,,,,,,,,,,,-55,-23,20,75,-25,2,2,-0.21,-0.406666667,1,0,0,1.184,submitButton,8.254385965,0.17,-0.322222222,0,0,0,0,128,128,22,1,23,67273,blockT,180,2022-02-09_23h48.07.503,orientation adjustment block,2021.2.3,MacIntel,55.55555556,,,,,,,
,,,,,,,,,,,,,,,,,,,,,,-25,-72,20,75,-111,39,39,0.194444444,-0.331111111,1,0,0,0.367,submitButton,8.52173913,0.156666667,-0.305555556,0,0,0,0,129,129,71,1,72,67273,blockT,180,2022-02-09_23h48.07.503,orientation adjustment block,2021.2.3,MacIntel,55.55555556,,,,,,,
,,,,,,,,,,,,,,,,,,,,,,-73.33333333,32,20,75,24.66666667,7.333333333,7.333333333,-0.19,-0.412222222,1,0,0,0.751,submitButton,8.511494253,0.142222222,-0.327777778,0,0,0,0,130,130,106,1,32,67273,blockT,180,2022-02-09_23h48.07.503,orientation adjustment block,2021.2.3,MacIntel,55.55555556,,,,,,,
,,,,,,,,,,,,,,,,,,,,,,68.33333333,-50,20,75,-39.66666667,10.33333333,10.33333333,-0.251111111,-0.386666667,1,0,0,1.099,submitButton,8.527065527,0.093333333,-0.334444444,0,0,0,0,131,131,49,1,50,67273,blockT,180,2022-02-09_23h48.07.503,orientation adjustment block,2021.2.3,MacIntel,55.55555556,,,,,,,
,,,,,,,,,,,,,,,,,,,,,,22.22222222,45,20,75,54.22222222,9.222222222,9.222222222,0.381111111,-0.321111111,1,0,0,0.033,submitButton,8.532956685,0.167777778,-0.318888889,0,0,0,0,132,132,119,1,45,67273,blockT,180,2022-02-09_23h48.07.503,orientation adjustment block,2021.2.3,MacIntel,55.55555556,,,,,,,
,,,,,,,,,,,,,,,,,,,,,,72.77777778,54,20,75,222.7777778,11.22222222,11.22222222,-0.211111111,-0.393333333,1,0,0,1.933,submitButton,8.555555556,-0.267777778,-0.458888889,0,0,0,0,133,133,128,1,54,67273,blockT,180,2022-02-09_23h48.07.503,orientation adjustment block,2021.2.3,MacIntel,55.55555556,,,,,,,
,,,,,,,,,,,,,,,,,,,,,,-48.33333333,62,20,75,59.66666667,2.333333333,2.333333333,-0.308888889,-0.431111111,1,0,0,0.782,submitButton,8.503703704,0.38,-0.401111111,1,0,0,0,134,134,136,1,62,67273,blockT,180,2022-02-09_23h48.07.503,orientation adjustment block,2021.2.3,MacIntel,55.55555556,continueButton,,,,,,
,,,,,,,,,,,,,,,,,,,,,,-38.33333333,89,20,75,100.6666667,11.66666667,11.66666667,-0.218888889,-0.375555556,1,0,0,1.7,submitButton,8.529843893,-0.218888889,-0.375555556,0,0,0,0,135,135,88,1,89,67273,blockT,180,2022-02-09_23h48.07.503,orientation adjustment block,2021.2.3,MacIntel,55.55555556,,,,,,,
,,,,,,,,,,,,,,,,,,,,,,47.77777778,19,20,75,23.77777778,4.777777778,4.777777778,0.398888889,-0.28,1,0,0,0.016,submitButton,8.499089253,-0.203333333,-0.422222222,0,0,0,0,136,136,18,1,19,67273,blockT,180,2022-02-09_23h48.07.503,orientation adjustment block,2021.2.3,MacIntel,55.55555556,,,,,,,
,,,,,,,,,,,,,,,,,,,,,,-70.55555556,53,20,75,36.44444444,16.55555556,16.55555556,-0.251111111,-0.406666667,1,0,0,1.1,submitButton,8.564588979,-0.251111111,-0.405555556,0,0,0,0,137,137,127,1,53,67273,blockT,180,2022-02-09_23h48.07.503,orientation adjustment block,2021.2.3,MacIntel,55.55555556,,,,,,,
,,,,,,,,,,,,,,,,,,,,,,34.44444444,60,20,75,59.44444444,0.555555556,0.555555556,0.375555556,-0.278888889,1,0,0,0.117,submitButton,8.5,-0.174444444,-0.388888889,0,0,0,0,138,138,134,1,60,67273,blockT,180,2022-02-09_23h48.07.503,orientation adjustment block,2021.2.3,MacIntel,55.55555556,,,,,,,
,,,,,,,,,,,,,,,,,,,,,,-73.33333333,61,20,75,55.66666667,5.333333333,5.333333333,-0.264444444,-0.398888889,1,0,0,1.684,submitButton,8.474666667,0.185555556,-0.25,0,0,0,0,139,139,135,1,61,67273,blockT,180,2022-02-09_23h48.07.503,orientation adjustment block,2021.2.3,MacIntel,55.55555556,,,,,,,
,,,,,,,,,,,,,,,,,,,,,,-58.88888889,85,20,75,82.11111111,2.888888889,2.888888889,-0.191111111,-0.423333333,1,0,0,1.283,submitButton,8.430335097,-0.185555556,-0.418888889,0,0,0,0,140,140,84,1,85,67273,blockT,180,2022-02-09_23h48.07.503,orientation adjustment block,2021.2.3,MacIntel,55.55555556,,,,,,,
,,,,,,,,,,,,,,,,,,,,,,47.77777778,-36,20,75,-26.22222222,9.777777778,9.777777778,-0.205555556,-0.383333333,1,0,0,1.034,submitButton,8.440944882,-0.205555556,-0.383333333,0,0,0,0,141,141,35,1,36,67273,blockT,180,2022-02-09_23h48.07.503,orientation adjustment block,2021.2.3,MacIntel,55.55555556,,,,,,,
,,,,,,,,,,,,,,,,,,,,,,-34.44444444,48,20,75,68.55555556,20.55555556,20.55555556,-0.141111111,-0.408888889,1,0,0,1.065,submitButton,8.535590278,-0.141111111,-0.407777778,0,0,0,0,142,142,47,1,48,67273,blockT,180,2022-02-09_23h48.07.503,orientation adjustment block,2021.2.3,MacIntel,55.55555556,,,,,,,
,,,,,,,,,,,,,,,,,,,,,,40,18,20,75,15,3,3,-0.126666667,-0.412222222,1,0,0,0.984,submitButton,8.492678725,-0.126666667,-0.41,0,0,0,0,143,143,92,1,18,67273,blockT,180,2022-02-09_23h48.07.503,orientation adjustment block,2021.2.3,MacIntel,55.55555556,,,,,,,
,,,,,,,,,,,,,,,,,,,,,,69.44444444,-77,20,75,-63.55555556,13.44444444,13.44444444,0.37,-0.292222222,1,0,0,0.033,submitButton,8.530769231,0.183333333,-0.28,0,0,0,0,144,144,76,1,77,67273,blockT,180,2022-02-09_23h48.07.503,orientation adjustment block,2021.2.3,MacIntel,55.55555556,,,,,,,
,,,,,,,,,,,,,,,,,,,,,,56.66666667,26,20,75,40.66666667,14.66666667,14.66666667,0.362222222,-0.296666667,1,0,0,0.033,submitButton,8.577608142,0.228888889,-0.271111111,0,0,0,0,145,145,100,1,26,67273,blockT,180,2022-02-09_23h48.07.503,orientation adjustment block,2021.2.3,MacIntel,55.55555556,,,,,,,
,,,,,,,,,,,,,,,,,,,,,,30,-63,20,75,-73,10,10,-0.284444444,-0.425555556,1,0,0,0.934,submitButton,8.588383838,0.126666667,-0.377777778,0,0,0,0,146,146,137,1,63,67273,blockT,180,2022-02-09_23h48.07.503,orientation adjustment block,2021.2.3,MacIntel,55.55555556,,,,,,,
,,,,,,,,,,,,,,,,,,,,,,-35.55555556,32,20,75,24.44444444,7.555555556,7.555555556,-0.19,-0.397777778,1,0,0,0.733,submitButton,8.580618212,-0.02,-0.368888889,0,0,0,0,147,147,31,1,32,67273,blockT,180,2022-02-09_23h48.07.503,orientation adjustment block,2021.2.3,MacIntel,55.55555556,,,,,,,
,,,,,,,,,,,,,,,,,,,,,,-73.88888889,54,20,75,-111.8888889,14.11111111,14.11111111,-0.226666667,-0.4,1,0,0,1.916,submitButton,8.621890547,0.121111111,-0.342222222,0,0,0,0,148,148,53,1,54,67273,blockT,180,2022-02-09_23h48.07.503,orientation adjustment block,2021.2.3,MacIntel,55.55555556,,,,,,,
,,,,,,,,,,,,,,,,,,,,,,75,-53,20,75,104,23,23,-0.216666667,-0.403333333,1,0,0,1.467,submitButton,8.728395062,0.478888889,-0.405555556,1,0,0,0,149,149,52,1,53,67273,blockT,180,2022-02-09_23h48.07.503,orientation adjustment block,2021.2.3,MacIntel,55.55555556,continueButton,,,,,,
,,,,,,,,,,,,,,,,,,,,,,-65,32,20,75,-25,57,,,,,,,,,,,,,,,,,,,,,67273,blockT,180,2022-02-09_23h48.07.503,orientation adjustment block,2021.2.3,MacIntel,55.55555556,,0.477777778,-0.404444444,1,0,0,EndButtonTxt
,,,,,,,,,,,,,,,,,,,,,,-20.55555556,-17,20,75,-13.55555556,3.444444444,,,,,,,,,,,,,,,,,,,,,,,,,,,,,,,,,,,
,,,,,,,,,,,,,,,,,,,,,,-39.44444444,52,20,75,53.55555556,1.555555556,,,,,,,,,,,,,,,,,,,,,,,,,,,,,,,,,,,
,,,,,,,,,,,,,,,,,,,,,,73.88888889,-42,20,75,153.8888889,15.88888889,,,,,,,,,,,,,,,,,,,,,,,,,,,,,,,,,,,
,,,,,,,,,,,,,,,,,,,,,,-62.77777778,-23,20,75,-20.77777778,2.222222222,,,,,,,,,,,,,,,,,,,,,,,,,,,,,,,,,,,
,,,,,,,,,,,,,,,,,,,,,,40,24,20,75,33,9,,,,,,,,,,,,,,,,,,,,,,,,,,,,,,,,,,,
,,,,,,,,,,,,,,,,,,,,,,25.55555556,-20,20,75,-18.44444444,1.555555556,,,,,,,,,,,,,,,,,,,,,,,,,,,,,,,,,,,
,,,,,,,,,,,,,,,,,,,,,,37.22222222,35,20,75,38.22222222,3.222222222,,,,,,,,,,,,,,,,,,,,,,,,,,,,,,,,,,,
,,,,,,,,,,,,,,,,,,,,,,-33.88888889,-72,20,75,-69.88888889,2.111111111,,,,,,,,,,,,,,,,,,,,,,,,,,,,,,,,,,,
,,,,,,,,,,,,,,,,,,,,,,66.11111111,25,20,75,195.1111111,9.888888889,,,,,,,,,,,,,,,,,,,,,,,,,,,,,,,,,,,
,,,,,,,,,,,,,,,,,,,,,,59.44444444,69,20,75,243.4444444,5.555555556,,,,,,,,,,,,,,,,,,,,,,,,,,,,,,,,,,,
,,,,,,,,,,,,,,,,,,,,,,-65,-41,20,75,-35,6,,,,,,,,,,,,,,,,,,,,,,,,,,,,,,,,,,,
,,,,,,,,,,,,,,,,,,,,,,-65,-31,20,75,-33,2,,,,,,,,,,,,,,,,,,,,,,,,,,,,,,,,,,,
,,,,,,,,,,,,,,,,,,,,,,-48.33333333,-50,20,75,-46.33333333,3.666666667,,,,,,,,,,,,,,,,,,,,,,,,,,,,,,,,,,,
,,,,,,,,,,,,,,,,,,,,,,-23.88888889,71,20,75,63.11111111,7.888888889,,,,,,,,,,,,,,,,,,,,,,,,,,,,,,,,,,,
,,,,,,,,,,,,,,,,,,,,,,27.22222222,51,20,75,32.22222222,18.77777778,,,,,,,,,,,,,,,,,,,,,,,,,,,,,,,,,,,
,,,,,,,,,,,,,,,,,,,,,,-71.11111111,-45,20,75,-33.11111111,11.88888889,,,,,,,,,,,,,,,,,,,,,,,,,,,,,,,,,,,
,,,,,,,,,,,,,,,,,,,,,,-33.33333333,-18,20,75,-16.33333333,1.666666667,,,,,,,,,,,,,,,,,,,,,,,,,,,,,,,,,,,
,,,,,,,,,,,,,,,,,,,,,,-21.11111111,49,20,75,50.88888889,1.888888889,,,,,,,,,,,,,,,,,,,,,,,,,,,,,,,,,,,
,,,,,,,,,,,,,,,,,,,,,,-57.22222222,63,20,75,56.77777778,6.222222222,,,,,,,,,,,,,,,,,,,,,,,,,,,,,,,,,,,
,,,,,,,,,,,,,,,,,,,,,,-70,-66,20,75,-251,5,,,,,,,,,,,,,,,,,,,,,,,,,,,,,,,,,,,
,,,,,,,,,,,,,,,,,,,,,,-56.11111111,-67,20,75,-65.11111111,1.888888889,,,,,,,,,,,,,,,,,,,,,,,,,,,,,,,,,,,
,,,,,,,,,,,,,,,,,,,,,,72.77777778,-53,20,75,120.7777778,6.222222222,,,,,,,,,,,,,,,,,,,,,,,,,,,,,,,,,,,
,,,,,,,,,,,,,,,,,,,,,,61.66666667,60,20,75,57.66666667,2.333333333,,,,,,,,,,,,,,,,,,,,,,,,,,,,,,,,,,,
,,,,,,,,,,,,,,,,,,,,,,33.88888889,-58,20,75,-51.11111111,6.888888889,,,,,,,,,,,,,,,,,,,,,,,,,,,,,,,,,,,
,,,,,,,,,,,,,,,,,,,,,,45,-38,20,75,-25,13,,,,,,,,,,,,,,,,,,,,,,,,,,,,,,,,,,,
,,,,,,,,,,,,,,,,,,,,,,-60.55555556,59,20,75,57.44444444,1.555555556,,,,,,,,,,,,,,,,,,,,,,,,,,,,,,,,,,,
,,,,,,,,,,,,,,,,,,,,,,51.11111111,28,20,75,197.1111111,10.88888889,,,,,,,,,,,,,,,,,,,,,,,,,,,,,,,,,,,
,,,,,,,,,,,,,,,,,,,,,,29.44444444,21,20,75,21.44444444,0.444444444,,,,,,,,,,,,,,,,,,,,,,,,,,,,,,,,,,,
,,,,,,,,,,,,,,,,,,,,,,-65.55555556,22,20,75,17.44444444,4.555555556,,,,,,,,,,,,,,,,,,,,,,,,,,,,,,,,,,,
