consentMouse1.x,consentMouse1.y,consentMouse1.leftButton,consentMouse1.midButton,consentMouse1.rightButton,consentMouse1.clicked_name,consent_Mouse.x,consent_Mouse.y,consent_Mouse.leftButton,consent_Mouse.midButton,consent_Mouse.rightButton,consent_Mouse.clicked_name,startMouse.x,startMouse.y,startMouse.leftButton,startMouse.midButton,startMouse.rightButton,startMouse_2.x,startMouse_2.y,startMouse_2.leftButton,startMouse_2.midButton,startMouse_2.rightButton,start_distance,fixedOri,minimalDistance,maxOri,this_ori,accuracy,presented_accuracy,submitMouse.x,submitMouse.y,submitMouse.leftButton,submitMouse.midButton,submitMouse.rightButton,submitMouse.time,submitMouse.clicked_name,block_accuracy,continueMouse.x,continueMouse.y,continueMouse.leftButton,continueMouse.midButton,continueMouse.rightButton,trials.thisRepN,trials.thisTrialN,trials.thisN,trials.thisIndex,trials.ran,startOri,participant,condition,nTrials,date,expName,psychopyVersion,OS,frameRate,continueMouse.clicked_name,EndButtonMouse.x,EndButtonMouse.y,EndButtonMouse.leftButton,EndButtonMouse.midButton,EndButtonMouse.rightButton,EndButtonMouse.clicked_name
0.343051215,-0.398172743,1,0,0,consent_button1,0.354084201,-0.402443576,1,0,0,consent_button,0.354084201,-0.402443576,1,0,0,0.354084201,-0.404045139,1,0,0,50.55555556,28,20,75,78.55555556,50.55555556,50.55555556,-0.262374132,-0.419040799,1,0,0,7.9312,submitButton,50.55555556,-0.262374132,-0.419822049,0,0,0,0,0,0,12,1,28,67360,blockT,180,2022-02-16_21h28.43.630,orientation adjustment block,2021.2.3,MacIntel,60.0024001,,,,,,,
,,,,,,,,,,,,,,,,,,,,,,-53.33333333,49,20,75,-4.333333333,53.33333333,53.33333333,-0.262374132,-0.419822049,1,0,0,1.6003,submitButton,51.94444444,-0.249097222,-0.406671007,0,0,0,0,1,1,33,1,49,67360,blockT,180,2022-02-16_21h28.43.630,orientation adjustment block,2021.2.3,MacIntel,60.0024001,,,,,,,
,,,,,,,,,,,,,,,,,,,,,,-42.22222222,-57,20,75,-99.22222222,42.22222222,42.22222222,-0.239574653,-0.398394097,1,0,0,1.0663,submitButton,48.7037037,-0.239574653,-0.398394097,0,0,0,0,2,2,41,1,57,67360,blockT,180,2022-02-16_21h28.43.630,orientation adjustment block,2021.2.3,MacIntel,60.0024001,,,,,,,
,,,,,,,,,,,,,,,,,,,,,,-53.88888889,-16,20,75,-69.88888889,53.88888889,53.88888889,-0.239574653,-0.398394097,1,0,0,0.7827,submitButton,53.88888889,-0.238164062,-0.390737847,0,0,0,0,3,3,0,1,16,67360,blockT,180,2022-02-16_21h28.43.630,orientation adjustment block,2021.2.3,MacIntel,60.0024001,,,,,,,
,,,,,,,,,,,,,,,,,,,,,,33.33333333,35,20,75,68.33333333,33.33333333,33.33333333,-0.238164062,-0.390737847,1,0,0,0.7828,submitButton,43.61111111,-0.238164062,-0.390737847,0,0,0,0,4,4,19,1,35,67360,blockT,180,2022-02-16_21h28.43.630,orientation adjustment block,2021.2.3,MacIntel,60.0024001,,,,,,,
,,,,,,,,,,,,,,,,,,,,,,-41.11111111,37,20,75,-4.111111111,41.11111111,41.11111111,-0.238164062,-0.390737847,1,0,0,3.4829,submitButton,42.77777778,-0.238164062,-0.390737847,0,0,0,0,5,5,21,1,37,67360,blockT,180,2022-02-16_21h28.43.630,orientation adjustment block,2021.2.3,MacIntel,60.0024001,,,,,,,
,,,,,,,,,,,,,,,,,,,,,,-23.88888889,55,20,75,31.11111111,23.88888889,23.88888889,-0.212217882,-0.386866319,1,0,0,1.316,submitButton,23.88888889,-0.212217882,-0.381054687,0,0,0,0,6,6,39,1,55,67360,blockT,180,2022-02-16_21h28.43.630,orientation adjustment block,2021.2.3,MacIntel,60.0024001,,,,,,,
,,,,,,,,,,,,,,,,,,,,,,72.22222222,-32,20,75,40.22222222,72.22222222,72.22222222,-0.212217882,-0.381054687,1,0,0,0.615,submitButton,48.05555556,-0.212217882,-0.381054687,0,0,0,0,7,7,16,1,32,67360,blockT,180,2022-02-16_21h28.43.630,orientation adjustment block,2021.2.3,MacIntel,60.0024001,,,,,,,
,,,,,,,,,,,,,,,,,,,,,,52.77777778,65,20,75,117.7777778,52.77777778,52.77777778,-0.217361111,-0.381480035,1,0,0,0.4988,submitButton,49.62962963,-0.215759549,-0.38203559,0,0,0,0,8,8,49,1,65,67360,blockT,180,2022-02-16_21h28.43.630,orientation adjustment block,2021.2.3,MacIntel,60.0024001,,,,,,,
,,,,,,,,,,,,,,,,,,,,,,-20,-63,20,75,-83,20,20,-0.179830729,-0.363294271,1,0,0,1.2498,submitButton,20,-0.228463542,-0.424548611,0,0,0,0,9,9,47,1,63,67360,blockT,180,2022-02-16_21h28.43.630,orientation adjustment block,2021.2.3,MacIntel,60.0024001,,,,,,,
,,,,,,,,,,,,,,,,,,,,,,-57.77777778,70,20,75,83.22222222,13.22222222,13.22222222,0.239631076,-0.311388889,1,0,0,0.3504,submitButton,16.61111111,-0.338355035,-0.401953125,0,0,0,0,10,10,54,1,70,67360,blockT,180,2022-02-16_21h28.43.630,orientation adjustment block,2021.2.3,MacIntel,60.0024001,,,,,,,
,,,,,,,,,,,,,,,,,,,,,,39.44444444,-54,20,75,-46.55555556,7.444444444,7.444444444,0.386453993,-0.291853299,1,0,0,0.0162,submitButton,13.55555556,-0.365264757,-0.403263889,0,0,0,0,11,11,38,1,54,67360,blockT,180,2022-02-16_21h28.43.630,orientation adjustment block,2021.2.3,MacIntel,60.0024001,,,,,,,
,,,,,,,,,,,,,,,,,,,,,,-36.66666667,-18,20,75,-37.66666667,19.66666667,19.66666667,0.167847222,-0.278932292,1,0,0,0.2007,submitButton,19.66666667,-0.260334201,-0.404778646,0,0,0,0,12,12,2,1,18,67360,blockT,180,2022-02-16_21h28.43.630,orientation adjustment block,2021.2.3,MacIntel,60.0024001,,,,,,,
,,,,,,,,,,,,,,,,,,,,,,-36.66666667,53,20,75,42.33333333,10.66666667,10.66666667,0.202699653,-0.312934028,1,0,0,0.0332,submitButton,15.16666667,-0.343237847,-0.424457465,0,0,0,0,13,13,37,1,53,67360,blockT,180,2022-02-16_21h28.43.630,orientation adjustment block,2021.2.3,MacIntel,60.0024001,,,,,,,
,,,,,,,,,,,,,,,,,,,,,,60,67,20,75,231,16,16,0.235989583,-0.281514757,1,0,0,0.5001,submitButton,15.44444444,0.319266493,-0.420338542,1,0,0,0,14,14,51,1,67,67360,blockT,180,2022-02-16_21h28.43.630,orientation adjustment block,2021.2.3,MacIntel,60.0024001,continueButton,,,,,,
,,,,,,,,,,,,,,,,,,,,,,61.66666667,-25,20,75,-38.33333333,13.33333333,13.33333333,-0.197821181,-0.377573785,1,0,0,2.4498,submitButton,13.33333333,-0.198376736,-0.378684896,0,0,0,0,15,15,9,1,25,67360,blockT,180,2022-02-16_21h28.43.630,orientation adjustment block,2021.2.3,MacIntel,60.0024001,,,,,,,
,,,,,,,,,,,,,,,,,,,,,,-30.55555556,-72,20,75,-245.5555556,6.444444444,6.444444444,0.379748264,-0.319331597,1,0,0,2.517,submitButton,9.888888889,-0.209717882,-0.387717014,0,0,0,0,16,16,56,1,72,67360,blockT,180,2022-02-16_21h28.43.630,orientation adjustment block,2021.2.3,MacIntel,60.0024001,,,,,,,
,,,,,,,,,,,,,,,,,,,,,,-21.66666667,-69,20,75,-260.6666667,11.66666667,11.66666667,0.413676215,-0.315381944,1,0,0,2.9333,submitButton,10.48148148,-0.386397569,-0.405503472,0,0,0,0,17,17,53,1,69,67360,blockT,180,2022-02-16_21h28.43.630,orientation adjustment block,2021.2.3,MacIntel,60.0024001,,,,,,,
,,,,,,,,,,,,,,,,,,,,,,75,-20,20,75,-37,17,17,0.36765191,-0.286345486,1,0,0,0.267,submitButton,12.11111111,-0.348680556,-0.421354167,0,0,0,0,18,18,4,1,20,67360,blockT,180,2022-02-16_21h28.43.630,orientation adjustment block,2021.2.3,MacIntel,60.0024001,,,,,,,
,,,,,,,,,,,,,,,,,,,,,,28.33333333,22,20,75,-43.66666667,65.66666667,65.66666667,0.217048611,-0.300598958,1,0,0,0.5337,submitButton,22.82222222,-0.208059896,-0.371223958,0,0,0,0,19,19,6,1,22,67360,blockT,180,2022-02-16_21h28.43.630,orientation adjustment block,2021.2.3,MacIntel,60.0024001,,,,,,,
,,,,,,,,,,,,,,,,,,,,,,22.22222222,75,20,75,227.2222222,27.77777778,27.77777778,0.178637153,-0.290811632,1,0,0,0.9168,submitButton,23.64814815,-0.211219618,-0.386050347,0,0,0,0,20,20,59,1,75,67360,blockT,180,2022-02-16_21h28.43.630,orientation adjustment block,2021.2.3,MacIntel,60.0024001,,,,,,,
,,,,,,,,,,,,,,,,,,,,,,-29.44444444,-60,20,75,-250.4444444,10.44444444,10.44444444,0.4009375,-0.291302083,1,0,0,2.7334,submitButton,21.76190476,-0.217426215,-0.3953125,0,0,0,0,21,21,44,1,60,67360,blockT,180,2022-02-16_21h28.43.630,orientation adjustment block,2021.2.3,MacIntel,60.0024001,,,,,,,
,,,,,,,,,,,,,,,,,,,,,,66.66666667,50,20,75,224.6666667,5.333333333,5.333333333,0.176575521,-0.276649306,1,0,0,0.0826,submitButton,19.70833333,-0.426206597,-0.432821181,0,0,0,0,22,22,34,1,50,67360,blockT,180,2022-02-16_21h28.43.630,orientation adjustment block,2021.2.3,MacIntel,60.0024001,,,,,,,
,,,,,,,,,,,,,,,,,,,,,,40,59,20,75,233,6,6,0.203888889,-0.299036458,1,0,0,0.1161,submitButton,18.18518519,-0.341675347,-0.395694444,0,0,0,0,23,23,43,1,59,67360,blockT,180,2022-02-16_21h28.43.630,orientation adjustment block,2021.2.3,MacIntel,60.0024001,,,,,,,
,,,,,,,,,,,,,,,,,,,,,,-48.88888889,30,20,75,45.11111111,15.11111111,15.11111111,0.193572049,-0.285603299,1,0,0,0.1328,submitButton,17.87777778,-0.184652778,-0.395221354,0,0,0,0,24,24,14,1,30,67360,blockT,180,2022-02-16_21h28.43.630,orientation adjustment block,2021.2.3,MacIntel,60.0024001,,,,,,,
,,,,,,,,,,,,,,,,,,,,,,72.77777778,-61,20,75,-44.22222222,16.77777778,16.77777778,-0.316749132,-0.404544271,1,0,0,1.35,submitButton,17.77777778,-0.316749132,-0.404544271,0,0,0,0,25,25,45,1,61,67360,blockT,180,2022-02-16_21h28.43.630,orientation adjustment block,2021.2.3,MacIntel,60.0024001,,,,,,,
,,,,,,,,,,,,,,,,,,,,,,-58.88888889,56,20,75,-2.888888889,58.88888889,58.88888889,-0.194314236,-0.374253472,1,0,0,1.6829,submitButton,21.2037037,0.289474826,-0.499188368,0,0,0,0,26,26,40,1,56,67360,blockT,180,2022-02-16_21h28.43.630,orientation adjustment block,2021.2.3,MacIntel,60.0024001,,,,,,,
,,,,,,,,,,,,,,,,,,,,,,-38.88888889,-43,20,75,-242.8888889,19.88888889,19.88888889,0.190342882,-0.304887153,1,0,0,3.149,submitButton,21.1025641,-0.340173611,-0.420807292,0,0,0,0,27,27,27,1,43,67360,blockT,180,2022-02-16_21h28.43.630,orientation adjustment block,2021.2.3,MacIntel,60.0024001,,,,,,,
,,,,,,,,,,,,,,,,,,,,,,20,-39,20,75,-26,13,13,0.388224826,-0.317005208,1,0,0,0.3175,submitButton,20.52380952,-0.184513889,-0.42405816,0,0,0,0,28,28,23,1,39,67360,blockT,180,2022-02-16_21h28.43.630,orientation adjustment block,2021.2.3,MacIntel,60.0024001,,,,,,,
,,,,,,,,,,,,,,,,,,,,,,35,-58,20,75,-60,2,2,0.343098958,-0.284830729,1,0,0,0.0661,submitButton,19.28888889,0.399778646,-0.394249132,1,0,0,0,29,29,42,1,58,67360,blockT,180,2022-02-16_21h28.43.630,orientation adjustment block,2021.2.3,MacIntel,60.0024001,continueButton,,,,,,
,,,,,,,,,,,,,,,,,,,,,,-25,-47,20,75,-53,6,6,0.24796441,-0.293602431,1,0,0,0.1498,submitButton,18.45833333,-0.274605035,-0.393888889,0,0,0,0,30,30,31,1,47,67360,blockT,180,2022-02-16_21h28.43.630,orientation adjustment block,2021.2.3,MacIntel,60.0024001,,,,,,,
,,,,,,,,,,,,,,,,,,,,,,-37.77777778,45,20,75,40.22222222,4.777777778,4.777777778,0.216158854,-0.275347222,1,0,0,0.6838,submitButton,17.65359477,-0.246775174,-0.411271701,0,0,0,0,31,31,29,1,45,67360,blockT,180,2022-02-16_21h28.43.630,orientation adjustment block,2021.2.3,MacIntel,60.0024001,,,,,,,
,,,,,,,,,,,,,,,,,,,,,,-28.88888889,-38,20,75,-66.88888889,28.88888889,28.88888889,-0.317217882,-0.39249566,1,0,0,16.8158,submitButton,18.27777778,0.129518229,-0.38546441,0,0,0,0,32,32,22,1,38,67360,blockT,180,2022-02-16_21h28.43.630,orientation adjustment block,2021.2.3,MacIntel,60.0024001,,,,,,,
,,,,,,,,,,,,,,,,,,,,,,-67.77777778,-68,20,75,-230.7777778,17.22222222,17.22222222,0.399826389,-0.294756944,1,0,0,0.3667,submitButton,18.22222222,0.47218316,-0.400703125,0,0,0,0,33,33,52,1,68,67360,blockT,180,2022-02-16_21h28.43.630,orientation adjustment block,2021.2.3,MacIntel,60.0024001,,,,,,,
,,,,,,,,,,,,,,,,,,,,,,70,29,20,75,213,4,4,-0.249492187,-0.396297743,1,0,0,2.0831,submitButton,17.51111111,0.225039062,-0.349856771,0,0,0,0,34,34,13,1,29,67360,blockT,180,2022-02-16_21h28.43.630,orientation adjustment block,2021.2.3,MacIntel,60.0024001,,,,,,,
,,,,,,,,,,,,,,,,,,,,,,-40.55555556,-51,20,75,-239.5555556,8.555555556,8.555555556,0.379162326,-0.314648437,1,0,0,0.0167,submitButton,17.08465608,-0.331111111,-0.401701389,0,0,0,0,35,35,35,1,51,67360,blockT,180,2022-02-16_21h28.43.630,orientation adjustment block,2021.2.3,MacIntel,60.0024001,,,,,,,
,,,,,,,,,,,,,,,,,,,,,,-36.11111111,-26,20,75,-32.11111111,6.111111111,6.111111111,0.402174479,-0.29078559,1,0,0,1.2665,submitButton,16.58585859,0.641141493,-0.058359375,0,0,0,0,36,36,10,1,26,67360,blockT,180,2022-02-16_21h28.43.630,orientation adjustment block,2021.2.3,MacIntel,60.0024001,,,,,,,
,,,,,,,,,,,,,,,,,,,,,,52.77777778,71,20,75,79.77777778,8.777777778,8.777777778,0.34656684,-0.322877604,1,0,0,1.0004,submitButton,16.24637681,-0.23405816,-0.420855035,0,0,0,0,37,37,55,1,71,67360,blockT,180,2022-02-16_21h28.43.630,orientation adjustment block,2021.2.3,MacIntel,60.0024001,,,,,,,
,,,,,,,,,,,,,,,,,,,,,,23.88888889,-48,20,75,-24.11111111,23.88888889,23.88888889,-0.331453993,-0.344301215,1,0,0,0.3164,submitButton,16.56481481,-0.30874566,-0.373615451,0,0,0,0,38,38,32,1,48,67360,blockT,180,2022-02-16_21h28.43.630,orientation adjustment block,2021.2.3,MacIntel,60.0024001,,,,,,,
,,,,,,,,,,,,,,,,,,,,,,-57.22222222,-66,20,75,-256.2222222,10.22222222,10.22222222,0.415638021,-0.299891493,1,0,0,0.3991,submitButton,16.31111111,-0.3728125,-0.427907986,0,0,0,0,39,39,50,1,66,67360,blockT,180,2022-02-16_21h28.43.630,orientation adjustment block,2021.2.3,MacIntel,60.0024001,,,,,,,
,,,,,,,,,,,,,,,,,,,,,,24.44444444,33,20,75,47.44444444,14.44444444,14.44444444,0.429626736,-0.300907118,1,0,0,0.0991,submitButton,16.23931624,-0.53640625,-0.406649306,0,0,0,0,40,40,17,1,33,67360,blockT,180,2022-02-16_21h28.43.630,orientation adjustment block,2021.2.3,MacIntel,60.0024001,,,,,,,
,,,,,,,,,,,,,,,,,,,,,,61.11111111,21,20,75,56.11111111,35.11111111,35.11111111,0.435742187,-0.308368056,1,0,0,0.0496,submitButton,16.9382716,0.113103299,-0.383997396,0,0,0,0,41,41,5,1,21,67360,blockT,180,2022-02-16_21h28.43.630,orientation adjustment block,2021.2.3,MacIntel,60.0024001,,,,,,,
,,,,,,,,,,,,,,,,,,,,,,37.77777778,46,20,75,68.77777778,22.77777778,22.77777778,0.385143229,-0.28671875,1,0,0,0.1335,submitButton,17.1468254,-0.321427951,-0.406072049,0,0,0,0,42,42,30,1,46,67360,blockT,180,2022-02-16_21h28.43.630,orientation adjustment block,2021.2.3,MacIntel,60.0024001,,,,,,,
,,,,,,,,,,,,,,,,,,,,,,70,74,20,75,144,70,70,-0.155928819,-0.408867188,1,0,0,1.7827,submitButton,18.96934866,0.343259549,-0.273498264,0,0,0,0,43,43,58,1,74,67360,blockT,180,2022-02-16_21h28.43.630,orientation adjustment block,2021.2.3,MacIntel,60.0024001,,,,,,,
,,,,,,,,,,,,,,,,,,,,,,-53.88888889,27,20,75,28.11111111,1.111111111,1.111111111,0.212829861,-0.283862847,1,0,0,0.0669,submitButton,18.37407407,0.363407118,-0.408342014,1,0,0,0,44,44,11,1,27,67360,blockT,180,2022-02-16_21h28.43.630,orientation adjustment block,2021.2.3,MacIntel,60.0024001,continueButton,,,,,,
,,,,,,,,,,,,,,,,,,,,,,-65.55555556,-34,20,75,-220.5555556,6.555555556,6.555555556,-0.29171875,-0.450377604,1,0,0,2.3999,submitButton,17.99283154,0.472825521,-0.372534722,0,0,0,0,45,45,18,1,34,67360,blockT,180,2022-02-16_21h28.43.630,orientation adjustment block,2021.2.3,MacIntel,60.0024001,,,,,,,
,,,,,,,,,,,,,,,,,,,,,,68.33333333,-40,20,75,-38.66666667,1.333333333,1.333333333,-0.392547743,-0.400212674,1,0,0,2.033,submitButton,17.47222222,0.08078125,-0.314835069,0,0,0,0,46,46,24,1,40,67360,blockT,180,2022-02-16_21h28.43.630,orientation adjustment block,2021.2.3,MacIntel,60.0024001,,,,,,,
,,,,,,,,,,,,,,,,,,,,,,41.66666667,-64,20,75,-42.33333333,21.66666667,21.66666667,0.381480035,-0.302100694,1,0,0,0.3002,submitButton,17.5993266,-0.323658854,-0.414722222,0,0,0,0,47,47,48,1,64,67360,blockT,180,2022-02-16_21h28.43.630,orientation adjustment block,2021.2.3,MacIntel,60.0024001,,,,,,,
,,,,,,,,,,,,,,,,,,,,,,54.44444444,24,20,75,52.44444444,28.44444444,28.44444444,0.376171875,-0.254787326,1,0,0,0.4335,submitButton,17.91830065,-0.061176215,-0.382604167,0,0,0,0,48,48,8,1,24,67360,blockT,180,2022-02-16_21h28.43.630,orientation adjustment block,2021.2.3,MacIntel,60.0024001,,,,,,,
,,,,,,,,,,,,,,,,,,,,,,-66.66666667,44,20,75,30.33333333,13.66666667,13.66666667,0.204639757,-0.267300347,1,0,0,0.834,submitButton,17.7968254,-0.165247396,-0.406124132,0,0,0,0,49,49,28,1,44,67360,blockT,180,2022-02-16_21h28.43.630,orientation adjustment block,2021.2.3,MacIntel,60.0024001,,,,,,,
,,,,,,,,,,,,,,,,,,,,,,-44.44444444,41,20,75,25.55555556,15.44444444,15.44444444,-0.251731771,-0.372825521,1,0,0,6.2826,submitButton,17.73148148,-0.253177083,-0.372825521,0,0,0,0,50,50,25,1,41,67360,blockT,180,2022-02-16_21h28.43.630,orientation adjustment block,2021.2.3,MacIntel,60.0024001,,,,,,,
,,,,,,,,,,,,,,,,,,,,,,-68.88888889,-17,20,75,-31.88888889,14.88888889,14.88888889,0.210030382,-0.312929687,1,0,0,0.217,submitButton,17.65465465,-0.420394965,-0.384123264,0,0,0,0,51,51,1,1,17,67360,blockT,180,2022-02-16_21h28.43.630,orientation adjustment block,2021.2.3,MacIntel,60.0024001,,,,,,,
,,,,,,,,,,,,,,,,,,,,,,-40,73,20,75,61,12,12,0.167118056,-0.321276042,1,0,0,0.1165,submitButton,17.50584795,-0.268519965,-0.400082465,0,0,0,0,52,52,57,1,73,67360,blockT,180,2022-02-16_21h28.43.630,orientation adjustment block,2021.2.3,MacIntel,60.0024001,,,,,,,
,,,,,,,,,,,,,,,,,,,,,,-27.22222222,-31,20,75,13.77777778,44.77777778,44.77777778,0.192369792,-0.318472222,1,0,0,0.5995,submitButton,18.20512821,0.209908854,-0.211080729,0,0,0,0,53,53,15,1,31,67360,blockT,180,2022-02-16_21h28.43.630,orientation adjustment block,2021.2.3,MacIntel,60.0024001,,,,,,,
,,,,,,,,,,,,,,,,,,,,,,-34.44444444,-52,20,75,-55.44444444,3.444444444,3.444444444,0.198159722,-0.300946181,1,0,0,0.1173,submitButton,17.83611111,0.259804688,-0.302417535,0,0,0,0,54,54,36,1,52,67360,blockT,180,2022-02-16_21h28.43.630,orientation adjustment block,2021.2.3,MacIntel,60.0024001,,,,,,,
,,,,,,,,,,,,,,,,,,,,,,-37.22222222,-36,20,75,-53.22222222,17.22222222,17.22222222,0.050013021,-0.305972222,1,0,0,0.6173,submitButton,17.82113821,0.417569444,-0.18405816,0,0,0,0,55,55,20,1,36,67360,blockT,180,2022-02-16_21h28.43.630,orientation adjustment block,2021.2.3,MacIntel,60.0024001,,,,,,,
,,,,,,,,,,,,,,,,,,,,,,40,19,20,75,41,22,22,0.427296007,-0.282087674,1,0,0,0.2826,submitButton,17.92063492,-0.250607639,-0.414401042,0,0,0,0,56,56,3,1,19,67360,blockT,180,2022-02-16_21h28.43.630,orientation adjustment block,2021.2.3,MacIntel,60.0024001,,,,,,,
,,,,,,,,,,,,,,,,,,,,,,-25,-23,20,75,-39,16,16,0.170091146,-0.271067708,1,0,0,0.5,submitButton,17.87596899,-0.303624132,-0.413784722,0,0,0,0,57,57,7,1,23,67360,blockT,180,2022-02-16_21h28.43.630,orientation adjustment block,2021.2.3,MacIntel,60.0024001,,,,,,,
,,,,,,,,,,,,,,,,,,,,,,65.55555556,62,20,75,231.5555556,10.44444444,10.44444444,0.216319444,-0.306605903,1,0,0,0.1007,submitButton,17.70707071,-0.240963542,-0.416006944,0,0,0,0,58,58,46,1,62,67360,blockT,180,2022-02-16_21h28.43.630,orientation adjustment block,2021.2.3,MacIntel,60.0024001,,,,,,,
,,,,,,,,,,,,,,,,,,,,,,-68.88888889,42,20,75,41.11111111,0.888888889,0.888888889,0.217491319,-0.274622396,1,0,0,0.033,submitButton,17.33333333,0.298537326,-0.377300347,1,0,0,0,59,59,26,1,42,67360,blockT,180,2022-02-16_21h28.43.630,orientation adjustment block,2021.2.3,MacIntel,60.0024001,continueButton,,,,,,
,,,,,,,,,,,,,,,,,,,,,,46.66666667,-28,20,75,18.66666667,46.66666667,46.66666667,-0.197213542,-0.409900174,1,0,0,1.7667,submitButton,17.97101449,0.115373264,-0.304631076,0,0,0,1,0,60,12,1,28,67360,blockT,180,2022-02-16_21h28.43.630,orientation adjustment block,2021.2.3,MacIntel,60.0024001,,,,,,,
,,,,,,,,,,,,,,,,,,,,,,-39.44444444,-73,20,75,-236.4444444,16.55555556,16.55555556,0.438815104,-0.270073785,1,0,0,0.4833,submitButton,17.94089835,-0.366349826,-0.400642361,0,0,0,1,1,61,57,1,73,67360,blockT,180,2022-02-16_21h28.43.630,orientation adjustment block,2021.2.3,MacIntel,60.0024001,,,,,,,
,,,,,,,,,,,,,,,,,,,,,,-47.22222222,-39,20,75,-60.22222222,21.22222222,21.22222222,0.167855903,-0.288077257,1,0,0,0.1509,submitButton,18.00925926,-0.349852431,-0.384383681,0,0,0,1,2,62,23,1,39,67360,blockT,180,2022-02-16_21h28.43.630,orientation adjustment block,2021.2.3,MacIntel,60.0024001,,,,,,,
,,,,,,,,,,,,,,,,,,,,,,-23.88888889,-43,20,75,-55.88888889,12.88888889,12.88888889,0.180243056,-0.305564236,1,0,0,0.1347,submitButton,17.9047619,0.076167535,-0.228450521,0,0,0,1,3,63,27,1,43,67360,blockT,180,2022-02-16_21h28.43.630,orientation adjustment block,2021.2.3,MacIntel,60.0024001,,,,,,,
,,,,,,,,,,,,,,,,,,,,,,21.66666667,20,20,75,41.66666667,21.66666667,21.66666667,-0.239171007,-0.358459201,1,0,0,0.5169,submitButton,17.98,-0.2278125,-0.398585069,0,0,0,1,4,64,4,1,20,67360,blockT,180,2022-02-16_21h28.43.630,orientation adjustment block,2021.2.3,MacIntel,60.0024001,,,,,,,
,,,,,,,,,,,,,,,,,,,,,,54.44444444,33,20,75,204.4444444,8.555555556,8.555555556,0.121440972,-0.283394097,1,0,0,0.7499,submitButton,17.79520697,-0.27952691,-0.417387153,0,0,0,1,5,65,17,1,33,67360,blockT,180,2022-02-16_21h28.43.630,orientation adjustment block,2021.2.3,MacIntel,60.0024001,,,,,,,
,,,,,,,,,,,,,,,,,,,,,,66.11111111,26,20,75,41.11111111,15.11111111,15.11111111,0.415069444,-0.288832465,1,0,0,0.7837,submitButton,17.74358974,-0.470894097,-0.40875434,0,0,0,1,6,66,10,1,26,67360,blockT,180,2022-02-16_21h28.43.630,orientation adjustment block,2021.2.3,MacIntel,60.0024001,,,,,,,
,,,,,,,,,,,,,,,,,,,,,,-56.11111111,61,20,75,50.88888889,10.11111111,10.11111111,0.174110243,-0.315590278,1,0,0,0.4332,submitButton,17.59958071,-0.287261285,-0.412443576,0,0,0,1,7,67,45,1,61,67360,blockT,180,2022-02-16_21h28.43.630,orientation adjustment block,2021.2.3,MacIntel,60.0024001,,,,,,,
,,,,,,,,,,,,,,,,,,,,,,73.88888889,-70,20,75,-57.11111111,12.88888889,12.88888889,0.32858941,-0.375086806,1,0,0,0.2002,submitButton,17.51234568,-0.309830729,-0.418697917,0,0,0,1,8,68,54,1,70,67360,blockT,180,2022-02-16_21h28.43.630,orientation adjustment block,2021.2.3,MacIntel,60.0024001,,,,,,,
,,,,,,,,,,,,,,,,,,,,,,-68.33333333,35,20,75,29.66666667,5.333333333,5.333333333,-0.300789931,-0.376024306,1,0,0,1.6155,submitButton,17.29090909,-0.301345486,-0.376024306,0,0,0,1,9,69,19,1,35,67360,blockT,180,2022-02-16_21h28.43.630,orientation adjustment block,2021.2.3,MacIntel,60.0024001,,,,,,,
,,,,,,,,,,,,,,,,,,,,,,36.11111111,45,20,75,56.11111111,11.11111111,11.11111111,0.432269965,-0.292521701,1,0,0,0.2999,submitButton,17.18055556,0.079418403,-0.259444444,0,0,0,1,10,70,29,1,45,67360,blockT,180,2022-02-16_21h28.43.630,orientation adjustment block,2021.2.3,MacIntel,60.0024001,,,,,,,
,,,,,,,,,,,,,,,,,,,,,,60,-64,20,75,-47,17,17,0.410976562,-0.275451389,1,0,0,0.6673,submitButton,17.17738791,-0.297934028,-0.376970486,0,0,0,1,11,71,48,1,64,67360,blockT,180,2022-02-16_21h28.43.630,orientation adjustment block,2021.2.3,MacIntel,60.0024001,,,,,,,
,,,,,,,,,,,,,,,,,,,,,,-62.77777778,-67,20,75,-251.7777778,4.777777778,4.777777778,0.369344618,-0.332543403,1,0,0,0.4004,submitButton,16.96360153,-0.231380208,-0.403164062,0,0,0,1,12,72,51,1,67,67360,blockT,180,2022-02-16_21h28.43.630,orientation adjustment block,2021.2.3,MacIntel,60.0024001,,,,,,,
,,,,,,,,,,,,,,,,,,,,,,26.11111111,63,20,75,60.11111111,2.888888889,2.888888889,0.394522569,-0.30437066,1,0,0,0.4341,submitButton,16.72504708,-0.322135417,-0.378528646,0,0,0,1,13,73,47,1,63,67360,blockT,180,2022-02-16_21h28.43.630,orientation adjustment block,2021.2.3,MacIntel,60.0024001,,,,,,,
,,,,,,,,,,,,,,,,,,,,,,-40.55555556,-46,20,75,-48.55555556,2.555555556,2.555555556,0.235125868,-0.278194444,1,0,0,0.2829,submitButton,16.48888889,0.500820313,-0.385959201,1,0,0,1,14,74,30,1,46,67360,blockT,180,2022-02-16_21h28.43.630,orientation adjustment block,2021.2.3,MacIntel,60.0024001,continueButton,,,,,,
,,,,,,,,,,,,,,,,,,,,,,43.88888889,-27,20,75,16.88888889,43.88888889,43.88888889,-0.215585937,-0.422126736,1,0,0,2.2162,submitButton,16.93806922,0.024457465,-0.358294271,0,0,0,1,15,75,11,1,27,67360,blockT,180,2022-02-16_21h28.43.630,orientation adjustment block,2021.2.3,MacIntel,60.0024001,,,,,,,
,,,,,,,,,,,,,,,,,,,,,,-63.33333333,68,20,75,38.66666667,29.33333333,29.33333333,-0.27203125,-0.392291667,1,0,0,1.4161,submitButton,17.13799283,-0.272586806,-0.392291667,0,0,0,1,16,76,52,1,68,67360,blockT,180,2022-02-16_21h28.43.630,orientation adjustment block,2021.2.3,MacIntel,60.0024001,,,,,,,
,,,,,,,,,,,,,,,,,,,,,,50,22,20,75,48,26,26,-0.253784722,-0.369804688,1,0,0,1.1333,submitButton,17.27865961,0.134752604,-0.332682292,0,0,0,1,17,77,6,1,22,67360,blockT,180,2022-02-16_21h28.43.630,orientation adjustment block,2021.2.3,MacIntel,60.0024001,,,,,,,
,,,,,,,,,,,,,,,,,,,,,,-75,-36,20,75,-65,29,29,0.195182292,-0.292278646,1,0,0,0.5158,submitButton,17.46180556,0.386119792,-0.181232639,0,0,0,1,18,78,20,1,36,67360,blockT,180,2022-02-16_21h28.43.630,orientation adjustment block,2021.2.3,MacIntel,60.0024001,,,,,,,
,,,,,,,,,,,,,,,,,,,,,,36.66666667,42,20,75,55.66666667,13.66666667,13.66666667,0.386675347,-0.300516493,1,0,0,0.1833,submitButton,17.4034188,0.300412326,-0.304118924,0,0,0,1,19,79,26,1,42,67360,blockT,180,2022-02-16_21h28.43.630,orientation adjustment block,2021.2.3,MacIntel,60.0024001,,,,,,,
,,,,,,,,,,,,,,,,,,,,,,-75,44,20,75,41,3,3,-0.370203993,-0.401662326,1,0,0,2.1007,submitButton,17.18518519,-0.370203993,-0.401662326,0,0,0,1,20,80,28,1,44,67360,blockT,180,2022-02-16_21h28.43.630,orientation adjustment block,2021.2.3,MacIntel,60.0024001,,,,,,,
,,,,,,,,,,,,,,,,,,,,,,74.44444444,-49,20,75,-45.55555556,3.444444444,3.444444444,0.404882813,-0.28421441,1,0,0,0.9335,submitButton,16.9800995,0.166315104,-0.419227431,0,0,0,1,21,81,33,1,49,67360,blockT,180,2022-02-16_21h28.43.630,orientation adjustment block,2021.2.3,MacIntel,60.0024001,,,,,,,
,,,,,,,,,,,,,,,,,,,,,,20,17,20,75,37,20,20,-0.172743056,-0.384383681,1,0,0,0.5832,submitButton,17.0245098,-0.173854167,-0.384383681,0,0,0,1,22,82,1,1,17,67360,blockT,180,2022-02-16_21h28.43.630,orientation adjustment block,2021.2.3,MacIntel,60.0024001,,,,,,,
,,,,,,,,,,,,,,,,,,,,,,65,54,20,75,221,13,13,0.205203993,-0.296831597,1,0,0,0.3348,submitButton,16.96618357,0.168164062,-0.422847222,0,0,0,1,23,83,38,1,54,67360,blockT,180,2022-02-16_21h28.43.630,orientation adjustment block,2021.2.3,MacIntel,60.0024001,,,,,,,
,,,,,,,,,,,,,,,,,,,,,,31.66666667,-60,20,75,-28.33333333,31.66666667,31.66666667,-0.219166667,-0.432621528,1,0,0,0.9335,submitButton,17.17619048,-0.216328125,-0.418541667,0,0,0,1,24,84,44,1,60,67360,blockT,180,2022-02-16_21h28.43.630,orientation adjustment block,2021.2.3,MacIntel,60.0024001,,,,,,,
,,,,,,,,,,,,,,,,,,,,,,-37.77777778,-71,20,75,-248.7777778,2.222222222,2.222222222,0.391488715,-0.290095486,1,0,0,0.3171,submitButton,16.96557121,-0.240850694,-0.402899306,0,0,0,1,25,85,55,1,71,67360,blockT,180,2022-02-16_21h28.43.630,orientation adjustment block,2021.2.3,MacIntel,60.0024001,,,,,,,
,,,,,,,,,,,,,,,,,,,,,,-51.11111111,-38,20,75,-48.11111111,10.11111111,10.11111111,0.201679688,-0.2671875,1,0,0,0.1177,submitButton,16.87037037,-0.202977431,-0.401831597,0,0,0,1,26,86,22,1,38,67360,blockT,180,2022-02-16_21h28.43.630,orientation adjustment block,2021.2.3,MacIntel,60.0024001,,,,,,,
,,,,,,,,,,,,,,,,,,,,,,-74.44444444,-65,20,75,-230.4444444,14.55555556,14.55555556,0.394869792,-0.296831597,1,0,0,0.4501,submitButton,16.83866058,-0.209431424,-0.422065972,0,0,0,1,27,87,49,1,65,67360,blockT,180,2022-02-16_21h28.43.630,orientation adjustment block,2021.2.3,MacIntel,60.0024001,,,,,,,
,,,,,,,,,,,,,,,,,,,,,,-30,-75,20,75,-71,4,4,0.153624132,-0.289361979,1,0,0,0.3325,submitButton,16.66516517,-0.241453993,-0.386948785,0,0,0,1,28,88,59,1,75,67360,blockT,180,2022-02-16_21h28.43.630,orientation adjustment block,2021.2.3,MacIntel,60.0024001,,,,,,,
,,,,,,,,,,,,,,,,,,,,,,51.66666667,41,20,75,48.66666667,7.666666667,7.666666667,0.374869792,-0.323836806,1,0,0,0.7168,submitButton,16.54518519,0.468897569,-0.397565104,1,0,0,1,29,89,25,1,41,67360,blockT,180,2022-02-16_21h28.43.630,orientation adjustment block,2021.2.3,MacIntel,60.0024001,continueButton,,,,,,
,,,,,,,,,,,,,,,,,,,,,,38.33333333,-52,20,75,25.33333333,77.33333333,77.33333333,0.214197049,-0.324661458,1,0,0,0.9329,submitButton,17.34502924,-0.45875434,-0.386137153,0,0,0,1,30,90,36,1,52,67360,blockT,180,2022-02-16_21h28.43.630,orientation adjustment block,2021.2.3,MacIntel,60.0024001,,,,,,,
,,,,,,,,,,,,,,,,,,,,,,73.33333333,40,20,75,210.3333333,9.666666667,9.666666667,0.266423611,-0.343250868,1,0,0,0.1165,submitButton,17.24531025,-0.207638889,-0.413450521,0,0,0,1,31,91,24,1,40,67360,blockT,180,2022-02-16_21h28.43.630,orientation adjustment block,2021.2.3,MacIntel,60.0024001,,,,,,,
,,,,,,,,,,,,,,,,,,,,,,-33.33333333,-58,20,75,-117.3333333,59.33333333,59.33333333,0.437070313,-0.321601562,1,0,0,0.384,submitButton,17.78490028,-0.177170139,-0.396367187,0,0,0,1,32,92,42,1,58,67360,blockT,180,2022-02-16_21h28.43.630,orientation adjustment block,2021.2.3,MacIntel,60.0024001,,,,,,,
,,,,,,,,,,,,,,,,,,,,,,-56.11111111,31,20,75,22.88888889,8.111111111,8.111111111,0.200447049,-0.292330729,1,0,0,0.1509,submitButton,17.66244726,-0.156692708,-0.391414931,0,0,0,1,33,93,15,1,31,67360,blockT,180,2022-02-16_21h28.43.630,orientation adjustment block,2021.2.3,MacIntel,60.0024001,,,,,,,
,,,,,,,,,,,,,,,,,,,,,,-57.22222222,29,20,75,28.77777778,0.222222222,0.222222222,-0.209105903,-0.415607639,1,0,0,1.6166,submitButton,17.44444444,-0.209105903,-0.414544271,0,0,0,1,34,94,13,1,29,67360,blockT,180,2022-02-16_21h28.43.630,orientation adjustment block,2021.2.3,MacIntel,60.0024001,,,,,,,
,,,,,,,,,,,,,,,,,,,,,,-58.88888889,-57,20,75,-234.8888889,2.111111111,2.111111111,0.416883681,-0.271953125,1,0,0,0.0325,submitButton,17.25514403,-0.239761285,-0.422834201,0,0,0,1,35,95,41,1,57,67360,blockT,180,2022-02-16_21h28.43.630,orientation adjustment block,2021.2.3,MacIntel,60.0024001,,,,,,,
,,,,,,,,,,,,,,,,,,,,,,26.11111111,19,20,75,-56.88888889,75.88888889,75.88888889,0.375711806,-0.281996528,1,0,0,0.4999,submitButton,17.9701897,-0.322465278,-0.416349826,0,0,0,1,36,96,3,1,19,67360,blockT,180,2022-02-16_21h28.43.630,orientation adjustment block,2021.2.3,MacIntel,60.0024001,,,,,,,
,,,,,,,,,,,,,,,,,,,,,,36.66666667,-37,20,75,-27.33333333,9.666666667,9.666666667,0.412387153,-0.263368056,1,0,0,0.0844,submitButton,17.87014726,0.377161458,-0.350173611,0,0,0,1,37,97,21,1,37,67360,blockT,180,2022-02-16_21h28.43.630,orientation adjustment block,2021.2.3,MacIntel,60.0024001,,,,,,,
,,,,,,,,,,,,,,,,,,,,,,-49.44444444,-51,20,75,-232.4444444,1.444444444,1.444444444,0.383459201,-0.31093316,1,0,0,0.2005,submitButton,17.67460317,-0.444965278,-0.415377604,0,0,0,1,38,98,35,1,51,67360,blockT,180,2022-02-16_21h28.43.630,orientation adjustment block,2021.2.3,MacIntel,60.0024001,,,,,,,
,,,,,,,,,,,,,,,,,,,,,,-29.44444444,-55,20,75,-57.44444444,2.444444444,2.444444444,0.173355035,-0.252317708,1,0,0,0.3327,submitButton,17.49542484,-0.279492187,-0.375842014,0,0,0,1,39,99,39,1,55,67360,blockT,180,2022-02-16_21h28.43.630,orientation adjustment block,2021.2.3,MacIntel,60.0024001,,,,,,,
,,,,,,,,,,,,,,,,,,,,,,-60.55555556,-30,20,75,-124.5555556,85.44444444,85.44444444,0.373125,-0.310859375,1,0,0,0.5992,submitButton,18.28552972,-0.314279514,-0.408676215,0,0,0,1,40,100,14,1,30,67360,blockT,180,2022-02-16_21h28.43.630,orientation adjustment block,2021.2.3,MacIntel,60.0024001,,,,,,,
,,,,,,,,,,,,,,,,,,,,,,37.77777778,-59,20,75,-26.22222222,32.77777778,32.77777778,0.358728299,-0.307929687,1,0,0,0.2166,submitButton,18.45210728,-0.316115451,-0.387460937,0,0,0,1,41,101,43,1,59,67360,blockT,180,2022-02-16_21h28.43.630,orientation adjustment block,2021.2.3,MacIntel,60.0024001,,,,,,,
,,,,,,,,,,,,,,,,,,,,,,41.11111111,53,20,75,220.1111111,12.88888889,12.88888889,-0.341037326,-0.389587674,1,0,0,2.7002,submitButton,18.38888889,-0.318211806,-0.38031684,0,0,0,1,42,102,37,1,53,67360,blockT,180,2022-02-16_21h28.43.630,orientation adjustment block,2021.2.3,MacIntel,60.0024001,,,,,,,
,,,,,,,,,,,,,,,,,,,,,,-41.66666667,-21,20,75,-54.66666667,33.66666667,33.66666667,0.214782986,-0.320238715,1,0,0,0.5507,submitButton,18.56054931,-0.314774306,-0.408793403,0,0,0,1,43,103,5,1,21,67360,blockT,180,2022-02-16_21h28.43.630,orientation adjustment block,2021.2.3,MacIntel,60.0024001,,,,,,,
,,,,,,,,,,,,,,,,,,,,,,-42.77777778,-48,20,75,-55.77777778,7.777777778,7.777777778,0.160091146,-0.272604167,1,0,0,0.0841,submitButton,18.44074074,0.421432292,-0.419704861,1,0,0,1,44,104,32,1,48,67360,blockT,180,2022-02-16_21h28.43.630,orientation adjustment block,2021.2.3,MacIntel,60.0024001,continueButton,,,,,,
,,,,,,,,,,,,,,,,,,,,,,48.88888889,-32,20,75,16.88888889,48.88888889,48.88888889,-0.182065972,-0.411766493,1,0,0,3.4664,submitButton,18.77533578,-0.182065972,-0.411766493,0,0,0,1,45,105,16,1,32,67360,blockT,180,2022-02-16_21h28.43.630,orientation adjustment block,2021.2.3,MacIntel,60.0024001,,,,,,,
,,,,,,,,,,,,,,,,,,,,,,-72.22222222,34,20,75,33.77777778,0.222222222,0.222222222,0.145894097,-0.308550347,1,0,0,0.1671,submitButton,18.5736715,-0.336592882,-0.409895833,0,0,0,1,46,106,18,1,34,67360,blockT,180,2022-02-16_21h28.43.630,orientation adjustment block,2021.2.3,MacIntel,60.0024001,,,,,,,
,,,,,,,,,,,,,,,,,,,,,,22.77777778,50,20,75,72.77777778,22.77777778,22.77777778,-0.37640625,-0.412899306,1,0,0,0.4998,submitButton,18.61887694,-0.37640625,-0.413454861,0,0,0,1,47,107,34,1,50,67360,blockT,180,2022-02-16_21h28.43.630,orientation adjustment block,2021.2.3,MacIntel,60.0024001,,,,,,,
,,,,,,,,,,,,,,,,,,,,,,41.66666667,-25,20,75,-48.33333333,23.33333333,23.33333333,-0.202122396,-0.386241319,1,0,0,1.5833,submitButton,18.66903073,-0.192951389,-0.388446181,0,0,0,1,48,108,9,1,25,67360,blockT,180,2022-02-16_21h28.43.630,orientation adjustment block,2021.2.3,MacIntel,60.0024001,,,,,,,
,,,,,,,,,,,,,,,,,,,,,,-75,72,20,75,-33,75,75,0.438020833,-0.268706597,1,0,0,0.1511,submitButton,19.2619883,-0.221927083,-0.397990451,0,0,0,1,49,109,56,1,72,67360,blockT,180,2022-02-16_21h28.43.630,orientation adjustment block,2021.2.3,MacIntel,60.0024001,,,,,,,
,,,,,,,,,,,,,,,,,,,,,,-40.55555556,18,20,75,27.44444444,9.444444444,9.444444444,-0.249088542,-0.400824653,1,0,0,144.5439,submitButton,19.15972222,-0.154822049,-0.358185764,0,0,0,1,50,110,2,1,18,67360,blockT,180,2022-02-16_21h28.43.630,orientation adjustment block,2021.2.3,MacIntel,60.0024001,,,,,,,
,,,,,,,,,,,,,,,,,,,,,,43.88888889,62,20,75,215.8888889,26.11111111,26.11111111,0.222330729,-0.300347222,1,0,0,0.2004,submitButton,19.23138603,-0.447361111,-0.393133681,0,0,0,1,51,111,46,1,62,67360,blockT,180,2022-02-16_21h28.43.630,orientation adjustment block,2021.2.3,MacIntel,60.0024001,,,,,,,
,,,,,,,,,,,,,,,,,,,,,,30,24,20,75,47,23,23,0.402460938,-0.292335069,1,0,0,0.1835,submitButton,19.26984127,-0.379904514,-0.412921007,0,0,0,1,52,112,8,1,24,67360,blockT,180,2022-02-16_21h28.43.630,orientation adjustment block,2021.2.3,MacIntel,60.0024001,,,,,,,
,,,,,,,,,,,,,,,,,,,,,,-21.66666667,-74,20,75,-60.66666667,13.33333333,13.33333333,0.184440104,-0.290516493,1,0,0,0.9996,submitButton,19.20987654,-0.253806424,-0.391475694,0,0,0,1,53,113,58,1,74,67360,blockT,180,2022-02-16_21h28.43.630,orientation adjustment block,2021.2.3,MacIntel,60.0024001,,,,,,,
,,,,,,,,,,,,,,,,,,,,,,-70,-66,20,75,-238,8,8,0.465008681,-0.285755208,1,0,0,0.434,submitButton,19.09777778,-0.335299479,-0.399856771,0,0,0,1,54,114,50,1,66,67360,blockT,180,2022-02-16_21h28.43.630,orientation adjustment block,2021.2.3,MacIntel,60.0024001,,,,,,,
,,,,,,,,,,,,,,,,,,,,,,24.44444444,-23,20,75,-39.55555556,16.55555556,16.55555556,0.412738715,-0.305716146,1,0,0,0.316,submitButton,19.07260726,-0.330512153,-0.402378472,0,0,0,1,55,115,7,1,23,67360,blockT,180,2022-02-16_21h28.43.630,orientation adjustment block,2021.2.3,MacIntel,60.0024001,,,,,,,
,,,,,,,,,,,,,,,,,,,,,,40.55555556,16,20,75,33.55555556,17.55555556,17.55555556,0.425789931,-0.29453559,1,0,0,0.216,submitButton,19.0577342,-0.552643229,-0.394943576,0,0,0,1,56,116,0,1,16,67360,blockT,180,2022-02-16_21h28.43.630,orientation adjustment block,2021.2.3,MacIntel,60.0024001,,,,,,,
,,,,,,,,,,,,,,,,,,,,,,70,69,20,75,233,16,16,0.241514757,-0.291809896,1,0,0,0.2838,submitButton,19.02804746,-0.351618924,-0.398138021,0,0,0,1,57,117,53,1,69,67360,blockT,180,2022-02-16_21h28.43.630,orientation adjustment block,2021.2.3,MacIntel,60.0024001,,,,,,,
,,,,,,,,,,,,,,,,,,,,,,-57.77777778,-47,20,75,-53.77777778,6.777777778,6.777777778,0.208884549,-0.301232639,1,0,0,0.3334,submitButton,18.91025641,-0.174144965,-0.415082465,0,0,0,1,58,118,31,1,47,67360,blockT,180,2022-02-16_21h28.43.630,orientation adjustment block,2021.2.3,MacIntel,60.0024001,,,,,,,
,,,,,,,,,,,,,,,,,,,,,,-44.44444444,-56,20,75,-63.44444444,7.444444444,7.444444444,0.166792535,-0.305381944,1,0,0,0.0666,submitButton,18.8010582,0.436935764,-0.402890625,1,0,0,1,59,119,40,1,56,67360,blockT,180,2022-02-16_21h28.43.630,orientation adjustment block,2021.2.3,MacIntel,60.0024001,continueButton,,,,,,
,,,,,,,,,,,,,,,,,,,,,,67.22222222,-46,20,75,-42.77777778,3.222222222,3.222222222,0.391918403,-0.317921007,1,0,0,0.0157,submitButton,18.65408805,0.100529514,-0.329396701,0,0,0,2,0,120,30,1,46,67360,blockT,180,2022-02-16_21h28.43.630,orientation adjustment block,2021.2.3,MacIntel,60.0024001,,,,,,,
,,,,,,,,,,,,,,,,,,,,,,-61.11111111,-31,20,75,-51.11111111,20.11111111,20.11111111,0.164253472,-0.320920139,1,0,0,0.3182,submitButton,18.66770509,0.162322049,-0.331493056,0,0,0,2,1,121,15,1,31,67360,blockT,180,2022-02-16_21h28.43.630,orientation adjustment block,2021.2.3,MacIntel,60.0024001,,,,,,,
,,,,,,,,,,,,,,,,,,,,,,36.66666667,23,20,75,34.66666667,11.66666667,11.66666667,0.414908854,-0.289505208,1,0,0,0.0333,submitButton,18.60288066,0.278988715,-0.335946181,0,0,0,2,2,122,7,1,23,67360,blockT,180,2022-02-16_21h28.43.630,orientation adjustment block,2021.2.3,MacIntel,60.0024001,,,,,,,
,,,,,,,,,,,,,,,,,,,,,,25.55555556,56,20,75,64.55555556,8.555555556,8.555555556,0.40077691,-0.293259549,1,0,0,0.2505,submitButton,18.51070336,0.120924479,-0.309973958,0,0,0,2,3,123,40,1,56,67360,blockT,180,2022-02-16_21h28.43.630,orientation adjustment block,2021.2.3,MacIntel,60.0024001,,,,,,,
,,,,,,,,,,,,,,,,,,,,,,62.22222222,-32,20,75,-39.77777778,7.777777778,7.777777778,0.393706597,-0.318472222,1,0,0,1.4168,submitButton,18.41313131,0.130334201,-0.357894965,0,0,0,2,4,124,16,1,32,67360,blockT,180,2022-02-16_21h28.43.630,orientation adjustment block,2021.2.3,MacIntel,60.0024001,,,,,,,
,,,,,,,,,,,,,,,,,,,,,,38.88888889,52,20,75,55.88888889,3.888888889,3.888888889,0.428446181,-0.309401042,1,0,0,0.1165,submitButton,18.28228228,-0.504166667,-0.408255208,0,0,0,2,5,125,36,1,52,67360,blockT,180,2022-02-16_21h28.43.630,orientation adjustment block,2021.2.3,MacIntel,60.0024001,,,,,,,
,,,,,,,,,,,,,,,,,,,,,,57.77777778,-30,20,75,-52.22222222,22.22222222,22.22222222,0.355664062,-0.30546441,1,0,0,0.0327,submitButton,18.31746032,-0.294210069,-0.390802951,0,0,0,2,6,126,14,1,30,67360,blockT,180,2022-02-16_21h28.43.630,orientation adjustment block,2021.2.3,MacIntel,60.0024001,,,,,,,
,,,,,,,,,,,,,,,,,,,,,,66.66666667,-42,20,75,-53.33333333,11.33333333,11.33333333,-0.302868924,-0.407773438,1,0,0,1.9672,submitButton,18.25565388,-0.302868924,-0.408884549,0,0,0,2,7,127,26,1,42,67360,blockT,180,2022-02-16_21h28.43.630,orientation adjustment block,2021.2.3,MacIntel,60.0024001,,,,,,,
,,,,,,,,,,,,,,,,,,,,,,73.88888889,-75,20,75,-76.11111111,1.111111111,1.111111111,0.41343316,-0.261336806,1,0,0,0.067,submitButton,18.10526316,-0.356232639,-0.387469618,0,0,0,2,8,128,59,1,75,67360,blockT,180,2022-02-16_21h28.43.630,orientation adjustment block,2021.2.3,MacIntel,60.0024001,,,,,,,
,,,,,,,,,,,,,,,,,,,,,,-73.88888889,-73,20,75,-249.8888889,3.111111111,3.111111111,0.394800347,-0.307486979,1,0,0,0.2179,submitButton,17.97487923,-0.260039062,-0.429466146,0,0,0,2,9,129,57,1,73,67360,blockT,180,2022-02-16_21h28.43.630,orientation adjustment block,2021.2.3,MacIntel,60.0024001,,,,,,,
,,,,,,,,,,,,,,,,,,,,,,60,16,20,75,34,18,18,0.397309028,-0.304253472,1,0,0,0.7993,submitButton,17.97509579,-0.231510417,-0.405564236,0,0,0,2,10,130,0,1,16,67360,blockT,180,2022-02-16_21h28.43.630,orientation adjustment block,2021.2.3,MacIntel,60.0024001,,,,,,,
,,,,,,,,,,,,,,,,,,,,,,54.44444444,-48,20,75,28.44444444,76.44444444,76.44444444,-0.34094184,-0.403085937,1,0,0,0.8506,submitButton,18.47483381,-0.34094184,-0.403085937,0,0,0,2,11,131,32,1,48,67360,blockT,180,2022-02-16_21h28.43.630,orientation adjustment block,2021.2.3,MacIntel,60.0024001,,,,,,,
,,,,,,,,,,,,,,,,,,,,,,22.22222222,66,20,75,60.22222222,5.777777778,5.777777778,0.465212674,-0.298359375,1,0,0,0.2157,submitButton,18.36723164,-0.233012153,-0.418255208,0,0,0,2,12,132,50,1,66,67360,blockT,180,2022-02-16_21h28.43.630,orientation adjustment block,2021.2.3,MacIntel,60.0024001,,,,,,,
,,,,,,,,,,,,,,,,,,,,,,-23.33333333,34,20,75,28.66666667,5.333333333,5.333333333,0.195225694,-0.314830729,1,0,0,0.3173,submitButton,18.25770308,-0.168619792,-0.394292535,0,0,0,2,13,133,18,1,34,67360,blockT,180,2022-02-16_21h28.43.630,orientation adjustment block,2021.2.3,MacIntel,60.0024001,,,,,,,
,,,,,,,,,,,,,,,,,,,,,,53.88888889,58,20,75,72.88888889,14.88888889,14.88888889,0.409800347,-0.296119792,1,0,0,0.1163,submitButton,18.22962963,0.443971354,-0.414136285,1,0,0,2,14,134,42,1,58,67360,blockT,180,2022-02-16_21h28.43.630,orientation adjustment block,2021.2.3,MacIntel,60.0024001,continueButton,,,,,,
,,,,,,,,,,,,,,,,,,,,,,60,47,20,75,107,60,60,-0.22547309,-0.387209201,1,0,0,0.5999,submitButton,18.5748393,0.503958333,-0.264874132,0,0,0,2,15,135,31,1,47,67360,blockT,180,2022-02-16_21h28.43.630,orientation adjustment block,2021.2.3,MacIntel,60.0024001,,,,,,,
,,,,,,,,,,,,,,,,,,,,,,72.77777778,-62,20,75,-55.22222222,6.777777778,6.777777778,-0.171657986,-0.411944444,1,0,0,1.5334,submitButton,18.47814208,0.63812066,-0.238532986,0,0,0,2,16,136,46,1,62,67360,blockT,180,2022-02-16_21h28.43.630,orientation adjustment block,2021.2.3,MacIntel,60.0024001,,,,,,,
,,,,,,,,,,,,,,,,,,,,,,-64.44444444,57,20,75,54.55555556,2.444444444,2.444444444,0.223328993,-0.305169271,1,0,0,0.0328,submitButton,18.34778681,0.280455729,-0.26390191,0,0,0,2,17,137,41,1,57,67360,blockT,180,2022-02-16_21h28.43.630,orientation adjustment block,2021.2.3,MacIntel,60.0024001,,,,,,,
,,,,,,,,,,,,,,,,,,,,,,35.55555556,72,20,75,70.55555556,1.444444444,1.444444444,-0.358988715,-0.42687066,1,0,0,1.3839,submitButton,18.21146953,0.21297309,-0.287144097,0,0,0,2,18,138,56,1,72,67360,blockT,180,2022-02-16_21h28.43.630,orientation adjustment block,2021.2.3,MacIntel,60.0024001,,,,,,,
,,,,,,,,,,,,,,,,,,,,,,-50,71,20,75,59,12,12,0.380711806,-0.27890191,1,0,0,0.2661,submitButton,18.16177778,0.455885417,-0.28374566,0,0,0,2,19,139,55,1,71,67360,blockT,180,2022-02-16_21h28.43.630,orientation adjustment block,2021.2.3,MacIntel,60.0024001,,,,,,,
,,,,,,,,,,,,,,,,,,,,,,-25.55555556,61,20,75,62.44444444,1.444444444,1.444444444,0.414262153,-0.277725694,1,0,0,0.2015,submitButton,18.02910053,0.26641059,-0.260894097,0,0,0,2,20,140,45,1,61,67360,blockT,180,2022-02-16_21h28.43.630,orientation adjustment block,2021.2.3,MacIntel,60.0024001,,,,,,,
,,,,,,,,,,,,,,,,,,,,,,30,54,20,75,69,15,15,0.405759549,-0.270911458,1,0,0,0.2499,submitButton,18.00524934,0.098802083,-0.396163194,0,0,0,2,21,141,38,1,54,67360,blockT,180,2022-02-16_21h28.43.630,orientation adjustment block,2021.2.3,MacIntel,60.0024001,,,,,,,
,,,,,,,,,,,,,,,,,,,,,,20,-65,20,75,-45,20,20,-0.167417535,-0.403884549,1,0,0,0.4504,submitButton,18.02083333,0.167690972,-0.344171007,0,0,0,2,22,142,49,1,65,67360,blockT,180,2022-02-16_21h28.43.630,orientation adjustment block,2021.2.3,MacIntel,60.0024001,,,,,,,
,,,,,,,,,,,,,,,,,,,,,,-23.88888889,-49,20,75,-60.88888889,11.88888889,11.88888889,0.162252604,-0.3040625,1,0,0,0.517,submitButton,17.97329888,0.256289062,-0.372009549,0,0,0,2,23,143,33,1,49,67360,blockT,180,2022-02-16_21h28.43.630,orientation adjustment block,2021.2.3,MacIntel,60.0024001,,,,,,,
,,,,,,,,,,,,,,,,,,,,,,-51.11111111,-20,20,75,-45.11111111,25.11111111,25.11111111,0.16891059,-0.310802951,1,0,0,0.1497,submitButton,18.02820513,0.201571181,-0.363980035,0,0,0,2,24,144,4,1,20,67360,blockT,180,2022-02-16_21h28.43.630,orientation adjustment block,2021.2.3,MacIntel,60.0024001,,,,,,,
,,,,,,,,,,,,,,,,,,,,,,53.88888889,-29,20,75,-47.11111111,18.11111111,18.11111111,-0.175277778,-0.413854167,1,0,0,1.8834,submitButton,18.028838,0.250021701,-0.288020833,0,0,0,2,25,145,13,1,29,67360,blockT,180,2022-02-16_21h28.43.630,orientation adjustment block,2021.2.3,MacIntel,60.0024001,,,,,,,
,,,,,,,,,,,,,,,,,,,,,,-57.77777778,27,20,75,37.22222222,10.22222222,10.22222222,-0.175021701,-0.418845486,1,0,0,1.6335,submitButton,17.96969697,0.281740451,-0.241328125,0,0,0,2,26,146,11,1,27,67360,blockT,180,2022-02-16_21h28.43.630,orientation adjustment block,2021.2.3,MacIntel,60.0024001,,,,,,,
,,,,,,,,,,,,,,,,,,,,,,37.22222222,64,20,75,63.22222222,0.777777778,0.777777778,0.423819444,-0.319891493,1,0,0,0.3165,submitButton,17.84043442,0.400794271,-0.220859375,0,0,0,2,27,147,48,1,64,67360,blockT,180,2022-02-16_21h28.43.630,orientation adjustment block,2021.2.3,MacIntel,60.0024001,,,,,,,
,,,,,,,,,,,,,,,,,,,,,,-20,-37,20,75,-57,20,20,-0.183489583,-0.408515625,1,0,0,0.5503,submitButton,17.85655058,0.16296875,-0.374930556,0,0,0,2,28,148,21,1,37,67360,blockT,180,2022-02-16_21h28.43.630,orientation adjustment block,2021.2.3,MacIntel,60.0024001,,,,,,,
,,,,,,,,,,,,,,,,,,,,,,-44.44444444,-43,20,75,-54.44444444,11.44444444,11.44444444,0.17625434,-0.324240451,1,0,0,0.3496,submitButton,17.8090535,0.305533854,-0.420017361,1,0,0,2,29,149,27,1,43,67360,blockT,180,2022-02-16_21h28.43.630,orientation adjustment block,2021.2.3,MacIntel,60.0024001,continueButton,,,,,,
,,,,,,,,,,,,,,,,,,,,,,70,-35,20,75,-33,2,2,-0.280989583,-0.427595486,1,0,0,1.3666,submitButton,17.69281046,0.391158854,-0.405394965,0,0,0,2,30,150,19,1,35,67360,blockT,180,2022-02-16_21h28.43.630,orientation adjustment block,2021.2.3,MacIntel,60.0024001,,,,,,,
,,,,,,,,,,,,,,,,,,,,,,52.22222222,-26,20,75,-31.77777778,5.777777778,5.777777778,-0.193862847,-0.415355903,1,0,0,1.7508,submitButton,17.60583942,0.187460938,-0.34546441,0,0,0,2,31,151,10,1,26,67360,blockT,180,2022-02-16_21h28.43.630,orientation adjustment block,2021.2.3,MacIntel,60.0024001,,,,,,,
,,,,,,,,,,,,,,,,,,,,,,23.33333333,-50,20,75,-47.66666667,2.333333333,2.333333333,0.357717014,-0.291775174,1,0,0,0.2837,submitButton,17.49516908,0.387330729,-0.335594618,0,0,0,2,32,152,34,1,50,67360,blockT,180,2022-02-16_21h28.43.630,orientation adjustment block,2021.2.3,MacIntel,60.0024001,,,,,,,
,,,,,,,,,,,,,,,,,,,,,,61.11111111,-22,20,75,-40.88888889,18.88888889,18.88888889,-0.195668403,-0.40375,1,0,0,1.8494,submitButton,17.50519584,-0.195668403,-0.40375,0,0,0,2,33,153,6,1,22,67360,blockT,180,2022-02-16_21h28.43.630,orientation adjustment block,2021.2.3,MacIntel,60.0024001,,,,,,,
,,,,,,,,,,,,,,,,,,,,,,53.88888889,-55,20,75,-50.11111111,4.888888889,4.888888889,0.45125434,-0.264396701,1,0,0,0.2663,submitButton,17.41507937,-0.204188368,-0.422725694,0,0,0,2,34,154,39,1,55,67360,blockT,180,2022-02-16_21h28.43.630,orientation adjustment block,2021.2.3,MacIntel,60.0024001,,,,,,,
,,,,,,,,,,,,,,,,,,,,,,25.55555556,70,20,75,68.55555556,1.444444444,1.444444444,-0.267786458,-0.369583333,1,0,0,1.0335,submitButton,17.30181245,0.150112847,-0.323394097,0,0,0,2,35,155,54,1,70,67360,blockT,180,2022-02-16_21h28.43.630,orientation adjustment block,2021.2.3,MacIntel,60.0024001,,,,,,,
,,,,,,,,,,,,,,,,,,,,,,-67.22222222,-69,20,75,-77.22222222,8.222222222,8.222222222,0.218697917,-0.301549479,1,0,0,0.1668,submitButton,17.23787167,0.362751736,-0.230603299,0,0,0,2,36,156,53,1,69,67360,blockT,180,2022-02-16_21h28.43.630,orientation adjustment block,2021.2.3,MacIntel,60.0024001,,,,,,,
,,,,,,,,,,,,,,,,,,,,,,35,-18,20,75,-23,5,5,0.389357639,-0.29344184,1,0,0,0.3001,submitButton,17.15229215,-0.118328993,-0.392756076,0,0,0,2,37,157,2,1,18,67360,blockT,180,2022-02-16_21h28.43.630,orientation adjustment block,2021.2.3,MacIntel,60.0024001,,,,,,,
,,,,,,,,,,,,,,,,,,,,,,63.88888889,24,20,75,58.88888889,34.88888889,34.88888889,0.369366319,-0.274765625,1,0,0,0.2162,submitButton,17.27546296,-0.226840278,-0.41453559,0,0,0,2,38,158,8,1,24,67360,blockT,180,2022-02-16_21h28.43.630,orientation adjustment block,2021.2.3,MacIntel,60.0024001,,,,,,,
,,,,,,,,,,,,,,,,,,,,,,-34.44444444,53,20,75,44.55555556,8.444444444,8.444444444,0.216909722,-0.279157986,1,0,0,0.5009,submitButton,17.21455939,-0.229865451,-0.381228299,0,0,0,2,39,159,37,1,53,67360,blockT,180,2022-02-16_21h28.43.630,orientation adjustment block,2021.2.3,MacIntel,60.0024001,,,,,,,
,,,,,,,,,,,,,,,,,,,,,,-55,40,20,75,31,9,9,0.190138889,-0.304483507,1,0,0,0.1663,submitButton,17.15829528,-0.257756076,-0.408394097,0,0,0,2,40,160,24,1,40,67360,blockT,180,2022-02-16_21h28.43.630,orientation adjustment block,2021.2.3,MacIntel,60.0024001,,,,,,,
,,,,,,,,,,,,,,,,,,,,,,47.22222222,33,20,75,50.22222222,17.22222222,17.22222222,0.430998264,-0.284023437,1,0,0,0.3337,submitButton,17.15873016,-0.422699653,-0.427217882,0,0,0,2,41,161,17,1,33,67360,blockT,180,2022-02-16_21h28.43.630,orientation adjustment block,2021.2.3,MacIntel,60.0024001,,,,,,,
,,,,,,,,,,,,,,,,,,,,,,-41.11111111,41,20,75,35.88888889,5.111111111,5.111111111,0.18875,-0.326627604,1,0,0,0.6334,submitButton,17.07732733,0.473237847,-0.276601563,0,0,0,2,42,162,25,1,41,67360,blockT,180,2022-02-16_21h28.43.630,orientation adjustment block,2021.2.3,MacIntel,60.0024001,,,,,,,
,,,,,,,,,,,,,,,,,,,,,,-27.77777778,-39,20,75,38.22222222,77.22222222,77.22222222,0.206987847,-0.31828559,1,0,0,0.3167,submitButton,17.48098434,-0.172855903,-0.396006944,0,0,0,2,43,163,23,1,39,67360,blockT,180,2022-02-16_21h28.43.630,orientation adjustment block,2021.2.3,MacIntel,60.0024001,,,,,,,
,,,,,,,,,,,,,,,,,,,,,,70.55555556,21,20,75,31.55555556,10.55555556,10.55555556,0.372947049,-0.313415799,1,0,0,0.0335,submitButton,17.43481481,0.351427951,-0.411662326,1,0,0,2,44,164,5,1,21,67360,blockT,180,2022-02-16_21h28.43.630,orientation adjustment block,2021.2.3,MacIntel,60.0024001,continueButton,,,,,,
,,,,,,,,,,,,,,,,,,,,,,41.11111111,25,20,75,45.11111111,20.11111111,20.11111111,0.411666667,-0.34952691,1,0,0,0.016,submitButton,17.45253863,0.333450521,-0.239253472,0,0,0,2,45,165,9,1,25,67360,blockT,180,2022-02-16_21h28.43.630,orientation adjustment block,2021.2.3,MacIntel,60.0024001,,,,,,,
,,,,,,,,,,,,,,,,,,,,,,-50.55555556,38,20,75,32.44444444,5.555555556,5.555555556,-0.216102431,-0.399739583,1,0,0,1.166,submitButton,17.37426901,0.392881944,-0.231480035,0,0,0,2,46,166,22,1,38,67360,blockT,180,2022-02-16_21h28.43.630,orientation adjustment block,2021.2.3,MacIntel,60.0024001,,,,,,,
,,,,,,,,,,,,,,,,,,,,,,40.55555556,-19,20,75,-31.44444444,12.44444444,12.44444444,-0.311158854,-0.454340278,1,0,0,1.4665,submitButton,17.34204793,0.27359809,-0.247209201,0,0,0,2,47,167,3,1,19,67360,blockT,180,2022-02-16_21h28.43.630,orientation adjustment block,2021.2.3,MacIntel,60.0024001,,,,,,,
,,,,,,,,,,,,,,,,,,,,,,22.22222222,-68,20,75,-61.77777778,6.222222222,6.222222222,0.161592882,-0.296731771,1,0,0,0.4002,submitButton,17.26984127,0.265421007,-0.278493924,0,0,0,2,48,168,52,1,68,67360,blockT,180,2022-02-16_21h28.43.630,orientation adjustment block,2021.2.3,MacIntel,60.0024001,,,,,,,
,,,,,,,,,,,,,,,,,,,,,,48.88888889,-28,20,75,-35.11111111,7.111111111,7.111111111,0.379392361,-0.297135417,1,0,0,1.0502,submitButton,17.20430108,0.278862847,-0.276888021,0,0,0,2,49,169,12,1,28,67360,blockT,180,2022-02-16_21h28.43.630,orientation adjustment block,2021.2.3,MacIntel,60.0024001,,,,,,,
,,,,,,,,,,,,,,,,,,,,,,70,-74,20,75,-52,22,22,0.353220486,-0.286085069,1,0,0,0.0835,submitButton,17.23504274,0.369175347,-0.2671875,0,0,0,2,50,170,58,1,74,67360,blockT,180,2022-02-16_21h28.43.630,orientation adjustment block,2021.2.3,MacIntel,60.0024001,,,,,,,
,,,,,,,,,,,,,,,,,,,,,,21.11111111,45,20,75,66.11111111,21.11111111,21.11111111,-0.216371528,-0.388250868,1,0,0,0.8337,submitButton,17.25973107,0.29593316,-0.443342014,0,0,0,2,51,171,29,1,45,67360,blockT,180,2022-02-16_21h28.43.630,orientation adjustment block,2021.2.3,MacIntel,60.0024001,,,,,,,
,,,,,,,,,,,,,,,,,,,,,,-25.55555556,-63,20,75,-63.55555556,0.555555556,0.555555556,0.139453125,-0.296675347,1,0,0,0.1168,submitButton,17.15400844,-0.229392361,-0.388198785,0,0,0,2,52,172,47,1,63,67360,blockT,180,2022-02-16_21h28.43.630,orientation adjustment block,2021.2.3,MacIntel,60.0024001,,,,,,,
,,,,,,,,,,,,,,,,,,,,,,-71.66666667,-36,20,75,-51.66666667,15.66666667,15.66666667,0.220551215,-0.265802951,1,0,0,0.1335,submitButton,17.14465409,-0.235863715,-0.402217882,0,0,0,2,53,173,20,1,36,67360,blockT,180,2022-02-16_21h28.43.630,orientation adjustment block,2021.2.3,MacIntel,60.0024001,,,,,,,
,,,,,,,,,,,,,,,,,,,,,,-65,-59,20,75,-55,4,4,0.197469618,-0.283146701,1,0,0,0.2161,submitButton,17.0625,-0.278880208,-0.416397569,0,0,0,2,54,174,43,1,59,67360,blockT,180,2022-02-16_21h28.43.630,orientation adjustment block,2021.2.3,MacIntel,60.0024001,,,,,,,
,,,,,,,,,,,,,,,,,,,,,,60.55555556,-67,20,75,-66.44444444,0.555555556,0.555555556,0.38297309,-0.233459201,1,0,0,0.0999,submitButton,16.95997239,-0.258229167,-0.397335069,0,0,0,2,55,175,51,1,67,67360,blockT,180,2022-02-16_21h28.43.630,orientation adjustment block,2021.2.3,MacIntel,60.0024001,,,,,,,
,,,,,,,,,,,,,,,,,,,,,,33.33333333,17,20,75,50.33333333,33.33333333,33.33333333,-0.157252604,-0.408997396,1,0,0,0.3841,submitButton,17.06104252,-0.158363715,-0.409552951,0,0,0,2,56,176,1,1,17,67360,blockT,180,2022-02-16_21h28.43.630,orientation adjustment block,2021.2.3,MacIntel,60.0024001,,,,,,,
,,,,,,,,,,,,,,,,,,,,,,41.66666667,44,20,75,53.66666667,9.666666667,9.666666667,0.434644097,-0.292686632,1,0,0,0.2494,submitButton,17.01567825,-0.219782986,-0.423702257,0,0,0,2,57,177,28,1,44,67360,blockT,180,2022-02-16_21h28.43.630,orientation adjustment block,2021.2.3,MacIntel,60.0024001,,,,,,,
,,,,,,,,,,,,,,,,,,,,,,-62.77777778,-60,20,75,-70.77777778,10.77777778,10.77777778,0.173650174,-0.262100694,1,0,0,0.0671,submitButton,16.97764228,-0.311827257,-0.425729167,0,0,0,2,58,178,44,1,60,67360,blockT,180,2022-02-16_21h28.43.630,orientation adjustment block,2021.2.3,MacIntel,60.0024001,,,,,,,
,,,,,,,,,,,,,,,,,,,,,,-28.88888889,-51,20,75,-60.88888889,9.888888889,9.888888889,0.243719618,-0.279262153,1,0,0,0.2175,submitButton,16.93468013,-0.220989583,-0.379075521,0,0,0,2,59,179,35,1,51,67360,blockT,180,2022-02-16_21h28.43.630,orientation adjustment block,2021.2.3,MacIntel,60.0024001,,,,,,,
,,,,,,,,,,,,,,,,,,,,,,,,,,,,,,,,,,,,,,,,,,,,,,,,67360,blockT,180,2022-02-16_21h28.43.630,orientation adjustment block,2021.2.3,MacIntel,60.0024001,,0.206840278,-0.408020833,1,0,0,EndButtonTxt
