consentMouse1.x,consentMouse1.y,consentMouse1.leftButton,consentMouse1.midButton,consentMouse1.rightButton,consentMouse1.clicked_name,consent_Mouse.x,consent_Mouse.y,consent_Mouse.leftButton,consent_Mouse.midButton,consent_Mouse.rightButton,consent_Mouse.clicked_name,startMouse.x,startMouse.y,startMouse.leftButton,startMouse.midButton,startMouse.rightButton,startMouse_2.x,startMouse_2.y,startMouse_2.leftButton,startMouse_2.midButton,startMouse_2.rightButton,start_distance,fixedOri,minimalDistance,maxOri,this_ori,accuracy,presented_accuracy,submitMouse.x,submitMouse.y,submitMouse.leftButton,submitMouse.midButton,submitMouse.rightButton,submitMouse.time,submitMouse.clicked_name,block_accuracy,continueMouse.x,continueMouse.y,continueMouse.leftButton,continueMouse.midButton,continueMouse.rightButton,trials.thisRepN,trials.thisTrialN,trials.thisN,trials.thisIndex,trials.ran,startOri,participant,condition,nTrials,date,expName,psychopyVersion,OS,frameRate,continueMouse.clicked_name,EndButtonMouse.x,EndButtonMouse.y,EndButtonMouse.leftButton,EndButtonMouse.midButton,EndButtonMouse.rightButton,EndButtonMouse.clicked_name
0.449074094,-0.394444458,1,0,0,consent_button1,0.418518538,-0.394444458,1,0,0,consent_button,0.578703726,-0.186111121,1,0,0,0.363888908,-0.181481492,1,0,0,-30.55555556,69,20,75,-22.55555556,88.44444444,88.44444444,0.405555575,-0.312962975,1,0,0,5.2823,submitButton,88.44444444,0.05555557,-0.25185192,0,0,0,0,0,0,53,1,69,67378,blockT,180,2022-02-11_13h54.40.044,orientation adjustment block,2021.2.3,Win32,60.2373351,,,,,,,
,,,,,,,,,,,,,,,,,,,,,,62.22222222,-57,20,75,-58.77777778,1.777777778,1.777777778,0.406481614,-0.300000012,1,0,0,0.4168,submitButton,45.11111111,-0.226851842,-0.348148161,0,0,0,0,1,1,41,1,57,67378,blockT,180,2022-02-11_13h54.40.044,orientation adjustment block,2021.2.3,Win32,60.2373351,,,,,,,
,,,,,,,,,,,,,,,,,,,,,,-43.88888889,67,20,75,64.11111111,2.888888889,2.888888889,0.223148165,-0.288888957,1,0,0,0.0667,submitButton,31.03703704,-0.334259251,-0.397222236,0,0,0,0,2,2,51,1,67,67378,blockT,180,2022-02-11_13h54.40.044,orientation adjustment block,2021.2.3,Win32,60.2373351,,,,,,,
,,,,,,,,,,,,,,,,,,,,,,58.33333333,-45,20,75,-20.66666667,24.33333333,24.33333333,-0.222222212,-0.38703705,1,0,0,0.4001,submitButton,24.33333333,-0.219444434,-0.386111181,0,0,0,0,3,3,29,1,45,67378,blockT,180,2022-02-11_13h54.40.044,orientation adjustment block,2021.2.3,Win32,60.2373351,,,,,,,
,,,,,,,,,,,,,,,,,,,,,,62.77777778,-73,20,75,-65.22222222,7.777777778,7.777777778,-0.220370304,-0.384259272,1,0,0,0.5645,submitButton,16.05555556,0.573148283,-0.287037049,0,0,0,0,4,4,57,1,73,67378,blockT,180,2022-02-11_13h54.40.044,orientation adjustment block,2021.2.3,Win32,60.2373351,,,,,,,
,,,,,,,,,,,,,,,,,,,,,,-29.44444444,59,20,75,47.55555556,11.44444444,11.44444444,0.38611113,-0.286111123,1,0,0,0.0185,submitButton,14.51851852,-0.270370361,-0.36203705,0,0,0,0,5,5,43,1,59,67378,blockT,180,2022-02-11_13h54.40.044,orientation adjustment block,2021.2.3,Win32,60.2373351,,,,,,,
,,,,,,,,,,,,,,,,,,,,,,39.44444444,-18,20,75,-15.55555556,2.444444444,2.444444444,0.387963095,-0.287962975,1,0,0,0.2644,submitButton,2.444444444,-0.248148082,-0.389814828,0,0,0,0,6,6,2,1,18,67378,blockT,180,2022-02-11_13h54.40.044,orientation adjustment block,2021.2.3,Win32,60.2373351,,,,,,,
,,,,,,,,,,,,,,,,,,,,,,59.44444444,50,20,75,227.4444444,2.555555556,2.555555556,0.238888906,-0.297222234,1,0,0,1.181,submitButton,2.5,-0.182407397,-0.39166668,0,0,0,0,7,7,34,1,50,67378,blockT,180,2022-02-11_13h54.40.044,orientation adjustment block,2021.2.3,Win32,60.2373351,,,,,,,
,,,,,,,,,,,,,,,,,,,,,,50.55555556,-23,20,75,-16.44444444,6.555555556,6.555555556,-0.346296288,-0.384259272,1,0,0,0.4489,submitButton,3.851851852,-0.353703696,-0.361111124,0,0,0,0,8,8,7,1,23,67378,blockT,180,2022-02-11_13h54.40.044,orientation adjustment block,2021.2.3,Win32,60.2373351,,,,,,,
,,,,,,,,,,,,,,,,,,,,,,-33.33333333,-65,20,75,-249.3333333,4.333333333,4.333333333,-0.213888879,-0.374074087,1,0,0,2.2144,submitButton,4.333333333,-0.211111044,-0.36666668,0,0,0,0,9,9,49,1,65,67378,blockT,180,2022-02-11_13h54.40.044,orientation adjustment block,2021.2.3,Win32,60.2373351,,,,,,,
,,,,,,,,,,,,,,,,,,,,,,-43.88888889,62,20,75,50.11111111,11.88888889,11.88888889,-0.278703695,-0.39537044,1,0,0,0.4507,submitButton,8.111111111,-0.305555547,-0.394444458,0,0,0,0,10,10,46,1,62,67378,blockT,180,2022-02-11_13h54.40.044,orientation adjustment block,2021.2.3,Win32,60.2373351,,,,,,,
,,,,,,,,,,,,,,,,,,,,,,60,-55,20,75,-34,21,21,-0.221296286,-0.36666668,1,0,0,0.498,submitButton,12.40740741,-0.212962953,-0.388888902,0,0,0,0,11,11,39,1,55,67378,blockT,180,2022-02-11_13h54.40.044,orientation adjustment block,2021.2.3,Win32,60.2373351,,,,,,,
,,,,,,,,,,,,,,,,,,,,,,-61.11111111,17,20,75,13.88888889,3.111111111,3.111111111,-0.218518509,-0.35740742,1,0,0,0.8313,submitButton,3.111111111,-0.176851841,-0.392592606,0,0,0,0,12,12,1,1,17,67378,blockT,180,2022-02-11_13h54.40.044,orientation adjustment block,2021.2.3,Win32,60.2373351,,,,,,,
,,,,,,,,,,,,,,,,,,,,,,23.33333333,39,20,75,45.33333333,6.333333333,6.333333333,0.374074206,-0.270370438,1,0,0,0.4816,submitButton,4.722222222,-0.349999992,-0.408333347,0,0,0,0,13,13,23,1,39,67378,blockT,180,2022-02-11_13h54.40.044,orientation adjustment block,2021.2.3,Win32,60.2373351,,,,,,,
,,,,,,,,,,,,,,,,,,,,,,50,29,20,75,41,12,12,0.403703723,-0.290740753,1,0,0,0.8315,submitButton,7.148148148,0.414814834,-0.407407421,1,0,0,0,14,14,13,1,29,67378,blockT,180,2022-02-11_13h54.40.044,orientation adjustment block,2021.2.3,Win32,60.2373351,continueButton,,,,,,
,,,,,,,,,,,,,,,,,,,,,,72.77777778,-60,20,75,100.7777778,19.22222222,19.22222222,-0.311111103,-0.397222236,1,0,0,1.4003,submitButton,19.22222222,0.281481499,-0.297222234,0,0,0,0,15,15,44,1,60,67378,blockT,180,2022-02-11_13h54.40.044,orientation adjustment block,2021.2.3,Win32,60.2373351,,,,,,,
,,,,,,,,,,,,,,,,,,,,,,-44.44444444,-75,20,75,-77.44444444,2.444444444,2.444444444,-0.247222213,-0.353703773,1,0,0,0.4154,submitButton,10.83333333,-0.266666601,-0.406481495,0,0,0,0,16,16,59,1,75,67378,blockT,180,2022-02-11_13h54.40.044,orientation adjustment block,2021.2.3,Win32,60.2373351,,,,,,,
,,,,,,,,,,,,,,,,,,,,,,21.66666667,-26,20,75,-18.33333333,7.666666667,7.666666667,-0.296296287,-0.412037051,1,0,0,0.4165,submitButton,9.777777778,-0.330555547,-0.40000007,0,0,0,0,17,17,10,1,26,67378,blockT,180,2022-02-11_13h54.40.044,orientation adjustment block,2021.2.3,Win32,60.2373351,,,,,,,
,,,,,,,,,,,,,,,,,,,,,,-55.55555556,-21,20,75,-202.5555556,1.555555556,1.555555556,0.352777796,-0.311111123,1,0,0,1.5481,submitButton,7.722222222,-0.371296289,-0.385185198,0,0,0,0,18,18,5,1,21,67378,blockT,180,2022-02-11_13h54.40.044,orientation adjustment block,2021.2.3,Win32,60.2373351,,,,,,,
,,,,,,,,,,,,,,,,,,,,,,70,68,20,75,231,17,17,0.211111128,-0.311111123,1,0,0,1.0838,submitButton,9.577777778,-0.34814814,-0.392592606,0,0,0,0,19,19,52,1,68,67378,blockT,180,2022-02-11_13h54.40.044,orientation adjustment block,2021.2.3,Win32,60.2373351,,,,,,,
,,,,,,,,,,,,,,,,,,,,,,-30.55555556,49,20,75,52.44444444,3.444444444,3.444444444,-0.371296289,-0.424074088,1,0,0,0.2667,submitButton,8.555555556,-0.409259252,-0.442592607,0,0,0,0,20,20,33,1,49,67378,blockT,180,2022-02-11_13h54.40.044,orientation adjustment block,2021.2.3,Win32,60.2373351,,,,,,,
,,,,,,,,,,,,,,,,,,,,,,51.66666667,48,20,75,219.6666667,8.333333333,8.333333333,0.200925942,-0.312037106,1,0,0,1.8152,submitButton,8.523809524,-0.283333324,-0.403703717,0,0,0,0,21,21,32,1,48,67378,blockT,180,2022-02-11_13h54.40.044,orientation adjustment block,2021.2.3,Win32,60.2373351,,,,,,,
,,,,,,,,,,,,,,,,,,,,,,61.66666667,-58,20,75,-40.33333333,17.66666667,17.66666667,-0.185185175,-0.401851865,1,0,0,0.5314,submitButton,9.666666667,-0.246296287,-0.370370383,0,0,0,0,22,22,42,1,58,67378,blockT,180,2022-02-11_13h54.40.044,orientation adjustment block,2021.2.3,Win32,60.2373351,,,,,,,
,,,,,,,,,,,,,,,,,,,,,,22.77777778,-46,20,75,-46.22222222,0.222222222,0.222222222,-0.282407398,-0.378703717,1,0,0,0.1495,submitButton,8.617283951,-0.295370362,-0.372222292,0,0,0,0,23,23,30,1,46,67378,blockT,180,2022-02-11_13h54.40.044,orientation adjustment block,2021.2.3,Win32,60.2373351,,,,,,,
,,,,,,,,,,,,,,,,,,,,,,-23.88888889,-64,20,75,-61.88888889,2.111111111,2.111111111,-0.371296289,-0.407407421,1,0,0,0.7474,submitButton,7.966666667,-0.371296289,-0.407407421,0,0,0,0,24,24,48,1,64,67378,blockT,180,2022-02-11_13h54.40.044,orientation adjustment block,2021.2.3,Win32,60.2373351,,,,,,,
,,,,,,,,,,,,,,,,,,,,,,-52.77777778,72,20,75,53.22222222,18.77777778,18.77777778,-0.248148082,-0.387962976,1,0,0,0.3644,submitButton,8.949494949,-0.287037028,-0.397222236,0,0,0,0,25,25,56,1,72,67378,blockT,180,2022-02-11_13h54.40.044,orientation adjustment block,2021.2.3,Win32,60.2373351,,,,,,,
,,,,,,,,,,,,,,,,,,,,,,-56.11111111,53,20,75,35.88888889,17.11111111,17.11111111,0.237037054,-0.304629642,1,0,0,0.2967,submitButton,9.62962963,-0.266666601,-0.39166668,0,0,0,0,26,26,37,1,53,67378,blockT,180,2022-02-11_13h54.40.044,orientation adjustment block,2021.2.3,Win32,60.2373351,,,,,,,
,,,,,,,,,,,,,,,,,,,,,,-22.22222222,32,20,75,28.77777778,3.222222222,3.222222222,-0.292592584,-0.392592606,1,0,0,0.0662,submitButton,9.136752137,-0.405555548,-0.425000014,0,0,0,0,27,27,16,1,32,67378,blockT,180,2022-02-11_13h54.40.044,orientation adjustment block,2021.2.3,Win32,60.2373351,,,,,,,
,,,,,,,,,,,,,,,,,,,,,,-27.22222222,37,20,75,34.77777778,2.222222222,2.222222222,0.211111128,-0.321296365,1,0,0,0.0664,submitButton,8.642857143,-0.449999993,-0.437037108,0,0,0,0,28,28,21,1,37,67378,blockT,180,2022-02-11_13h54.40.044,orientation adjustment block,2021.2.3,Win32,60.2373351,,,,,,,
,,,,,,,,,,,,,,,,,,,,,,21.11111111,43,20,75,53.11111111,10.11111111,10.11111111,-0.381481474,-0.368518531,1,0,0,0.6317,submitButton,8.740740741,0.333333352,-0.41666668,1,0,0,0,29,29,27,1,43,67378,blockT,180,2022-02-11_13h54.40.044,orientation adjustment block,2021.2.3,Win32,60.2373351,continueButton,,,,,,
,,,,,,,,,,,,,,,,,,,,,,60.55555556,-47,20,75,-38.44444444,8.555555556,8.555555556,0.378703836,-0.307407476,1,0,0,0.2989,submitButton,8.729166667,-0.004629616,-0.312962975,0,0,0,0,30,30,31,1,47,67378,blockT,180,2022-02-11_13h54.40.044,orientation adjustment block,2021.2.3,Win32,60.2373351,,,,,,,
,,,,,,,,,,,,,,,,,,,,,,-31.66666667,-44,20,75,-218.6666667,5.333333333,5.333333333,0.430555575,-0.305555568,1,0,0,1.5982,submitButton,8.529411765,-0.412962956,-0.378703717,0,0,0,0,31,31,28,1,44,67378,blockT,180,2022-02-11_13h54.40.044,orientation adjustment block,2021.2.3,Win32,60.2373351,,,,,,,
,,,,,,,,,,,,,,,,,,,,,,-75,-54,20,75,-57,3,3,0.162962979,-0.310185197,1,0,0,0.4169,submitButton,8.222222222,-0.342592584,-0.375925939,0,0,0,0,32,32,38,1,54,67378,blockT,180,2022-02-11_13h54.40.044,orientation adjustment block,2021.2.3,Win32,60.2373351,,,,,,,
,,,,,,,,,,,,,,,,,,,,,,50,19,20,75,30,11,11,0.394444464,-0.264814826,1,0,0,0.4152,submitButton,8.368421053,-0.412962956,-0.417592606,0,0,0,0,33,33,3,1,19,67378,blockT,180,2022-02-11_13h54.40.044,orientation adjustment block,2021.2.3,Win32,60.2373351,,,,,,,
,,,,,,,,,,,,,,,,,,,,,,52.77777778,-61,20,75,-44.22222222,16.77777778,16.77777778,-0.509259254,-0.413888959,1,0,0,0.3637,submitButton,8.788888889,-0.476851846,-0.380555569,0,0,0,0,34,34,45,1,61,67378,blockT,180,2022-02-11_13h54.40.044,orientation adjustment block,2021.2.3,Win32,60.2373351,,,,,,,
,,,,,,,,,,,,,,,,,,,,,,68.88888889,16,20,75,202.8888889,6.888888889,6.888888889,0.216666683,-0.304629642,1,0,0,1.5645,submitButton,8.698412698,-0.368518511,-0.358333403,0,0,0,0,35,35,0,1,16,67378,blockT,180,2022-02-11_13h54.40.044,orientation adjustment block,2021.2.3,Win32,60.2373351,,,,,,,
,,,,,,,,,,,,,,,,,,,,,,-25.55555556,74,20,75,75.44444444,1.444444444,1.444444444,-0.231481472,-0.360185198,1,0,0,0.6483,submitButton,8.368686869,0.065740755,-0.330555624,0,0,0,0,36,36,58,1,74,67378,blockT,180,2022-02-11_13h54.40.044,orientation adjustment block,2021.2.3,Win32,60.2373351,,,,,,,
,,,,,,,,,,,,,,,,,,,,,,-40,-41,20,75,-51,10,10,0.141666682,-0.308333345,1,0,0,0.0348,submitButton,8.439613527,-0.408333326,-0.410185199,0,0,0,0,37,37,25,1,41,67378,blockT,180,2022-02-11_13h54.40.044,orientation adjustment block,2021.2.3,Win32,60.2373351,,,,,,,
,,,,,,,,,,,,,,,,,,,,,,-28.33333333,22,20,75,13.66666667,8.333333333,8.333333333,-0.355555548,-0.385185198,1,0,0,0.515,submitButton,8.435185185,-0.363888881,-0.384259272,0,0,0,0,38,38,6,1,22,67378,blockT,180,2022-02-11_13h54.40.044,orientation adjustment block,2021.2.3,Win32,60.2373351,,,,,,,
,,,,,,,,,,,,,,,,,,,,,,-74.44444444,20,20,75,-142.4444444,17.55555556,17.55555556,-0.346296288,-0.383333346,1,0,0,1.6834,submitButton,8.8,-0.349074066,-0.412037051,0,0,0,0,39,39,4,1,20,67378,blockT,180,2022-02-11_13h54.40.044,orientation adjustment block,2021.2.3,Win32,60.2373351,,,,,,,
,,,,,,,,,,,,,,,,,,,,,,35.55555556,-66,20,75,-53.44444444,12.55555556,12.55555556,-0.473148142,-0.409259329,1,0,0,0.384,submitButton,8.944444444,-0.41666666,-0.403703717,0,0,0,0,40,40,50,1,66,67378,blockT,180,2022-02-11_13h54.40.044,orientation adjustment block,2021.2.3,Win32,60.2373351,,,,,,,
,,,,,,,,,,,,,,,,,,,,,,61.11111111,-36,20,75,-15.88888889,20.11111111,20.11111111,-0.234259193,-0.403703717,1,0,0,0.4143,submitButton,9.358024691,-0.268518509,-0.429629643,0,0,0,0,41,41,20,1,36,67378,blockT,180,2022-02-11_13h54.40.044,orientation adjustment block,2021.2.3,Win32,60.2373351,,,,,,,
,,,,,,,,,,,,,,,,,,,,,,50,-24,20,75,-16,8,8,-0.193518508,-0.403703717,1,0,0,0.5308,submitButton,9.30952381,-0.242592583,-0.390740811,0,0,0,0,42,42,8,1,24,67378,blockT,180,2022-02-11_13h54.40.044,orientation adjustment block,2021.2.3,Win32,60.2373351,,,,,,,
,,,,,,,,,,,,,,,,,,,,,,-74.44444444,-31,20,75,-206.4444444,4.555555556,4.555555556,-0.243518452,-0.466666681,1,0,0,1.5474,submitButton,9.14559387,-0.421296289,-0.384259272,0,0,0,0,43,43,15,1,31,67378,blockT,180,2022-02-11_13h54.40.044,orientation adjustment block,2021.2.3,Win32,60.2373351,,,,,,,
,,,,,,,,,,,,,,,,,,,,,,45.55555556,52,20,75,218.5555556,13.44444444,13.44444444,0.212037053,-0.289814827,1,0,0,1.1806,submitButton,9.288888889,0.303703721,-0.410185199,1,0,0,0,44,44,36,1,52,67378,blockT,180,2022-02-11_13h54.40.044,orientation adjustment block,2021.2.3,Win32,60.2373351,continueButton,,,,,,
,,,,,,,,,,,,,,,,,,,,,,43.33333333,-51,20,75,-28.66666667,22.33333333,22.33333333,-0.292592584,-0.405555569,1,0,0,0.8329,submitButton,9.709677419,-0.287962954,-0.394444458,0,0,0,0,45,45,35,1,51,67378,blockT,180,2022-02-11_13h54.40.044,orientation adjustment block,2021.2.3,Win32,60.2373351,,,,,,,
,,,,,,,,,,,,,,,,,,,,,,43.33333333,-70,20,75,-58.66666667,11.33333333,11.33333333,0.400925954,-0.247222265,1,0,0,0.1329,submitButton,9.760416667,-0.169444402,-0.402777778,0,0,0,0,46,46,54,1,70,67378,blockT,180,2022-02-11_13h54.40.044,orientation adjustment block,2021.2.3,Win32,60.2373351,,,,,,,
,,,,,,,,,,,,,,,,,,,,,,-65.55555556,25,20,75,29.44444444,4.444444444,4.444444444,0.226851852,-0.317592621,1,0,0,0.8976,submitButton,9.599326599,-0.551851838,-0.40370369,0,0,0,0,47,47,9,1,25,67378,blockT,180,2022-02-11_13h54.40.044,orientation adjustment block,2021.2.3,Win32,60.2373351,,,,,,,
,,,,,,,,,,,,,,,,,,,,,,51.66666667,-40,20,75,-40.33333333,0.333333333,0.333333333,-0.4074074,-0.369444457,1,0,0,0.6143,submitButton,9.326797386,-0.310185177,-0.393518532,0,0,0,0,48,48,24,1,40,67378,blockT,180,2022-02-11_13h54.40.044,orientation adjustment block,2021.2.3,Win32,60.2373351,,,,,,,
,,,,,,,,,,,,,,,,,,,,,,-68.33333333,-35,20,75,-207.3333333,7.666666667,7.666666667,0.403703723,-0.287037049,1,0,0,1.2647,submitButton,9.279365079,-0.310185177,-0.389814828,0,0,0,0,49,49,19,1,35,67378,blockT,180,2022-02-11_13h54.40.044,orientation adjustment block,2021.2.3,Win32,60.2373351,,,,,,,
,,,,,,,,,,,,,,,,,,,,,,-67.22222222,63,20,75,-50.22222222,66.77777778,66.77777778,0.389814834,-0.280555567,1,0,0,1.081,submitButton,10.87654321,-0.405555548,-0.377777791,0,0,0,0,50,50,47,1,63,67378,blockT,180,2022-02-11_13h54.40.044,orientation adjustment block,2021.2.3,Win32,60.2373351,,,,,,,
,,,,,,,,,,,,,,,,,,,,,,42.22222222,-38,20,75,-31.77777778,6.222222222,6.222222222,-0.401851845,-0.385185198,1,0,0,0.3509,submitButton,10.75075075,-0.316666658,-0.379629643,0,0,0,0,51,51,22,1,38,67378,blockT,180,2022-02-11_13h54.40.044,orientation adjustment block,2021.2.3,Win32,60.2373351,,,,,,,
,,,,,,,,,,,,,,,,,,,,,,48.33333333,-42,20,75,-36.66666667,5.333333333,5.333333333,-0.304629621,-0.353703773,1,0,0,0.3478,submitButton,10.60818713,-0.249074065,-0.394444458,0,0,0,0,52,52,26,1,42,67378,blockT,180,2022-02-11_13h54.40.044,orientation adjustment block,2021.2.3,Win32,60.2373351,,,,,,,
,,,,,,,,,,,,,,,,,,,,,,-45,-33,20,75,-213,0,0,-0.322222214,-0.409259329,1,0,0,1.9798,submitButton,10.33618234,-0.332407399,-0.410185199,0,0,0,0,53,53,17,1,33,67378,blockT,180,2022-02-11_13h54.40.044,orientation adjustment block,2021.2.3,Win32,60.2373351,,,,,,,
,,,,,,,,,,,,,,,,,,,,,,-51.66666667,56,20,75,32.33333333,23.66666667,23.66666667,-0.37314814,-0.398148162,1,0,0,0.1168,submitButton,10.66944444,-0.359259251,-0.40000007,0,0,0,0,54,54,40,1,56,67378,blockT,180,2022-02-11_13h54.40.044,orientation adjustment block,2021.2.3,Win32,60.2373351,,,,,,,
,,,,,,,,,,,,,,,,,,,,,,40.55555556,-28,20,75,-24.44444444,3.555555556,3.555555556,-0.426851845,-0.406481495,1,0,0,0.2479,submitButton,10.49593496,-0.113888821,-0.35277779,0,0,0,0,55,55,12,1,28,67378,blockT,180,2022-02-11_13h54.40.044,orientation adjustment block,2021.2.3,Win32,60.2373351,,,,,,,
,,,,,,,,,,,,,,,,,,,,,,41.66666667,27,20,75,205.6666667,1.333333333,1.333333333,-0.257407341,-0.426851866,1,0,0,1.8976,submitButton,10.27777778,-0.215740674,-0.415740754,0,0,0,0,56,56,11,1,27,67378,blockT,180,2022-02-11_13h54.40.044,orientation adjustment block,2021.2.3,Win32,60.2373351,,,,,,,
,,,,,,,,,,,,,,,,,,,,,,64.44444444,-71,20,75,-48.55555556,22.44444444,22.44444444,-0.345370362,-0.400925939,1,0,0,0.7,submitButton,10.56072351,-0.320370362,-0.397222236,0,0,0,0,57,57,55,1,71,67378,blockT,180,2022-02-11_13h54.40.044,orientation adjustment block,2021.2.3,Win32,60.2373351,,,,,,,
,,,,,,,,,,,,,,,,,,,,,,-52.77777778,-34,20,75,-208.7777778,5.222222222,5.222222222,0.335185203,-0.287962975,1,0,0,1.7659,submitButton,10.43939394,-0.279629621,-0.372222292,0,0,0,0,58,58,18,1,34,67378,blockT,180,2022-02-11_13h54.40.044,orientation adjustment block,2021.2.3,Win32,60.2373351,,,,,,,
,,,,,,,,,,,,,,,,,,,,,,-71.11111111,30,20,75,23.88888889,6.111111111,6.111111111,-0.211111044,-0.38703705,1,0,0,0.7001,submitButton,10.34320988,0.352777796,-0.384259272,1,0,0,0,59,59,14,1,30,67378,blockT,180,2022-02-11_13h54.40.044,orientation adjustment block,2021.2.3,Win32,60.2373351,continueButton,,,,,,
,,,,,,,,,,,,,,,,,,,,,,-65,-64,20,75,-105,41,41,-0.525925921,-0.441666737,1,0,0,0.4162,submitButton,11.00966184,-0.362037029,-0.387962976,0,0,0,1,0,60,48,1,64,67378,blockT,180,2022-02-11_13h54.40.044,orientation adjustment block,2021.2.3,Win32,60.2373351,,,,,,,
,,,,,,,,,,,,,,,,,,,,,,-71.66666667,-32,20,75,-104.6666667,72.66666667,72.66666667,0.467592613,-0.284259327,1,0,0,0.5169,submitButton,12.321513,-0.273148139,-0.375925939,0,0,0,1,1,61,16,1,32,67378,blockT,180,2022-02-11_13h54.40.044,orientation adjustment block,2021.2.3,Win32,60.2373351,,,,,,,
,,,,,,,,,,,,,,,,,,,,,,-73.33333333,-26,20,75,29.66666667,55.66666667,55.66666667,-0.34814814,-0.393518532,1,0,0,1.833,submitButton,13.22453704,-0.374999992,-0.402777791,0,0,0,1,2,62,10,1,26,67378,blockT,180,2022-02-11_13h54.40.044,orientation adjustment block,2021.2.3,Win32,60.2373351,,,,,,,
,,,,,,,,,,,,,,,,,,,,,,68.88888889,-28,20,75,94.88888889,57.11111111,57.11111111,-0.38703703,-0.40000007,1,0,0,0.7816,submitButton,14.12018141,-0.462037002,-0.414814828,0,0,0,1,3,63,12,1,28,67378,blockT,180,2022-02-11_13h54.40.044,orientation adjustment block,2021.2.3,Win32,60.2373351,,,,,,,
,,,,,,,,,,,,,,,,,,,,,,-23.88888889,-44,20,75,-89.88888889,45.88888889,45.88888889,-0.334259251,-0.405555569,1,0,0,0.4817,submitButton,14.75555556,-0.310185177,-0.393518532,0,0,0,1,4,64,28,1,44,67378,blockT,180,2022-02-11_13h54.40.044,orientation adjustment block,2021.2.3,Win32,60.2373351,,,,,,,
,,,,,,,,,,,,,,,,,,,,,,-26.11111111,25,20,75,49.88888889,24.88888889,24.88888889,0.23796298,-0.287962975,1,0,0,0.0167,submitButton,14.95424837,-0.476851846,-0.386111181,0,0,0,1,5,65,9,1,25,67378,blockT,180,2022-02-11_13h54.40.044,orientation adjustment block,2021.2.3,Win32,60.2373351,,,,,,,
,,,,,,,,,,,,,,,,,,,,,,30,35,20,75,-31,66,66,-0.198148138,-0.394444458,1,0,0,1.65,submitButton,15.93589744,-0.241666657,-0.380555569,0,0,0,1,6,66,19,1,35,67378,blockT,180,2022-02-11_13h54.40.044,orientation adjustment block,2021.2.3,Win32,60.2373351,,,,,,,
,,,,,,,,,,,,,,,,,,,,,,-32.22222222,40,20,75,7.777777778,32.22222222,32.22222222,-0.247222213,-0.385185198,1,0,0,0.0479,submitButton,16.24318658,-0.13240734,-0.362963032,0,0,0,1,7,67,24,1,40,67378,blockT,180,2022-02-11_13h54.40.044,orientation adjustment block,2021.2.3,Win32,60.2373351,,,,,,,
,,,,,,,,,,,,,,,,,,,,,,-38.88888889,-31,20,75,21.11111111,52.11111111,52.11111111,-0.135185174,-0.370370383,1,0,0,1.2146,submitButton,16.90740741,-0.347222214,-0.360185198,0,0,0,1,8,68,15,1,31,67378,blockT,180,2022-02-11_13h54.40.044,orientation adjustment block,2021.2.3,Win32,60.2373351,,,,,,,
,,,,,,,,,,,,,,,,,,,,,,35.55555556,-66,20,75,34.55555556,79.44444444,79.44444444,-0.346296288,-0.375925939,1,0,0,0.4978,submitButton,18.04444444,0.190740757,-0.259259271,0,0,0,1,9,69,50,1,66,67378,blockT,180,2022-02-11_13h54.40.044,orientation adjustment block,2021.2.3,Win32,60.2373351,,,,,,,
,,,,,,,,,,,,,,,,,,,,,,58.88888889,38,20,75,58.88888889,20.88888889,20.88888889,-0.448148113,-0.411111125,1,0,0,0.2482,submitButton,18.0952381,0.154629645,-0.265740809,0,0,0,1,10,70,22,1,38,67378,blockT,180,2022-02-11_13h54.40.044,orientation adjustment block,2021.2.3,Win32,60.2373351,,,,,,,
,,,,,,,,,,,,,,,,,,,,,,-32.77777778,73,20,75,95.22222222,22.22222222,22.22222222,-0.26388888,-0.36666668,1,0,0,0.3305,submitButton,18.16764133,-0.154629619,-0.364814828,0,0,0,1,11,71,57,1,73,67378,blockT,180,2022-02-11_13h54.40.044,orientation adjustment block,2021.2.3,Win32,60.2373351,,,,,,,
,,,,,,,,,,,,,,,,,,,,,,-45,-20,20,75,-45,25,25,-0.229629563,-0.380555569,1,0,0,0.0169,submitButton,18.28544061,0.362037056,-0.270370438,0,0,0,1,12,72,4,1,20,67378,blockT,180,2022-02-11_13h54.40.044,orientation adjustment block,2021.2.3,Win32,60.2373351,,,,,,,
,,,,,,,,,,,,,,,,,,,,,,-35.55555556,-63,20,75,-133.5555556,70.55555556,70.55555556,-0.271296231,-0.405555569,1,0,0,0.3994,submitButton,19.17137476,-0.239814805,-0.397222236,0,0,0,1,13,73,47,1,63,67378,blockT,180,2022-02-11_13h54.40.044,orientation adjustment block,2021.2.3,Win32,60.2373351,,,,,,,
,,,,,,,,,,,,,,,,,,,,,,-61.11111111,-41,20,75,-102.1111111,61.11111111,61.11111111,-0.35277777,-0.272222234,1,0,0,0.3815,submitButton,19.87037037,0.387963095,-0.41666668,1,0,0,1,14,74,25,1,41,67378,blockT,180,2022-02-11_13h54.40.044,orientation adjustment block,2021.2.3,Win32,60.2373351,continueButton,,,,,,
,,,,,,,,,,,,,,,,,,,,,,51.11111111,57,20,75,199.1111111,37.88888889,37.88888889,-0.458333327,-0.385185198,1,0,0,1.4163,submitButton,20.16575592,-0.433333327,-0.381481551,0,0,0,1,15,75,41,1,57,67378,blockT,180,2022-02-11_13h54.40.044,orientation adjustment block,2021.2.3,Win32,60.2373351,,,,,,,
,,,,,,,,,,,,,,,,,,,,,,45,-72,20,75,-36,36,36,-0.374999992,-0.4046297,1,0,0,0.3657,submitButton,20.42114695,-0.449999993,-0.401851865,0,0,0,1,16,76,56,1,72,67378,blockT,180,2022-02-11_13h54.40.044,orientation adjustment block,2021.2.3,Win32,60.2373351,,,,,,,
,,,,,,,,,,,,,,,,,,,,,,48.33333333,54,20,75,98.33333333,44.33333333,44.33333333,0.3564815,-0.312037106,1,0,0,45.7649,submitButton,20.80070547,-0.224999934,-0.248148159,0,0,0,1,17,77,38,1,54,67378,blockT,180,2022-02-11_13h54.40.044,orientation adjustment block,2021.2.3,Win32,60.2373351,,,,,,,
,,,,,,,,,,,,,,,,,,,,,,65,-69,20,75,-32,37,37,0.414814834,-0.300925938,1,0,0,6.2494,submitButton,21.05381944,-0.411111104,-0.36666668,0,0,0,1,18,78,53,1,69,67378,blockT,180,2022-02-11_13h54.40.044,orientation adjustment block,2021.2.3,Win32,60.2373351,,,,,,,
,,,,,,,,,,,,,,,,,,,,,,43.33333333,-36,20,75,-29.66666667,6.333333333,6.333333333,-0.405555548,-0.461111125,1,0,0,0.3998,submitButton,20.82735043,-0.400925919,-0.405555569,0,0,0,1,19,79,20,1,36,67378,blockT,180,2022-02-11_13h54.40.044,orientation adjustment block,2021.2.3,Win32,60.2373351,,,,,,,
,,,,,,,,,,,,,,,,,,,,,,-27.22222222,-37,20,75,-42.22222222,5.222222222,5.222222222,-0.393518511,-0.460185199,1,0,0,0.7311,submitButton,20.59090909,-0.411111104,-0.406481495,0,0,0,1,20,80,21,1,37,67378,blockT,180,2022-02-11_13h54.40.044,orientation adjustment block,2021.2.3,Win32,60.2373351,,,,,,,
,,,,,,,,,,,,,,,,,,,,,,54.44444444,59,20,75,61.44444444,2.444444444,2.444444444,-0.340740733,-0.376851921,1,0,0,0.5646,submitButton,20.32006633,-0.330555547,-0.370370383,0,0,0,1,21,81,43,1,59,67378,blockT,180,2022-02-11_13h54.40.044,orientation adjustment block,2021.2.3,Win32,60.2373351,,,,,,,
,,,,,,,,,,,,,,,,,,,,,,34.44444444,-53,20,75,-42.55555556,10.44444444,10.44444444,-0.512037031,-0.398148162,1,0,0,0.4326,submitButton,20.1748366,-0.504629624,-0.402777791,0,0,0,1,22,82,37,1,53,67378,blockT,180,2022-02-11_13h54.40.044,orientation adjustment block,2021.2.3,Win32,60.2373351,,,,,,,
,,,,,,,,,,,,,,,,,,,,,,-68.33333333,29,20,75,-39.33333333,68.33333333,68.33333333,-0.3824074,-0.417592606,1,0,0,36.5986,submitButton,20.87278583,-0.324074066,-0.380555569,0,0,0,1,23,83,13,1,29,67378,blockT,180,2022-02-11_13h54.40.044,orientation adjustment block,2021.2.3,Win32,60.2373351,,,,,,,
,,,,,,,,,,,,,,,,,,,,,,-24.44444444,47,20,75,46.55555556,0.444444444,0.444444444,-0.341666659,-0.39537044,1,0,0,0.3681,submitButton,20.58095238,-0.341666659,-0.39537044,0,0,0,1,24,84,31,1,47,67378,blockT,180,2022-02-11_13h54.40.044,orientation adjustment block,2021.2.3,Win32,60.2373351,,,,,,,
,,,,,,,,,,,,,,,,,,,,,,-32.22222222,-65,20,75,-220.2222222,24.77777778,24.77777778,-0.297222213,-0.367592662,1,0,0,1.9147,submitButton,20.6400626,-0.425925919,-0.358333403,0,0,0,1,25,85,49,1,65,67378,blockT,180,2022-02-11_13h54.40.044,orientation adjustment block,2021.2.3,Win32,60.2373351,,,,,,,
,,,,,,,,,,,,,,,,,,,,,,-42.22222222,-45,20,75,-208.2222222,16.77777778,16.77777778,-0.360185177,-0.413888959,1,0,0,1.8138,submitButton,20.58641975,-0.342592584,-0.360185198,0,0,0,1,26,86,29,1,45,67378,blockT,180,2022-02-11_13h54.40.044,orientation adjustment block,2021.2.3,Win32,60.2373351,,,,,,,
,,,,,,,,,,,,,,,,,,,,,,-71.11111111,58,20,75,24.88888889,33.11111111,33.11111111,-0.502777772,-0.403703717,1,0,0,0.7484,submitButton,20.75799087,-0.470370364,-0.373148161,0,0,0,1,27,87,42,1,58,67378,blockT,180,2022-02-11_13h54.40.044,orientation adjustment block,2021.2.3,Win32,60.2373351,,,,,,,
,,,,,,,,,,,,,,,,,,,,,,-43.33333333,-30,20,75,-44.33333333,14.33333333,14.33333333,-0.351851844,-0.39166668,1,0,0,0.65,submitButton,20.67117117,-0.335185177,-0.367592662,0,0,0,1,28,88,14,1,30,67378,blockT,180,2022-02-11_13h54.40.044,orientation adjustment block,2021.2.3,Win32,60.2373351,,,,,,,
,,,,,,,,,,,,,,,,,,,,,,65,74,20,75,209,45,45,-0.310185177,-0.384259272,1,0,0,0.7307,submitButton,20.99555556,0.342592611,-0.402777791,1,0,0,1,29,89,58,1,74,67378,blockT,180,2022-02-11_13h54.40.044,orientation adjustment block,2021.2.3,Win32,60.2373351,continueButton,,,,,,
,,,,,,,,,,,,,,,,,,,,,,73.88888889,-21,20,75,-16.11111111,4.888888889,4.888888889,-0.470370364,-0.375000013,1,0,0,1.1819,submitButton,20.78362573,-0.470370364,-0.367592662,0,0,0,1,30,90,5,1,21,67378,blockT,180,2022-02-11_13h54.40.044,orientation adjustment block,2021.2.3,Win32,60.2373351,,,,,,,
,,,,,,,,,,,,,,,,,,,,,,20.55555556,27,20,75,31.55555556,4.555555556,4.555555556,0.364814947,-0.299074086,1,0,0,0.0993,submitButton,20.57287157,-0.517592559,-0.389814828,0,0,0,1,31,91,11,1,27,67378,blockT,180,2022-02-11_13h54.40.044,orientation adjustment block,2021.2.3,Win32,60.2373351,,,,,,,
,,,,,,,,,,,,,,,,,,,,,,-69.44444444,17,20,75,15.55555556,1.444444444,1.444444444,-0.217592583,-0.379629643,1,0,0,1.1825,submitButton,20.32763533,-0.217592583,-0.379629643,0,0,0,1,32,92,1,1,17,67378,blockT,180,2022-02-11_13h54.40.044,orientation adjustment block,2021.2.3,Win32,60.2373351,,,,,,,
,,,,,,,,,,,,,,,,,,,,,,-72.22222222,50,20,75,38.77777778,11.22222222,11.22222222,-0.357407399,-0.417592606,1,0,0,0.8816,submitButton,20.21237693,-0.333333325,-0.447222236,0,0,0,1,33,93,34,1,50,67378,blockT,180,2022-02-11_13h54.40.044,orientation adjustment block,2021.2.3,Win32,60.2373351,,,,,,,
,,,,,,,,,,,,,,,,,,,,,,30,-61,20,75,-60,1,1,-0.37777777,-0.387962976,1,0,0,0.5811,submitButton,19.97222222,-0.427777771,-0.331481494,0,0,0,1,34,94,45,1,61,67378,blockT,180,2022-02-11_13h54.40.044,orientation adjustment block,2021.2.3,Win32,60.2373351,,,,,,,
,,,,,,,,,,,,,,,,,,,,,,34.44444444,19,20,75,63.44444444,44.44444444,44.44444444,-0.236111101,-0.383333346,1,0,0,0.7475,submitButton,20.27434842,-0.232407398,-0.378703717,0,0,0,1,35,95,3,1,19,67378,blockT,180,2022-02-11_13h54.40.044,orientation adjustment block,2021.2.3,Win32,60.2373351,,,,,,,
,,,,,,,,,,,,,,,,,,,,,,72.77777778,60,20,75,157.7777778,82.22222222,82.22222222,0.194444461,-0.270370438,1,0,0,67.7135,submitButton,21.0298103,-0.37314814,-0.365740754,0,0,0,1,36,96,44,1,60,67378,blockT,180,2022-02-11_13h54.40.044,orientation adjustment block,2021.2.3,Win32,60.2373351,,,,,,,
,,,,,,,,,,,,,,,,,,,,,,-30.55555556,-22,20,75,-29.55555556,7.555555556,7.555555556,0.17407409,-0.276851863,1,0,0,0.2494,submitButton,20.86746988,-0.34814814,-0.339814884,0,0,0,1,37,97,6,1,22,67378,blockT,180,2022-02-11_13h54.40.044,orientation adjustment block,2021.2.3,Win32,60.2373351,,,,,,,
,,,,,,,,,,,,,,,,,,,,,,-68.33333333,-46,20,75,-213.3333333,12.66666667,12.66666667,0.398148167,-0.262962974,1,0,0,1.0008,submitButton,20.76984127,-0.142592581,-0.33703705,0,0,0,1,38,98,30,1,46,67378,blockT,180,2022-02-11_13h54.40.044,orientation adjustment block,2021.2.3,Win32,60.2373351,,,,,,,
,,,,,,,,,,,,,,,,,,,,,,-61.11111111,-62,20,75,-241.1111111,0.888888889,0.888888889,-0.356481474,-0.35740742,1,0,0,2.2478,submitButton,20.53594771,-0.325925918,-0.354629642,0,0,0,1,39,99,46,1,62,67378,blockT,180,2022-02-11_13h54.40.044,orientation adjustment block,2021.2.3,Win32,60.2373351,,,,,,,
,,,,,,,,,,,,,,,,,,,,,,35,34,20,75,36,2,2,-0.420370335,-0.42592594,1,0,0,1.2813,submitButton,20.32041344,-0.4074074,-0.377777791,0,0,0,1,40,100,18,1,34,67378,blockT,180,2022-02-11_13h54.40.044,orientation adjustment block,2021.2.3,Win32,60.2373351,,,,,,,
,,,,,,,,,,,,,,,,,,,,,,68.88888889,51,20,75,212.8888889,18.11111111,18.11111111,0.132407423,-0.321296365,1,0,0,1.6164,submitButton,20.29501916,-0.268518509,-0.35277779,0,0,0,1,41,101,35,1,51,67378,blockT,180,2022-02-11_13h54.40.044,orientation adjustment block,2021.2.3,Win32,60.2373351,,,,,,,
,,,,,,,,,,,,,,,,,,,,,,29.44444444,16,20,75,22.44444444,6.444444444,6.444444444,-0.219444434,-0.419444458,1,0,0,0.2807,submitButton,20.13762626,-0.234259193,-0.362963032,0,0,0,1,42,102,0,1,16,67378,blockT,180,2022-02-11_13h54.40.044,orientation adjustment block,2021.2.3,Win32,60.2373351,,,,,,,
,,,,,,,,,,,,,,,,,,,,,,41.66666667,-55,20,75,-47.33333333,7.666666667,7.666666667,-0.358333325,-0.363888902,1,0,0,0.3,submitButton,19.99750312,-0.264814806,-0.310185197,0,0,0,1,43,103,39,1,55,67378,blockT,180,2022-02-11_13h54.40.044,orientation adjustment block,2021.2.3,Win32,60.2373351,,,,,,,
,,,,,,,,,,,,,,,,,,,,,,37.77777778,52,20,75,216.7777778,15.22222222,15.22222222,-0.339814807,-0.412962977,1,0,0,2.0469,submitButton,19.94444444,0.328703722,-0.381481551,1,0,0,1,44,104,36,1,52,67378,blockT,180,2022-02-11_13h54.40.044,orientation adjustment block,2021.2.3,Win32,60.2373351,continueButton,,,,,,
,,,,,,,,,,,,,,,,,,,,,,31.66666667,-33,20,75,19.66666667,52.66666667,52.66666667,0.185185201,-0.347222235,1,0,0,0.1153,submitButton,20.3040293,-0.146296229,-0.379629643,0,0,0,1,45,105,17,1,33,67378,blockT,180,2022-02-11_13h54.40.044,orientation adjustment block,2021.2.3,Win32,60.2373351,,,,,,,
,,,,,,,,,,,,,,,,,,,,,,-62.22222222,-70,20,75,-224.2222222,25.77777778,25.77777778,-0.1361111,-0.384259272,1,0,0,1.0307,submitButton,20.36352657,-0.204629619,-0.375925939,0,0,0,1,46,106,54,1,70,67378,blockT,180,2022-02-11_13h54.40.044,orientation adjustment block,2021.2.3,Win32,60.2373351,,,,,,,
,,,,,,,,,,,,,,,,,,,,,,66.66666667,43,20,75,214.6666667,8.333333333,8.333333333,-0.25462962,-0.412037051,1,0,0,1.5333,submitButton,20.23416965,-0.247222213,-0.397222236,0,0,0,1,47,107,27,1,43,67378,blockT,180,2022-02-11_13h54.40.044,orientation adjustment block,2021.2.3,Win32,60.2373351,,,,,,,
,,,,,,,,,,,,,,,,,,,,,,70.55555556,-68,20,75,-49.44444444,18.55555556,18.55555556,0.31851865,-0.254629641,1,0,0,0.8311,submitButton,20.21631206,-0.287962954,-0.405555569,0,0,0,1,48,108,52,1,68,67378,blockT,180,2022-02-11_13h54.40.044,orientation adjustment block,2021.2.3,Win32,60.2373351,,,,,,,
,,,,,,,,,,,,,,,,,,,,,,66.66666667,23,20,75,189.6666667,13.33333333,13.33333333,-0.169444377,-0.401851865,1,0,0,1.5485,submitButton,20.14385965,-0.328703695,-0.380555569,0,0,0,1,49,109,7,1,23,67378,blockT,180,2022-02-11_13h54.40.044,orientation adjustment block,2021.2.3,Win32,60.2373351,,,,,,,
,,,,,,,,,,,,,,,,,,,,,,67.22222222,-49,20,75,-28.77777778,20.22222222,20.22222222,-0.319444436,-0.375925939,1,0,0,0.4813,submitButton,20.14467593,-0.347222214,-0.365740754,0,0,0,1,50,110,33,1,49,67378,blockT,180,2022-02-11_13h54.40.044,orientation adjustment block,2021.2.3,Win32,60.2373351,,,,,,,
,,,,,,,,,,,,,,,,,,,,,,28.33333333,18,20,75,24.33333333,6.333333333,6.333333333,-0.206481415,-0.386111181,1,0,0,0.6474,submitButton,20.00229095,-0.168518508,-0.365740754,0,0,0,1,51,111,2,1,18,67378,blockT,180,2022-02-11_13h54.40.044,orientation adjustment block,2021.2.3,Win32,60.2373351,,,,,,,
,,,,,,,,,,,,,,,,,,,,,,-71.11111111,24,20,75,19.88888889,4.111111111,4.111111111,0.243518535,-0.295370382,1,0,0,0.4473,submitButton,19.84013605,-0.172222212,-0.373148161,0,0,0,1,52,112,8,1,24,67378,blockT,180,2022-02-11_13h54.40.044,orientation adjustment block,2021.2.3,Win32,60.2373351,,,,,,,
,,,,,,,,,,,,,,,,,,,,,,-58.88888889,71,20,75,50.11111111,20.88888889,20.88888889,-0.231481472,-0.408333347,1,0,0,0.6007,submitButton,19.85072952,-0.211111044,-0.408333347,0,0,0,1,53,113,55,1,71,67378,blockT,180,2022-02-11_13h54.40.044,orientation adjustment block,2021.2.3,Win32,60.2373351,,,,,,,
,,,,,,,,,,,,,,,,,,,,,,-72.22222222,-42,20,75,-200.2222222,21.77777778,21.77777778,0.338888907,-0.298148217,1,0,0,1.1838,submitButton,19.87,-0.356481474,-0.417592606,0,0,0,1,54,114,26,1,42,67378,blockT,180,2022-02-11_13h54.40.044,orientation adjustment block,2021.2.3,Win32,60.2373351,,,,,,,
,,,,,,,,,,,,,,,,,,,,,,-25.55555556,48,20,75,40.44444444,7.555555556,7.555555556,-0.418518512,-0.417592606,1,0,0,0.3339,submitButton,19.74807481,-0.435185178,-0.402777791,0,0,0,1,55,115,32,1,48,67378,blockT,180,2022-02-11_13h54.40.044,orientation adjustment block,2021.2.3,Win32,60.2373351,,,,,,,
,,,,,,,,,,,,,,,,,,,,,,39.44444444,-39,20,75,-40.55555556,1.555555556,1.555555556,0.370370389,-0.287037049,1,0,0,0.1524,submitButton,19.56971678,-0.306481473,-0.379629643,0,0,0,1,56,116,23,1,39,67378,blockT,180,2022-02-11_13h54.40.044,orientation adjustment block,2021.2.3,Win32,60.2373351,,,,,,,
,,,,,,,,,,,,,,,,,,,,,,-59.44444444,75,20,75,56.55555556,18.44444444,18.44444444,-0.220370304,-0.370370383,1,0,0,0.6501,submitButton,19.5587918,-0.213888879,-0.388888902,0,0,0,1,57,117,59,1,75,67378,blockT,180,2022-02-11_13h54.40.044,orientation adjustment block,2021.2.3,Win32,60.2373351,,,,,,,
,,,,,,,,,,,,,,,,,,,,,,-23.88888889,-67,20,75,-60.88888889,6.111111111,6.111111111,0.204629646,-0.305555568,1,0,0,0.081,submitButton,19.42948718,-0.28425925,-0.353703773,0,0,0,1,58,118,51,1,67,67378,blockT,180,2022-02-11_13h54.40.044,orientation adjustment block,2021.2.3,Win32,60.2373351,,,,,,,
,,,,,,,,,,,,,,,,,,,,,,60,-56,20,75,-42,14,14,0.444444464,-0.287962975,1,0,0,0.4145,submitButton,19.37777778,0.476851872,-0.383333346,1,0,0,1,59,119,40,1,56,67378,blockT,180,2022-02-11_13h54.40.044,orientation adjustment block,2021.2.3,Win32,60.2373351,continueButton,,,,,,
,,,,,,,,,,,,,,,,,,,,,,-64.44444444,64,20,75,46.55555556,17.44444444,17.44444444,-0.341666659,-0.398148162,1,0,0,1.2476,submitButton,19.35953878,-0.387962955,-0.41666668,0,0,0,2,0,120,48,1,64,67378,blockT,180,2022-02-11_13h54.40.044,orientation adjustment block,2021.2.3,Win32,60.2373351,,,,,,,
,,,,,,,,,,,,,,,,,,,,,,-66.66666667,21,20,75,-157.6666667,1.333333333,1.333333333,0.388888908,-0.280555567,1,0,0,1.3977,submitButton,19.19106957,-0.25925925,-0.38703705,0,0,0,2,1,121,5,1,21,67378,blockT,180,2022-02-11_13h54.40.044,orientation adjustment block,2021.2.3,Win32,60.2373351,,,,,,,
,,,,,,,,,,,,,,,,,,,,,,47.77777778,59,20,75,227.7777778,11.22222222,11.22222222,-0.304629621,-0.39629631,1,0,0,24.8805,submitButton,19.11728395,-0.328703695,-0.36203705,0,0,0,2,2,122,43,1,59,67378,blockT,180,2022-02-11_13h54.40.044,orientation adjustment block,2021.2.3,Win32,60.2373351,,,,,,,
,,,,,,,,,,,,,,,,,,,,,,-42.22222222,-26,20,75,-30.22222222,4.222222222,4.222222222,-0.531481448,-0.429629643,1,0,0,1.2479,submitButton,18.98063201,-0.608333329,-0.374074087,0,0,0,2,3,123,10,1,26,67378,blockT,180,2022-02-11_13h54.40.044,orientation adjustment block,2021.2.3,Win32,60.2373351,,,,,,,
,,,,,,,,,,,,,,,,,,,,,,32.77777778,-65,20,75,-67.22222222,2.222222222,2.222222222,0.366666685,-0.307407476,1,0,0,0.1323,submitButton,18.82828283,-0.444444438,-0.412037051,0,0,0,2,4,124,49,1,65,67378,blockT,180,2022-02-11_13h54.40.044,orientation adjustment block,2021.2.3,Win32,60.2373351,,,,,,,
,,,,,,,,,,,,,,,,,,,,,,-31.66666667,-17,20,75,-21.66666667,4.666666667,4.666666667,0.229629646,-0.310185197,1,0,0,0.0335,submitButton,18.7007007,-0.366666659,-0.39629631,0,0,0,2,5,125,1,1,17,67378,blockT,180,2022-02-11_13h54.40.044,orientation adjustment block,2021.2.3,Win32,60.2373351,,,,,,,
,,,,,,,,,,,,,,,,,,,,,,70.55555556,-68,20,75,-47.44444444,20.55555556,20.55555556,-0.213888879,-0.432407478,1,0,0,15.797,submitButton,18.7172619,-0.274999991,-0.386111181,0,0,0,2,6,126,52,1,68,67378,blockT,180,2022-02-11_13h54.40.044,orientation adjustment block,2021.2.3,Win32,60.2373351,,,,,,,
,,,,,,,,,,,,,,,,,,,,,,60.55555556,-32,20,75,-29.44444444,2.555555556,2.555555556,-0.260185176,-0.397222236,1,0,0,1.2645,submitButton,18.57423795,-0.29351851,-0.40000007,0,0,0,2,7,127,16,1,32,67378,blockT,180,2022-02-11_13h54.40.044,orientation adjustment block,2021.2.3,Win32,60.2373351,,,,,,,
,,,,,,,,,,,,,,,,,,,,,,41.11111111,42,20,75,58.11111111,16.11111111,16.11111111,-0.372222215,-0.398148162,1,0,0,0.8834,submitButton,18.55263158,0.160185201,-0.05185186,0,0,0,2,8,128,26,1,42,67378,blockT,180,2022-02-11_13h54.40.044,orientation adjustment block,2021.2.3,Win32,60.2373351,,,,,,,
,,,,,,,,,,,,,,,,,,,,,,-46.66666667,-22,20,75,-38.66666667,16.66666667,16.66666667,-0.493518513,-0.423148218,1,0,0,28.116,submitButton,18.53623188,-0.493518513,-0.424074088,0,0,0,2,9,129,6,1,22,67378,blockT,180,2022-02-11_13h54.40.044,orientation adjustment block,2021.2.3,Win32,60.2373351,,,,,,,
,,,,,,,,,,,,,,,,,,,,,,22.77777778,-33,20,75,-36.22222222,3.222222222,3.222222222,0.064814815,0.04074072,1,0,0,0.1004,submitButton,18.40421456,-0.422222215,-0.474074089,0,0,0,2,10,130,17,1,33,67378,blockT,180,2022-02-11_13h54.40.044,orientation adjustment block,2021.2.3,Win32,60.2373351,,,,,,,
,,,,,,,,,,,,,,,,,,,,,,-31.66666667,-19,20,75,-23.66666667,4.666666667,4.666666667,-0.353703696,-0.409259329,1,0,0,0.8328,submitButton,18.28679962,-0.415740705,-0.351851865,0,0,0,2,11,131,3,1,19,67378,blockT,180,2022-02-11_13h54.40.044,orientation adjustment block,2021.2.3,Win32,60.2373351,,,,,,,
,,,,,,,,,,,,,,,,,,,,,,66.11111111,61,20,75,218.1111111,22.88888889,22.88888889,-0.312037028,-0.409259329,1,0,0,1.4996,submitButton,18.32580038,-0.299999991,-0.385185198,0,0,0,2,12,132,45,1,61,67378,blockT,180,2022-02-11_13h54.40.044,orientation adjustment block,2021.2.3,Win32,60.2373351,,,,,,,
,,,,,,,,,,,,,,,,,,,,,,-68.33333333,51,20,75,44.66666667,6.333333333,6.333333333,-0.292592584,-0.369444457,1,0,0,0.7835,submitButton,18.22502334,-0.345370362,-0.370370383,0,0,0,2,13,133,35,1,51,67378,blockT,180,2022-02-11_13h54.40.044,orientation adjustment block,2021.2.3,Win32,60.2373351,,,,,,,
,,,,,,,,,,,,,,,,,,,,,,-67.77777778,-43,20,75,-211.7777778,11.22222222,11.22222222,-0.432407401,-0.394444458,1,0,0,1.5314,submitButton,18.16666667,0.29259261,-0.392592606,1,0,0,2,14,134,27,1,43,67378,blockT,180,2022-02-11_13h54.40.044,orientation adjustment block,2021.2.3,Win32,60.2373351,continueButton,,,,,,
,,,,,,,,,,,,,,,,,,,,,,65,30,20,75,195,15,15,-0.337037029,-0.4046297,1,0,0,1.5147,submitButton,18.14049587,-0.371296289,-0.401851865,0,0,0,2,15,135,14,1,30,67378,blockT,180,2022-02-11_13h54.40.044,orientation adjustment block,2021.2.3,Win32,60.2373351,,,,,,,
,,,,,,,,,,,,,,,,,,,,,,-29.44444444,28,20,75,20.55555556,7.444444444,7.444444444,-0.235185175,-0.368518531,1,0,0,0.4317,submitButton,18.05282332,-0.248148082,-0.348148161,0,0,0,2,16,136,12,1,28,67378,blockT,180,2022-02-11_13h54.40.044,orientation adjustment block,2021.2.3,Win32,60.2373351,,,,,,,
,,,,,,,,,,,,,,,,,,,,,,65,16,20,75,25,9,9,0.377777797,-0.270370438,1,0,0,0.7306,submitButton,17.97922313,-0.262962954,-0.38703705,0,0,0,2,17,137,0,1,16,67378,blockT,180,2022-02-11_13h54.40.044,orientation adjustment block,2021.2.3,Win32,60.2373351,,,,,,,
,,,,,,,,,,,,,,,,,,,,,,-56.11111111,48,20,75,38.88888889,9.111111111,9.111111111,-0.412962956,-0.419444458,1,0,0,0.6649,submitButton,17.90770609,-0.459259253,-0.398148162,0,0,0,2,18,138,32,1,48,67378,blockT,180,2022-02-11_13h54.40.044,orientation adjustment block,2021.2.3,Win32,60.2373351,,,,,,,
,,,,,,,,,,,,,,,,,,,,,,59.44444444,54,20,75,215.4444444,18.55555556,18.55555556,-0.291666658,-0.405555569,1,0,0,1.3305,submitButton,17.91288889,-0.359259251,-0.361111124,0,0,0,2,19,139,38,1,54,67378,blockT,180,2022-02-11_13h54.40.044,orientation adjustment block,2021.2.3,Win32,60.2373351,,,,,,,
,,,,,,,,,,,,,,,,,,,,,,-22.77777778,-66,20,75,-233.7777778,12.22222222,12.22222222,0.364814947,-0.281481493,1,0,0,1.7643,submitButton,17.86772487,-0.391666659,-0.325925995,0,0,0,2,20,140,50,1,66,67378,blockT,180,2022-02-11_13h54.40.044,orientation adjustment block,2021.2.3,Win32,60.2373351,,,,,,,
,,,,,,,,,,,,,,,,,,,,,,31.66666667,40,20,75,52.66666667,12.66666667,12.66666667,-0.356481474,-0.38703705,1,0,0,0.8474,submitButton,17.82677165,-0.331481473,-0.383333346,0,0,0,2,21,141,24,1,40,67378,blockT,180,2022-02-11_13h54.40.044,orientation adjustment block,2021.2.3,Win32,60.2373351,,,,,,,
,,,,,,,,,,,,,,,,,,,,,,42.77777778,-31,20,75,-23.22222222,7.777777778,7.777777778,-0.217592583,-0.377777791,1,0,0,0.5158,submitButton,17.74826389,-0.239814805,-0.350000013,0,0,0,2,22,142,15,1,31,67378,blockT,180,2022-02-11_13h54.40.044,orientation adjustment block,2021.2.3,Win32,60.2373351,,,,,,,
,,,,,,,,,,,,,,,,,,,,,,37.22222222,72,20,75,230.2222222,21.77777778,21.77777778,-0.28888888,-0.359259272,1,0,0,1.899,submitButton,17.77950043,-0.388888881,-0.374074087,0,0,0,2,23,143,56,1,72,67378,blockT,180,2022-02-11_13h54.40.044,orientation adjustment block,2021.2.3,Win32,60.2373351,,,,,,,
,,,,,,,,,,,,,,,,,,,,,,35.55555556,60,20,75,66.55555556,6.555555556,6.555555556,-0.325925918,-0.400925939,1,0,0,0.5643,submitButton,17.69316239,-0.368518511,-0.39537044,0,0,0,2,24,144,44,1,60,67378,blockT,180,2022-02-11_13h54.40.044,orientation adjustment block,2021.2.3,Win32,60.2373351,,,,,,,
,,,,,,,,,,,,,,,,,,,,,,-75,23,20,75,19,4,4,-0.162037026,-0.379629643,1,0,0,1.6315,submitButton,17.58863444,-0.225925916,-0.359259272,0,0,0,2,25,145,7,1,23,67378,blockT,180,2022-02-11_13h54.40.044,orientation adjustment block,2021.2.3,Win32,60.2373351,,,,,,,
,,,,,,,,,,,,,,,,,,,,,,62.77777778,-49,20,75,-31.22222222,17.77777778,17.77777778,-0.347222214,-0.405555569,1,0,0,0.6835,submitButton,17.59006734,-0.355555548,-0.413888959,0,0,0,2,26,146,33,1,49,67378,blockT,180,2022-02-11_13h54.40.044,orientation adjustment block,2021.2.3,Win32,60.2373351,,,,,,,
,,,,,,,,,,,,,,,,,,,,,,73.33333333,57,20,75,207.3333333,29.66666667,29.66666667,-0.28425925,-0.401851865,1,0,0,1.081,submitButton,17.68086884,-0.324074066,-0.39166668,0,0,0,2,27,147,41,1,57,67378,blockT,180,2022-02-11_13h54.40.044,orientation adjustment block,2021.2.3,Win32,60.2373351,,,,,,,
,,,,,,,,,,,,,,,,,,,,,,31.66666667,-73,20,75,-69.33333333,3.666666667,3.666666667,-0.389814807,-0.392592606,1,0,0,0.2836,submitButton,17.57628524,-0.456481475,-0.390740811,0,0,0,2,28,148,57,1,73,67378,blockT,180,2022-02-11_13h54.40.044,orientation adjustment block,2021.2.3,Win32,60.2373351,,,,,,,
,,,,,,,,,,,,,,,,,,,,,,68.88888889,-44,20,75,-35.11111111,8.888888889,8.888888889,-0.257407341,-0.347222235,1,0,0,0.6638,submitButton,17.51193416,0.488888909,-0.4046297,1,0,0,2,29,149,28,1,44,67378,blockT,180,2022-02-11_13h54.40.044,orientation adjustment block,2021.2.3,Win32,60.2373351,continueButton,,,,,,
,,,,,,,,,,,,,,,,,,,,,,-52.22222222,-47,20,75,-207.2222222,19.77777778,19.77777778,-0.120370359,-0.39537044,1,0,0,1.5835,submitButton,17.52859477,-0.128703692,-0.417592606,0,0,0,2,30,150,31,1,47,67378,blockT,180,2022-02-11_13h54.40.044,orientation adjustment block,2021.2.3,Win32,60.2373351,,,,,,,
,,,,,,,,,,,,,,,,,,,,,,-44.44444444,25,20,75,24.55555556,0.444444444,0.444444444,-0.255555546,-0.386111181,1,0,0,0.3822,submitButton,17.40389294,-0.064814803,-0.269444456,0,0,0,2,31,151,9,1,25,67378,blockT,180,2022-02-11_13h54.40.044,orientation adjustment block,2021.2.3,Win32,60.2373351,,,,,,,
,,,,,,,,,,,,,,,,,,,,,,-36.11111111,-71,20,75,-211.1111111,39.88888889,39.88888889,-0.386111104,-0.428703718,1,0,0,1.6649,submitButton,17.5668277,-0.388888881,-0.384259272,0,0,0,2,32,152,55,1,71,67378,blockT,180,2022-02-11_13h54.40.044,orientation adjustment block,2021.2.3,Win32,60.2373351,,,,,,,
,,,,,,,,,,,,,,,,,,,,,,-66.11111111,52,20,75,10.88888889,41.11111111,41.11111111,0.243518535,-0.295370382,1,0,0,0.1981,submitButton,17.73621103,-0.486111105,-0.434259273,0,0,0,2,33,153,36,1,52,67378,blockT,180,2022-02-11_13h54.40.044,orientation adjustment block,2021.2.3,Win32,60.2373351,,,,,,,
,,,,,,,,,,,,,,,,,,,,,,-60,-56,20,75,-230,6,6,-0.362037029,-0.436111125,1,0,0,1.6833,submitButton,17.65238095,-0.349999992,-0.397222236,0,0,0,2,34,154,40,1,56,67378,blockT,180,2022-02-11_13h54.40.044,orientation adjustment block,2021.2.3,Win32,60.2373351,,,,,,,
,,,,,,,,,,,,,,,,,,,,,,66.11111111,29,20,75,201.1111111,7.888888889,7.888888889,-0.164814748,-0.402777791,1,0,0,1.7487,submitButton,17.58313633,-0.241666657,-0.392592606,0,0,0,2,35,155,13,1,29,67378,blockT,180,2022-02-11_13h54.40.044,orientation adjustment block,2021.2.3,Win32,60.2373351,,,,,,,
,,,,,,,,,,,,,,,,,,,,,,-72.77777778,-58,20,75,-222.7777778,15.22222222,15.22222222,-0.12314808,-0.409259329,1,0,0,1.5821,submitButton,17.56651017,0.340740759,-0.272222234,0,0,0,2,36,156,42,1,58,67378,blockT,180,2022-02-11_13h54.40.044,orientation adjustment block,2021.2.3,Win32,60.2373351,,,,,,,
,,,,,,,,,,,,,,,,,,,,,,28.88888889,-46,20,75,-49.11111111,3.111111111,3.111111111,-0.395370363,-0.36666668,1,0,0,0.2177,submitButton,17.46542347,-0.183333266,-0.378703717,0,0,0,2,37,157,30,1,46,67378,blockT,180,2022-02-11_13h54.40.044,orientation adjustment block,2021.2.3,Win32,60.2373351,,,,,,,
,,,,,,,,,,,,,,,,,,,,,,-44.44444444,-53,20,75,-227.4444444,5.555555556,5.555555556,-0.591666634,-0.393518532,1,0,0,2.1148,submitButton,17.38271605,-0.405555548,-0.282407419,0,0,0,2,38,158,37,1,53,67378,blockT,180,2022-02-11_13h54.40.044,orientation adjustment block,2021.2.3,Win32,60.2373351,,,,,,,
,,,,,,,,,,,,,,,,,,,,,,-25.55555556,74,20,75,68.44444444,5.555555556,5.555555556,-0.519444439,-0.394444458,1,0,0,0.1192,submitButton,17.30114943,-0.073148136,-0.322222234,0,0,0,2,39,159,58,1,74,67378,blockT,180,2022-02-11_13h54.40.044,orientation adjustment block,2021.2.3,Win32,60.2373351,,,,,,,
,,,,,,,,,,,,,,,,,,,,,,-37.77777778,-45,20,75,-210.7777778,14.22222222,14.22222222,-0.420370335,-0.415740754,1,0,0,1.7654,submitButton,17.28006088,-0.427777771,-0.36666668,0,0,0,2,40,160,29,1,45,67378,blockT,180,2022-02-11_13h54.40.044,orientation adjustment block,2021.2.3,Win32,60.2373351,,,,,,,
,,,,,,,,,,,,,,,,,,,,,,35,-67,20,75,-75,8,8,-0.526851818,-0.413888959,1,0,0,0.3665,submitButton,17.21693122,-0.317592584,-0.333333346,0,0,0,2,41,161,51,1,67,67378,blockT,180,2022-02-11_13h54.40.044,orientation adjustment block,2021.2.3,Win32,60.2373351,,,,,,,
,,,,,,,,,,,,,,,,,,,,,,-20.55555556,75,20,75,76.44444444,1.444444444,1.444444444,-0.307407399,-0.381481551,1,0,0,0.2989,submitButton,17.11036036,-0.304629621,-0.381481551,0,0,0,2,42,162,59,1,75,67378,blockT,180,2022-02-11_13h54.40.044,orientation adjustment block,2021.2.3,Win32,60.2373351,,,,,,,
,,,,,,,,,,,,,,,,,,,,,,45.55555556,-36,20,75,-26.44444444,9.555555556,9.555555556,0.38611113,-0.289814827,1,0,0,0.069,submitButton,17.05965697,-0.218518509,-0.365740754,0,0,0,2,43,163,20,1,36,67378,blockT,180,2022-02-11_13h54.40.044,orientation adjustment block,2021.2.3,Win32,60.2373351,,,,,,,
,,,,,,,,,,,,,,,,,,,,,,72.22222222,63,20,75,214.2222222,28.77777778,28.77777778,-0.315740732,-0.398148162,1,0,0,0.9312,submitButton,17.13777778,0.28796298,-0.393518532,1,0,0,2,44,164,47,1,63,67378,blockT,180,2022-02-11_13h54.40.044,orientation adjustment block,2021.2.3,Win32,60.2373351,continueButton,,,,,,
,,,,,,,,,,,,,,,,,,,,,,-69.44444444,62,20,75,37.55555556,24.44444444,24.44444444,-0.307407399,-0.444444459,1,0,0,0.5151,submitButton,17.1861663,-0.463888883,-0.48055557,0,0,0,2,45,165,46,1,62,67378,blockT,180,2022-02-11_13h54.40.044,orientation adjustment block,2021.2.3,Win32,60.2373351,,,,,,,
,,,,,,,,,,,,,,,,,,,,,,-26.66666667,-27,20,75,-107.6666667,80.66666667,80.66666667,-0.19537036,-0.388888902,1,0,0,1.3997,submitButton,17.60380117,-0.160185118,-0.325000012,0,0,0,2,46,166,11,1,27,67378,blockT,180,2022-02-11_13h54.40.044,orientation adjustment block,2021.2.3,Win32,60.2373351,,,,,,,
,,,,,,,,,,,,,,,,,,,,,,54.44444444,-39,20,75,-29.55555556,9.444444444,9.444444444,-0.248148082,-0.39629631,1,0,0,0.5806,submitButton,17.55047204,-0.248148082,-0.380555569,0,0,0,2,47,167,23,1,39,67378,blockT,180,2022-02-11_13h54.40.044,orientation adjustment block,2021.2.3,Win32,60.2373351,,,,,,,
,,,,,,,,,,,,,,,,,,,,,,-51.66666667,-41,20,75,-47.66666667,6.666666667,6.666666667,0.182407423,-0.267592604,1,0,0,0.3351,submitButton,17.47979798,-0.244444435,-0.390740811,0,0,0,2,48,168,25,1,41,67378,blockT,180,2022-02-11_13h54.40.044,orientation adjustment block,2021.2.3,Win32,60.2373351,,,,,,,
,,,,,,,,,,,,,,,,,,,,,,-42.22222222,20,20,75,23.77777778,3.777777778,3.777777778,-0.411111104,-0.400925939,1,0,0,0.5165,submitButton,17.39139785,-0.413888882,-0.338888901,0,0,0,2,49,169,4,1,20,67378,blockT,180,2022-02-11_13h54.40.044,orientation adjustment block,2021.2.3,Win32,60.2373351,,,,,,,
,,,,,,,,,,,,,,,,,,,,,,60.55555556,35,20,75,199.5555556,15.44444444,15.44444444,-0.152777767,-0.378703717,1,0,0,1.4146,submitButton,17.37891738,-0.262036971,-0.384259272,0,0,0,2,50,170,19,1,35,67378,blockT,180,2022-02-11_13h54.40.044,orientation adjustment block,2021.2.3,Win32,60.2373351,,,,,,,
,,,,,,,,,,,,,,,,,,,,,,-65,-55,20,75,-218,17,17,-0.341666659,-0.40000007,1,0,0,1.3648,submitButton,17.37650389,-0.297222213,-0.442592607,0,0,0,2,51,171,39,1,55,67378,blockT,180,2022-02-11_13h54.40.044,orientation adjustment block,2021.2.3,Win32,60.2373351,,,,,,,
,,,,,,,,,,,,,,,,,,,,,,-72.77777778,69,20,75,58.22222222,10.77777778,10.77777778,-0.434259224,-0.372222292,1,0,0,0.3979,submitButton,17.3347398,-0.1111111,-0.32314816,0,0,0,2,52,172,53,1,69,67378,blockT,180,2022-02-11_13h54.40.044,orientation adjustment block,2021.2.3,Win32,60.2373351,,,,,,,
,,,,,,,,,,,,,,,,,,,,,,53.33333333,-38,20,75,-31.66666667,6.333333333,6.333333333,-0.310185177,-0.39629631,1,0,0,0.198,submitButton,17.26554857,-0.301851843,-0.35740742,0,0,0,2,53,173,22,1,38,67378,blockT,180,2022-02-11_13h54.40.044,orientation adjustment block,2021.2.3,Win32,60.2373351,,,,,,,
,,,,,,,,,,,,,,,,,,,,,,48.33333333,18,20,75,200.3333333,2.333333333,2.333333333,-0.330555547,-0.40000007,1,0,0,1.5828,submitButton,17.17222222,-0.319444436,-0.375000013,0,0,0,2,54,174,2,1,18,67378,blockT,180,2022-02-11_13h54.40.044,orientation adjustment block,2021.2.3,Win32,60.2373351,,,,,,,
,,,,,,,,,,,,,,,,,,,,,,-45.55555556,34,20,75,26.44444444,7.555555556,7.555555556,-0.366666659,-0.381481551,1,0,0,0.2999,submitButton,17.11249137,0.257407424,-0.294444456,0,0,0,2,55,175,18,1,34,67378,blockT,180,2022-02-11_13h54.40.044,orientation adjustment block,2021.2.3,Win32,60.2373351,,,,,,,
,,,,,,,,,,,,,,,,,,,,,,56.66666667,50,20,75,221.6666667,8.333333333,8.333333333,-0.345370362,-0.406481495,1,0,0,1.314,submitButton,17.05829904,0.287037055,-0.297222234,0,0,0,2,56,176,34,1,50,67378,blockT,180,2022-02-11_13h54.40.044,orientation adjustment block,2021.2.3,Win32,60.2373351,,,,,,,
,,,,,,,,,,,,,,,,,,,,,,-74.44444444,-24,20,75,-195.4444444,8.555555556,8.555555556,-0.306481473,-0.412962977,1,0,0,1.331,submitButton,17.00613497,0.317592611,-0.300000012,0,0,0,2,57,177,8,1,24,67378,blockT,180,2022-02-11_13h54.40.044,orientation adjustment block,2021.2.3,Win32,60.2373351,,,,,,,
,,,,,,,,,,,,,,,,,,,,,,63.88888889,-37,20,75,-28.11111111,8.888888889,8.888888889,-0.401851845,-0.414814828,1,0,0,0.4986,submitButton,16.95663957,-0.417592586,-0.40000007,0,0,0,2,58,178,21,1,37,67378,blockT,180,2022-02-11_13h54.40.044,orientation adjustment block,2021.2.3,Win32,60.2373351,,,,,,,
,,,,,,,,,,,,,,,,,,,,,,34.44444444,70,20,75,224.4444444,25.55555556,25.55555556,0.210185202,-0.304629642,1,0,0,1.4978,submitButton,17.00875421,-0.201851785,-0.350925939,0,0,0,2,59,179,54,1,70,67378,blockT,180,2022-02-11_13h54.40.044,orientation adjustment block,2021.2.3,Win32,60.2373351,,,,,,,
,,,,,,,,,,,,,,,,,,,,,,,,,,,,,,,,,,,,,,,,,,,,,,,,67378,blockT,180,2022-02-11_13h54.40.044,orientation adjustment block,2021.2.3,Win32,60.2373351,,0.552777799,-0.412037051,1,0,0,EndButtonTxt
