consentMouse1.x,consentMouse1.y,consentMouse1.leftButton,consentMouse1.midButton,consentMouse1.rightButton,consentMouse1.clicked_name,consent_Mouse.x,consent_Mouse.y,consent_Mouse.leftButton,consent_Mouse.midButton,consent_Mouse.rightButton,consent_Mouse.clicked_name,startMouse.x,startMouse.y,startMouse.leftButton,startMouse.midButton,startMouse.rightButton,startMouse_2.x,startMouse_2.y,startMouse_2.leftButton,startMouse_2.midButton,startMouse_2.rightButton,start_distance,fixedOri,minimalDistance,maxOri,this_ori,accuracy,presented_accuracy,submitMouse.x,submitMouse.y,submitMouse.leftButton,submitMouse.midButton,submitMouse.rightButton,submitMouse.time,submitMouse.clicked_name,block_accuracy,continueMouse.x,continueMouse.y,continueMouse.leftButton,continueMouse.midButton,continueMouse.rightButton,trials.thisRepN,trials.thisTrialN,trials.thisN,trials.thisIndex,trials.ran,startOri,participant,condition,nTrials,date,expName,psychopyVersion,OS,frameRate,continueMouse.clicked_name,EndButtonMouse.x,EndButtonMouse.y,EndButtonMouse.leftButton,EndButtonMouse.midButton,EndButtonMouse.rightButton,EndButtonMouse.clicked_name
0.354545455,-0.405594406,1,0,0,consent_button1,0.365734266,-0.404195804,1,0,0,consent_button,0.084615385,-0.267132867,1,0,0,0.081818182,-0.374825175,1,0,0,60.55555556,67,20,75,141.5555556,74.55555556,74.55555556,0.409090909,-0.307692308,1,0,0,2.432,submitButton,74.55555556,-0.476829268,0.470731707,0,0,0,0,0,0,51,1,67,67456,blockT,180,2022-02-24_17h05.58.130,orientation adjustment block,2021.2.3,MacIntel,58.82352941,,,,,,,
,,,,,,,,,,,,,,,,,,,,,,54.44444444,-51,20,75,3.444444444,54.44444444,54.44444444,-0.346153846,-0.464335664,1,0,0,1.167,submitButton,64.5,-0.284530387,-0.36878453,0,0,0,0,1,1,35,1,51,67456,blockT,180,2022-02-24_17h05.58.130,orientation adjustment block,2021.2.3,MacIntel,58.82352941,,,,,,,
,,,,,,,,,,,,,,,,,,,,,,-73.33333333,61,20,75,-8.333333333,69.33333333,69.33333333,-0.263812155,-0.395027624,1,0,0,0.85,submitButton,66.11111111,-0.343922652,-0.390883978,0,0,0,0,2,2,45,1,61,67456,blockT,180,2022-02-24_17h05.58.130,orientation adjustment block,2021.2.3,MacIntel,58.82352941,,,,,,,
,,,,,,,,,,,,,,,,,,,,,,57.77777778,-75,20,75,-22.22222222,52.77777778,52.77777778,-0.138121547,-0.399171271,1,0,0,0.934,submitButton,52.77777778,-0.305248619,-0.38121547,0,0,0,0,3,3,59,1,75,67456,blockT,180,2022-02-24_17h05.58.130,orientation adjustment block,2021.2.3,MacIntel,58.82352941,,,,,,,
,,,,,,,,,,,,,,,,,,,,,,-72.77777778,-34,20,75,-106.7777778,72.77777778,72.77777778,-0.306629834,-0.400552486,1,0,0,0.567,submitButton,62.77777778,-0.306629834,-0.400552486,0,0,0,0,4,4,18,1,34,67456,blockT,180,2022-02-24_17h05.58.130,orientation adjustment block,2021.2.3,MacIntel,58.82352941,,,,,,,
,,,,,,,,,,,,,,,,,,,,,,45,18,20,75,63,45,45,-0.306629834,-0.400552486,1,0,0,0.834,submitButton,56.85185185,-0.306629834,-0.400552486,0,0,0,0,5,5,2,1,18,67456,blockT,180,2022-02-24_17h05.58.130,orientation adjustment block,2021.2.3,MacIntel,58.82352941,,,,,,,
,,,,,,,,,,,,,,,,,,,,,,-56.66666667,-70,20,75,-126.6666667,56.66666667,56.66666667,-0.306629834,-0.400552486,1,0,0,1.083,submitButton,56.66666667,-0.306629834,-0.400552486,0,0,0,0,6,6,54,1,70,67456,blockT,180,2022-02-24_17h05.58.130,orientation adjustment block,2021.2.3,MacIntel,58.82352941,,,,,,,
,,,,,,,,,,,,,,,,,,,,,,-70,-25,20,75,-95,70,70,-0.306629834,-0.400552486,1,0,0,1.8,submitButton,63.33333333,-0.306629834,-0.400552486,0,0,0,0,7,7,9,1,25,67456,blockT,180,2022-02-24_17h05.58.130,orientation adjustment block,2021.2.3,MacIntel,58.82352941,,,,,,,
,,,,,,,,,,,,,,,,,,,,,,-32.77777778,66,20,75,33.22222222,32.77777778,32.77777778,-0.306629834,-0.400552486,1,0,0,1.634,submitButton,53.14814815,-0.306629834,-0.400552486,0,0,0,0,8,8,50,1,66,67456,blockT,180,2022-02-24_17h05.58.130,orientation adjustment block,2021.2.3,MacIntel,58.82352941,,,,,,,
,,,,,,,,,,,,,,,,,,,,,,43.88888889,-42,20,75,1.888888889,43.88888889,43.88888889,-0.306629834,-0.400552486,1,0,0,1.951,submitButton,43.88888889,-0.306629834,-0.400552486,0,0,0,0,9,9,26,1,42,67456,blockT,180,2022-02-24_17h05.58.130,orientation adjustment block,2021.2.3,MacIntel,58.82352941,,,,,,,
,,,,,,,,,,,,,,,,,,,,,,61.11111111,39,20,75,100.1111111,61.11111111,61.11111111,-0.306629834,-0.400552486,1,0,0,0.216,submitButton,52.5,-0.306629834,-0.400552486,0,0,0,0,10,10,23,1,39,67456,blockT,180,2022-02-24_17h05.58.130,orientation adjustment block,2021.2.3,MacIntel,58.82352941,,,,,,,
,,,,,,,,,,,,,,,,,,,,,,-66.66666667,-26,20,75,-92.66666667,66.66666667,66.66666667,-0.306629834,-0.400552486,1,0,0,0.384,submitButton,57.22222222,-0.306629834,-0.400552486,0,0,0,0,11,11,10,1,26,67456,blockT,180,2022-02-24_17h05.58.130,orientation adjustment block,2021.2.3,MacIntel,58.82352941,,,,,,,
,,,,,,,,,,,,,,,,,,,,,,-55.55555556,53,20,75,-2.555555556,55.55555556,55.55555556,-0.306629834,-0.400552486,1,0,0,0.35,submitButton,55.55555556,-0.306629834,-0.400552486,0,0,0,0,12,12,37,1,53,67456,blockT,180,2022-02-24_17h05.58.130,orientation adjustment block,2021.2.3,MacIntel,58.82352941,,,,,,,
,,,,,,,,,,,,,,,,,,,,,,73.33333333,62,20,75,135.3333333,73.33333333,73.33333333,-0.306629834,-0.400552486,1,0,0,0.4,submitButton,64.44444444,-0.306629834,-0.400552486,0,0,0,0,13,13,46,1,62,67456,blockT,180,2022-02-24_17h05.58.130,orientation adjustment block,2021.2.3,MacIntel,58.82352941,,,,,,,
,,,,,,,,,,,,,,,,,,,,,,28.33333333,-33,20,75,-4.666666667,28.33333333,28.33333333,-0.306629834,-0.400552486,1,0,0,0.567,submitButton,52.40740741,0.388121547,-0.408839779,1,0,0,0,14,14,17,1,33,67456,blockT,180,2022-02-24_17h05.58.130,orientation adjustment block,2021.2.3,MacIntel,58.82352941,continueButton,,,,,,
,,,,,,,,,,,,,,,,,,,,,,32.77777778,-35,20,75,-2.222222222,32.77777778,32.77777778,0.012430939,-0.074585635,1,0,0,0.483,submitButton,32.77777778,-0.303867403,-0.42679558,0,0,0,0,15,15,19,1,35,67456,blockT,180,2022-02-24_17h05.58.130,orientation adjustment block,2021.2.3,MacIntel,58.82352941,,,,,,,
,,,,,,,,,,,,,,,,,,,,,,-53.33333333,-64,20,75,-117.3333333,53.33333333,53.33333333,-0.303867403,-0.42679558,1,0,0,0.667,submitButton,43.05555556,-0.303867403,-0.42679558,0,0,0,0,16,16,48,1,64,67456,blockT,180,2022-02-24_17h05.58.130,orientation adjustment block,2021.2.3,MacIntel,58.82352941,,,,,,,
,,,,,,,,,,,,,,,,,,,,,,-54.44444444,52,20,75,-2.444444444,54.44444444,54.44444444,-0.303867403,-0.42679558,1,0,0,0.6,submitButton,46.85185185,-0.303867403,-0.42679558,0,0,0,0,17,17,36,1,52,67456,blockT,180,2022-02-24_17h05.58.130,orientation adjustment block,2021.2.3,MacIntel,58.82352941,,,,,,,
,,,,,,,,,,,,,,,,,,,,,,53.33333333,38,20,75,91.33333333,53.33333333,53.33333333,-0.303867403,-0.42679558,1,0,0,0.517,submitButton,48.47222222,-0.303867403,-0.42679558,0,0,0,0,18,18,22,1,38,67456,blockT,180,2022-02-24_17h05.58.130,orientation adjustment block,2021.2.3,MacIntel,58.82352941,,,,,,,
,,,,,,,,,,,,,,,,,,,,,,32.77777778,-40,20,75,-7.222222222,32.77777778,32.77777778,-0.303867403,-0.42679558,1,0,0,0.466,submitButton,45.33333333,-0.303867403,-0.42679558,0,0,0,0,19,19,24,1,40,67456,blockT,180,2022-02-24_17h05.58.130,orientation adjustment block,2021.2.3,MacIntel,58.82352941,,,,,,,
,,,,,,,,,,,,,,,,,,,,,,70.55555556,-74,20,75,-3.444444444,70.55555556,70.55555556,-0.303867403,-0.42679558,1,0,0,0.484,submitButton,49.53703704,-0.303867403,-0.42679558,0,0,0,0,20,20,58,1,74,67456,blockT,180,2022-02-24_17h05.58.130,orientation adjustment block,2021.2.3,MacIntel,58.82352941,,,,,,,
,,,,,,,,,,,,,,,,,,,,,,57.77777778,19,20,75,76.77777778,57.77777778,57.77777778,-0.303867403,-0.42679558,1,0,0,0.35,submitButton,50.71428571,-0.303867403,-0.42679558,0,0,0,0,21,21,3,1,19,67456,blockT,180,2022-02-24_17h05.58.130,orientation adjustment block,2021.2.3,MacIntel,58.82352941,,,,,,,
,,,,,,,,,,,,,,,,,,,,,,-55.55555556,47,20,75,-8.555555556,55.55555556,55.55555556,-0.303867403,-0.42679558,1,0,0,0.35,submitButton,51.31944444,-0.303867403,-0.42679558,0,0,0,0,22,22,31,1,47,67456,blockT,180,2022-02-24_17h05.58.130,orientation adjustment block,2021.2.3,MacIntel,58.82352941,,,,,,,
,,,,,,,,,,,,,,,,,,,,,,53.88888889,-30,20,75,23.88888889,53.88888889,53.88888889,-0.303867403,-0.42679558,1,0,0,0.966,submitButton,51.60493827,-0.303867403,-0.42679558,0,0,0,0,23,23,14,1,30,67456,blockT,180,2022-02-24_17h05.58.130,orientation adjustment block,2021.2.3,MacIntel,58.82352941,,,,,,,
,,,,,,,,,,,,,,,,,,,,,,-27.22222222,69,20,75,41.77777778,27.22222222,27.22222222,-0.303867403,-0.42679558,1,0,0,0.317,submitButton,49.16666667,-0.303867403,-0.42679558,0,0,0,0,24,24,53,1,69,67456,blockT,180,2022-02-24_17h05.58.130,orientation adjustment block,2021.2.3,MacIntel,58.82352941,,,,,,,
,,,,,,,,,,,,,,,,,,,,,,-46.11111111,54,20,75,7.888888889,46.11111111,46.11111111,-0.303867403,-0.42679558,1,0,0,0.466,submitButton,48.88888889,-0.303867403,-0.42679558,0,0,0,0,25,25,38,1,54,67456,blockT,180,2022-02-24_17h05.58.130,orientation adjustment block,2021.2.3,MacIntel,58.82352941,,,,,,,
,,,,,,,,,,,,,,,,,,,,,,-58.88888889,-59,20,75,-117.8888889,58.88888889,58.88888889,-0.303867403,-0.42679558,1,0,0,0.451,submitButton,49.72222222,-0.303867403,-0.42679558,0,0,0,0,26,26,43,1,59,67456,blockT,180,2022-02-24_17h05.58.130,orientation adjustment block,2021.2.3,MacIntel,58.82352941,,,,,,,
,,,,,,,,,,,,,,,,,,,,,,35.55555556,-68,20,75,-32.44444444,35.55555556,35.55555556,-0.303867403,-0.42679558,1,0,0,0.299,submitButton,48.63247863,-0.303867403,-0.42679558,0,0,0,0,27,27,52,1,68,67456,blockT,180,2022-02-24_17h05.58.130,orientation adjustment block,2021.2.3,MacIntel,58.82352941,,,,,,,
,,,,,,,,,,,,,,,,,,,,,,-45.55555556,21,20,75,-24.55555556,45.55555556,45.55555556,-0.303867403,-0.42679558,1,0,0,0.202,submitButton,48.41269841,-0.303867403,-0.42679558,0,0,0,0,28,28,5,1,21,67456,blockT,180,2022-02-24_17h05.58.130,orientation adjustment block,2021.2.3,MacIntel,58.82352941,,,,,,,
,,,,,,,,,,,,,,,,,,,,,,-56.11111111,72,20,75,15.88888889,56.11111111,56.11111111,-0.303867403,-0.42679558,1,0,0,13.968,submitButton,48.92592593,0.274861878,-0.408839779,1,0,0,0,29,29,56,1,72,67456,blockT,180,2022-02-24_17h05.58.130,orientation adjustment block,2021.2.3,MacIntel,58.82352941,continueButton,,,,,,
,,,,,,,,,,,,,,,,,,,,,,58.88888889,-22,20,75,36.88888889,58.88888889,58.88888889,-0.364640884,-0.395027624,1,0,0,0.5,submitButton,49.54861111,-0.364640884,-0.395027624,0,0,0,0,30,30,6,1,22,67456,blockT,180,2022-02-24_17h05.58.130,orientation adjustment block,2021.2.3,MacIntel,58.82352941,,,,,,,
,,,,,,,,,,,,,,,,,,,,,,-33.33333333,16,20,75,-17.33333333,33.33333333,33.33333333,-0.364640884,-0.395027624,1,0,0,1.701,submitButton,48.59477124,-0.364640884,-0.395027624,0,0,0,0,31,31,0,1,16,67456,blockT,180,2022-02-24_17h05.58.130,orientation adjustment block,2021.2.3,MacIntel,58.82352941,,,,,,,
,,,,,,,,,,,,,,,,,,,,,,53.88888889,24,20,75,77.88888889,53.88888889,53.88888889,-0.364640884,-0.395027624,1,0,0,0.85,submitButton,48.88888889,-0.364640884,-0.395027624,0,0,0,0,32,32,8,1,24,67456,blockT,180,2022-02-24_17h05.58.130,orientation adjustment block,2021.2.3,MacIntel,58.82352941,,,,,,,
,,,,,,,,,,,,,,,,,,,,,,-53.33333333,-65,20,75,-118.3333333,53.33333333,53.33333333,-0.364640884,-0.395027624,1,0,0,0.535,submitButton,49.12280702,-0.364640884,-0.395027624,0,0,0,0,33,33,49,1,65,67456,blockT,180,2022-02-24_17h05.58.130,orientation adjustment block,2021.2.3,MacIntel,58.82352941,,,,,,,
,,,,,,,,,,,,,,,,,,,,,,48.88888889,-32,20,75,16.88888889,48.88888889,48.88888889,-0.364640884,-0.395027624,1,0,0,0.4,submitButton,49.11111111,-0.364640884,-0.395027624,0,0,0,0,34,34,16,1,32,67456,blockT,180,2022-02-24_17h05.58.130,orientation adjustment block,2021.2.3,MacIntel,58.82352941,,,,,,,
,,,,,,,,,,,,,,,,,,,,,,-51.11111111,-28,20,75,-79.11111111,51.11111111,51.11111111,-0.364640884,-0.395027624,1,0,0,0.5,submitButton,49.20634921,-0.364640884,-0.395027624,0,0,0,0,35,35,12,1,28,67456,blockT,180,2022-02-24_17h05.58.130,orientation adjustment block,2021.2.3,MacIntel,58.82352941,,,,,,,
,,,,,,,,,,,,,,,,,,,,,,46.11111111,17,20,75,63.11111111,46.11111111,46.11111111,-0.364640884,-0.395027624,1,0,0,0.518,submitButton,49.06565657,-0.364640884,-0.395027624,0,0,0,0,36,36,1,1,17,67456,blockT,180,2022-02-24_17h05.58.130,orientation adjustment block,2021.2.3,MacIntel,58.82352941,,,,,,,
,,,,,,,,,,,,,,,,,,,,,,30,-63,20,75,-33,30,30,-0.364640884,-0.395027624,1,0,0,0.534,submitButton,48.23671498,-0.364640884,-0.395027624,0,0,0,0,37,37,47,1,63,67456,blockT,180,2022-02-24_17h05.58.130,orientation adjustment block,2021.2.3,MacIntel,58.82352941,,,,,,,
,,,,,,,,,,,,,,,,,,,,,,-60.55555556,-56,20,75,-116.5555556,60.55555556,60.55555556,-0.364640884,-0.395027624,1,0,0,0.4,submitButton,48.75,-0.364640884,-0.395027624,0,0,0,0,38,38,40,1,56,67456,blockT,180,2022-02-24_17h05.58.130,orientation adjustment block,2021.2.3,MacIntel,58.82352941,,,,,,,
,,,,,,,,,,,,,,,,,,,,,,-38.88888889,-57,20,75,-95.88888889,38.88888889,38.88888889,-0.364640884,-0.395027624,1,0,0,0.4,submitButton,48.35555556,-0.364640884,-0.395027624,0,0,0,0,39,39,41,1,57,67456,blockT,180,2022-02-24_17h05.58.130,orientation adjustment block,2021.2.3,MacIntel,58.82352941,,,,,,,
,,,,,,,,,,,,,,,,,,,,,,-20,41,20,75,21,20,20,-0.364640884,-0.395027624,1,0,0,0.816,submitButton,47.26495726,-0.364640884,-0.395027624,0,0,0,0,40,40,25,1,41,67456,blockT,180,2022-02-24_17h05.58.130,orientation adjustment block,2021.2.3,MacIntel,58.82352941,,,,,,,
,,,,,,,,,,,,,,,,,,,,,,-22.77777778,-37,20,75,-59.77777778,22.77777778,22.77777778,-0.364640884,-0.395027624,1,0,0,0.534,submitButton,46.35802469,-0.364640884,-0.395027624,0,0,0,0,41,41,21,1,37,67456,blockT,180,2022-02-24_17h05.58.130,orientation adjustment block,2021.2.3,MacIntel,58.82352941,,,,,,,
,,,,,,,,,,,,,,,,,,,,,,-36.11111111,43,20,75,6.888888889,36.11111111,36.11111111,-0.364640884,-0.395027624,1,0,0,0.384,submitButton,45.99206349,-0.364640884,-0.395027624,0,0,0,0,42,42,27,1,43,67456,blockT,180,2022-02-24_17h05.58.130,orientation adjustment block,2021.2.3,MacIntel,58.82352941,,,,,,,
,,,,,,,,,,,,,,,,,,,,,,-35,46,20,75,11,35,35,-0.364640884,-0.395027624,1,0,0,0.35,submitButton,45.61302682,-0.364640884,-0.395027624,0,0,0,0,43,43,30,1,46,67456,blockT,180,2022-02-24_17h05.58.130,orientation adjustment block,2021.2.3,MacIntel,58.82352941,,,,,,,
,,,,,,,,,,,,,,,,,,,,,,72.77777778,50,20,75,122.7777778,72.77777778,72.77777778,-0.364640884,-0.395027624,1,0,0,0.334,submitButton,46.51851852,0.341850829,-0.401933702,1,0,0,0,44,44,34,1,50,67456,blockT,180,2022-02-24_17h05.58.130,orientation adjustment block,2021.2.3,MacIntel,58.82352941,continueButton,,,,,,
,,,,,,,,,,,,,,,,,,,,,,-22.77777778,31,20,75,8.222222222,22.77777778,22.77777778,-0.361187845,-0.410220994,1,0,0,0.366,submitButton,45.75268817,-0.361187845,-0.410220994,0,0,0,0,45,45,15,1,31,67456,blockT,180,2022-02-24_17h05.58.130,orientation adjustment block,2021.2.3,MacIntel,58.82352941,,,,,,,
,,,,,,,,,,,,,,,,,,,,,,-23.88888889,-71,20,75,-94.88888889,23.88888889,23.88888889,-0.361187845,-0.410220994,1,0,0,0.683,submitButton,45.06944444,-0.361187845,-0.410220994,0,0,0,0,46,46,55,1,71,67456,blockT,180,2022-02-24_17h05.58.130,orientation adjustment block,2021.2.3,MacIntel,58.82352941,,,,,,,
,,,,,,,,,,,,,,,,,,,,,,-70,-48,20,75,-118,70,70,-0.361187845,-0.410220994,1,0,0,0.367,submitButton,45.82491582,-0.361187845,-0.410220994,0,0,0,0,47,47,32,1,48,67456,blockT,180,2022-02-24_17h05.58.130,orientation adjustment block,2021.2.3,MacIntel,58.82352941,,,,,,,
,,,,,,,,,,,,,,,,,,,,,,68.88888889,-55,20,75,13.88888889,68.88888889,68.88888889,-0.361187845,-0.410220994,1,0,0,0.367,submitButton,46.50326797,-0.361187845,-0.410220994,0,0,0,0,48,48,39,1,55,67456,blockT,180,2022-02-24_17h05.58.130,orientation adjustment block,2021.2.3,MacIntel,58.82352941,,,,,,,
,,,,,,,,,,,,,,,,,,,,,,-46.66666667,29,20,75,-17.66666667,46.66666667,46.66666667,-0.361187845,-0.410220994,1,0,0,1.284,submitButton,46.50793651,-0.361187845,-0.410220994,0,0,0,0,49,49,13,1,29,67456,blockT,180,2022-02-24_17h05.58.130,orientation adjustment block,2021.2.3,MacIntel,58.82352941,,,,,,,
,,,,,,,,,,,,,,,,,,,,,,-55,20,20,75,-35,55,55,-0.361187845,-0.410220994,1,0,0,0.483,submitButton,46.74382716,-0.361187845,-0.410220994,0,0,0,0,50,50,4,1,20,67456,blockT,180,2022-02-24_17h05.58.130,orientation adjustment block,2021.2.3,MacIntel,58.82352941,,,,,,,
,,,,,,,,,,,,,,,,,,,,,,37.77777778,-60,20,75,-22.22222222,37.77777778,37.77777778,-0.361187845,-0.410220994,1,0,0,1.634,submitButton,46.5015015,-0.361187845,-0.410220994,0,0,0,0,51,51,44,1,60,67456,blockT,180,2022-02-24_17h05.58.130,orientation adjustment block,2021.2.3,MacIntel,58.82352941,,,,,,,
,,,,,,,,,,,,,,,,,,,,,,-70.55555556,-45,20,75,-115.5555556,70.55555556,70.55555556,-0.361187845,-0.410220994,1,0,0,0.534,submitButton,47.13450292,-0.361187845,-0.410220994,0,0,0,0,52,52,29,1,45,67456,blockT,180,2022-02-24_17h05.58.130,orientation adjustment block,2021.2.3,MacIntel,58.82352941,,,,,,,
,,,,,,,,,,,,,,,,,,,,,,72.22222222,-73,20,75,-0.777777778,72.22222222,72.22222222,-0.361187845,-0.410220994,1,0,0,0.566,submitButton,47.77777778,-0.361187845,-0.410220994,0,0,0,0,53,53,57,1,73,67456,blockT,180,2022-02-24_17h05.58.130,orientation adjustment block,2021.2.3,MacIntel,58.82352941,,,,,,,
,,,,,,,,,,,,,,,,,,,,,,52.77777778,-23,20,75,29.77777778,52.77777778,52.77777778,-0.361187845,-0.410220994,1,0,0,0.766,submitButton,47.90277778,-0.361187845,-0.410220994,0,0,0,0,54,54,7,1,23,67456,blockT,180,2022-02-24_17h05.58.130,orientation adjustment block,2021.2.3,MacIntel,58.82352941,,,,,,,
,,,,,,,,,,,,,,,,,,,,,,-32.77777778,58,20,75,25.22222222,32.77777778,32.77777778,-0.361187845,-0.410220994,1,0,0,0.517,submitButton,47.53387534,-0.361187845,-0.410220994,0,0,0,0,55,55,42,1,58,67456,blockT,180,2022-02-24_17h05.58.130,orientation adjustment block,2021.2.3,MacIntel,58.82352941,,,,,,,
,,,,,,,,,,,,,,,,,,,,,,59.44444444,27,20,75,86.44444444,59.44444444,59.44444444,-0.361187845,-0.410220994,1,0,0,0.449,submitButton,47.81746032,-0.361187845,-0.410220994,0,0,0,0,56,56,11,1,27,67456,blockT,180,2022-02-24_17h05.58.130,orientation adjustment block,2021.2.3,MacIntel,58.82352941,,,,,,,
,,,,,,,,,,,,,,,,,,,,,,27.22222222,36,20,75,63.22222222,27.22222222,27.22222222,-0.361187845,-0.410220994,1,0,0,0.566,submitButton,47.33850129,-0.361187845,-0.410220994,0,0,0,0,57,57,20,1,36,67456,blockT,180,2022-02-24_17h05.58.130,orientation adjustment block,2021.2.3,MacIntel,58.82352941,,,,,,,
,,,,,,,,,,,,,,,,,,,,,,61.66666667,49,20,75,110.6666667,61.66666667,61.66666667,-0.361187845,-0.410220994,1,0,0,0.583,submitButton,47.66414141,-0.361187845,-0.410220994,0,0,0,0,58,58,33,1,49,67456,blockT,180,2022-02-24_17h05.58.130,orientation adjustment block,2021.2.3,MacIntel,58.82352941,,,,,,,
,,,,,,,,,,,,,,,,,,,,,,24.44444444,44,20,75,68.44444444,24.44444444,24.44444444,-0.361187845,-0.410220994,1,0,0,0.35,submitButton,47.14814815,0.297651934,-0.408839779,1,0,0,0,59,59,28,1,44,67456,blockT,180,2022-02-24_17h05.58.130,orientation adjustment block,2021.2.3,MacIntel,58.82352941,continueButton,,,,,,
,,,,,,,,,,,,,,,,,,,,,,-67.22222222,-54,20,75,-121.2222222,67.22222222,67.22222222,-0.245165746,-0.39640884,1,0,0,1.05,submitButton,47.58454106,-0.245165746,-0.39640884,0,0,0,1,0,60,38,1,54,67456,blockT,180,2022-02-24_17h05.58.130,orientation adjustment block,2021.2.3,MacIntel,58.82352941,,,,,,,
,,,,,,,,,,,,,,,,,,,,,,-38.88888889,-72,20,75,-110.8888889,38.88888889,38.88888889,-0.245165746,-0.39640884,1,0,0,0.467,submitButton,47.39952719,-0.245165746,-0.39640884,0,0,0,1,1,61,56,1,72,67456,blockT,180,2022-02-24_17h05.58.130,orientation adjustment block,2021.2.3,MacIntel,58.82352941,,,,,,,
,,,,,,,,,,,,,,,,,,,,,,-75,-34,20,75,-109,75,75,-0.245165746,-0.39640884,1,0,0,0.567,submitButton,47.97453704,-0.245165746,-0.39640884,0,0,0,1,2,62,18,1,34,67456,blockT,180,2022-02-24_17h05.58.130,orientation adjustment block,2021.2.3,MacIntel,58.82352941,,,,,,,
,,,,,,,,,,,,,,,,,,,,,,-32.22222222,30,20,75,-2.222222222,32.22222222,32.22222222,-0.245165746,-0.39640884,1,0,0,0.401,submitButton,47.65306122,-0.245165746,-0.39640884,0,0,0,1,3,63,14,1,30,67456,blockT,180,2022-02-24_17h05.58.130,orientation adjustment block,2021.2.3,MacIntel,58.82352941,,,,,,,
,,,,,,,,,,,,,,,,,,,,,,32.77777778,-18,20,75,14.77777778,32.77777778,32.77777778,-0.245165746,-0.39640884,1,0,0,0.884,submitButton,47.35555556,-0.245165746,-0.39640884,0,0,0,1,4,64,2,1,18,67456,blockT,180,2022-02-24_17h05.58.130,orientation adjustment block,2021.2.3,MacIntel,58.82352941,,,,,,,
,,,,,,,,,,,,,,,,,,,,,,39.44444444,24,20,75,63.44444444,39.44444444,39.44444444,-0.245165746,-0.39640884,1,0,0,0.55,submitButton,47.20043573,-0.245165746,-0.39640884,0,0,0,1,5,65,8,1,24,67456,blockT,180,2022-02-24_17h05.58.130,orientation adjustment block,2021.2.3,MacIntel,58.82352941,,,,,,,
,,,,,,,,,,,,,,,,,,,,,,35.55555556,-36,20,75,-0.444444444,35.55555556,35.55555556,-0.245165746,-0.39640884,1,0,0,0.666,submitButton,46.97649573,-0.245165746,-0.39640884,0,0,0,1,6,66,20,1,36,67456,blockT,180,2022-02-24_17h05.58.130,orientation adjustment block,2021.2.3,MacIntel,58.82352941,,,,,,,
,,,,,,,,,,,,,,,,,,,,,,48.88888889,-21,20,75,27.88888889,48.88888889,48.88888889,-0.245165746,-0.39640884,1,0,0,0.699,submitButton,47.01257862,-0.245165746,-0.39640884,0,0,0,1,7,67,5,1,21,67456,blockT,180,2022-02-24_17h05.58.130,orientation adjustment block,2021.2.3,MacIntel,58.82352941,,,,,,,
,,,,,,,,,,,,,,,,,,,,,,-42.77777778,28,20,75,-14.77777778,42.77777778,42.77777778,-0.245165746,-0.39640884,1,0,0,1.067,submitButton,46.93415638,-0.245165746,-0.39640884,0,0,0,1,8,68,12,1,28,67456,blockT,180,2022-02-24_17h05.58.130,orientation adjustment block,2021.2.3,MacIntel,58.82352941,,,,,,,
,,,,,,,,,,,,,,,,,,,,,,62.22222222,-66,20,75,-3.777777778,62.22222222,62.22222222,-0.245165746,-0.39640884,1,0,0,0.533,submitButton,47.21212121,-0.245165746,-0.39640884,0,0,0,1,9,69,50,1,66,67456,blockT,180,2022-02-24_17h05.58.130,orientation adjustment block,2021.2.3,MacIntel,58.82352941,,,,,,,
,,,,,,,,,,,,,,,,,,,,,,60.55555556,-25,20,75,35.55555556,60.55555556,60.55555556,-0.245165746,-0.39640884,1,0,0,0.401,submitButton,47.45039683,-0.245165746,-0.39640884,0,0,0,1,10,70,9,1,25,67456,blockT,180,2022-02-24_17h05.58.130,orientation adjustment block,2021.2.3,MacIntel,58.82352941,,,,,,,
,,,,,,,,,,,,,,,,,,,,,,66.11111111,-42,20,75,24.11111111,66.11111111,66.11111111,-0.245165746,-0.39640884,1,0,0,0.467,submitButton,47.77777778,-0.245165746,-0.39640884,0,0,0,1,11,71,26,1,42,67456,blockT,180,2022-02-24_17h05.58.130,orientation adjustment block,2021.2.3,MacIntel,58.82352941,,,,,,,
,,,,,,,,,,,,,,,,,,,,,,-41.11111111,-60,20,75,-101.1111111,41.11111111,41.11111111,-0.245165746,-0.39640884,1,0,0,0.383,submitButton,47.66283525,-0.245165746,-0.39640884,0,0,0,1,12,72,44,1,60,67456,blockT,180,2022-02-24_17h05.58.130,orientation adjustment block,2021.2.3,MacIntel,58.82352941,,,,,,,
,,,,,,,,,,,,,,,,,,,,,,-43.33333333,59,20,75,15.66666667,43.33333333,43.33333333,-0.245165746,-0.39640884,1,0,0,0.55,submitButton,47.58945386,-0.245165746,-0.39640884,0,0,0,1,13,73,43,1,59,67456,blockT,180,2022-02-24_17h05.58.130,orientation adjustment block,2021.2.3,MacIntel,58.82352941,,,,,,,
,,,,,,,,,,,,,,,,,,,,,,31.66666667,-29,20,75,2.666666667,31.66666667,31.66666667,-0.245165746,-0.39640884,1,0,0,0.417,submitButton,47.32407407,0.496546961,-0.415745856,1,0,0,1,14,74,13,1,29,67456,blockT,180,2022-02-24_17h05.58.130,orientation adjustment block,2021.2.3,MacIntel,58.82352941,continueButton,,,,,,
,,,,,,,,,,,,,,,,,,,,,,-53.88888889,-69,20,75,-122.8888889,53.88888889,53.88888889,-0.460635359,-0.419889503,1,0,0,0.716,submitButton,47.43169399,-0.457872928,-0.406077348,0,0,0,1,15,75,53,1,69,67456,blockT,180,2022-02-24_17h05.58.130,orientation adjustment block,2021.2.3,MacIntel,58.82352941,,,,,,,
,,,,,,,,,,,,,,,,,,,,,,27.77777778,38,20,75,65.77777778,27.77777778,27.77777778,-0.457872928,-0.406077348,1,0,0,1.451,submitButton,47.11469534,-0.457872928,-0.406077348,0,0,0,1,16,76,22,1,38,67456,blockT,180,2022-02-24_17h05.58.130,orientation adjustment block,2021.2.3,MacIntel,58.82352941,,,,,,,
,,,,,,,,,,,,,,,,,,,,,,-47.22222222,51,20,75,3.777777778,47.22222222,47.22222222,-0.457872928,-0.406077348,1,0,0,0.351,submitButton,47.11640212,-0.457872928,-0.406077348,0,0,0,1,17,77,35,1,51,67456,blockT,180,2022-02-24_17h05.58.130,orientation adjustment block,2021.2.3,MacIntel,58.82352941,,,,,,,
,,,,,,,,,,,,,,,,,,,,,,61.66666667,-58,20,75,3.666666667,61.66666667,61.66666667,-0.457872928,-0.406077348,1,0,0,2.25,submitButton,47.34375,-0.457872928,-0.406077348,0,0,0,1,18,78,42,1,58,67456,blockT,180,2022-02-24_17h05.58.130,orientation adjustment block,2021.2.3,MacIntel,58.82352941,,,,,,,
,,,,,,,,,,,,,,,,,,,,,,-20.55555556,-64,20,75,-84.55555556,20.55555556,20.55555556,-0.457872928,-0.406077348,1,0,0,0.417,submitButton,46.93162393,-0.457872928,-0.406077348,0,0,0,1,19,79,48,1,64,67456,blockT,180,2022-02-24_17h05.58.130,orientation adjustment block,2021.2.3,MacIntel,58.82352941,,,,,,,
,,,,,,,,,,,,,,,,,,,,,,38.33333333,45,20,75,83.33333333,38.33333333,38.33333333,-0.457872928,-0.406077348,1,0,0,3.084,submitButton,46.8013468,-0.457872928,-0.406077348,0,0,0,1,20,80,29,1,45,67456,blockT,180,2022-02-24_17h05.58.130,orientation adjustment block,2021.2.3,MacIntel,58.82352941,,,,,,,
,,,,,,,,,,,,,,,,,,,,,,50,16,20,75,66,50,50,-0.457872928,-0.406077348,1,0,0,2.434,submitButton,46.84908789,-0.457872928,-0.406077348,0,0,0,1,21,81,0,1,16,67456,blockT,180,2022-02-24_17h05.58.130,orientation adjustment block,2021.2.3,MacIntel,58.82352941,,,,,,,
,,,,,,,,,,,,,,,,,,,,,,-43.33333333,41,20,75,-2.333333333,43.33333333,43.33333333,-0.457872928,-0.406077348,1,0,0,0.383,submitButton,46.79738562,-0.457872928,-0.406077348,0,0,0,1,22,82,25,1,41,67456,blockT,180,2022-02-24_17h05.58.130,orientation adjustment block,2021.2.3,MacIntel,58.82352941,,,,,,,
,,,,,,,,,,,,,,,,,,,,,,-58.88888889,-52,20,75,-110.8888889,58.88888889,58.88888889,-0.457872928,-0.406077348,1,0,0,1.534,submitButton,46.9726248,-0.457872928,-0.406077348,0,0,0,1,23,83,36,1,52,67456,blockT,180,2022-02-24_17h05.58.130,orientation adjustment block,2021.2.3,MacIntel,58.82352941,,,,,,,
,,,,,,,,,,,,,,,,,,,,,,-32.22222222,74,20,75,41.77777778,32.22222222,32.22222222,-0.457872928,-0.406077348,1,0,0,0.067,submitButton,46.76190476,-0.457872928,-0.406077348,0,0,0,1,24,84,58,1,74,67456,blockT,180,2022-02-24_17h05.58.130,orientation adjustment block,2021.2.3,MacIntel,58.82352941,,,,,,,
,,,,,,,,,,,,,,,,,,,,,,31.11111111,-63,20,75,-31.88888889,31.11111111,31.11111111,-0.457872928,-0.406077348,1,0,0,0.516,submitButton,46.54147105,-0.457872928,-0.406077348,0,0,0,1,25,85,47,1,63,67456,blockT,180,2022-02-24_17h05.58.130,orientation adjustment block,2021.2.3,MacIntel,58.82352941,,,,,,,
,,,,,,,,,,,,,,,,,,,,,,27.22222222,37,20,75,64.22222222,27.22222222,27.22222222,-0.457872928,-0.406077348,1,0,0,0.467,submitButton,46.27314815,-0.457872928,-0.406077348,0,0,0,1,26,86,21,1,37,67456,blockT,180,2022-02-24_17h05.58.130,orientation adjustment block,2021.2.3,MacIntel,58.82352941,,,,,,,
,,,,,,,,,,,,,,,,,,,,,,71.11111111,73,20,75,144.1111111,71.11111111,71.11111111,-0.457872928,-0.406077348,1,0,0,0.484,submitButton,46.61339422,-0.457872928,-0.406077348,0,0,0,1,27,87,57,1,73,67456,blockT,180,2022-02-24_17h05.58.130,orientation adjustment block,2021.2.3,MacIntel,58.82352941,,,,,,,
,,,,,,,,,,,,,,,,,,,,,,-38.88888889,-23,20,75,-61.88888889,38.88888889,38.88888889,-0.457872928,-0.406077348,1,0,0,0.383,submitButton,46.50900901,-0.457872928,-0.406077348,0,0,0,1,28,88,7,1,23,67456,blockT,180,2022-02-24_17h05.58.130,orientation adjustment block,2021.2.3,MacIntel,58.82352941,,,,,,,
,,,,,,,,,,,,,,,,,,,,,,41.66666667,-71,20,75,-29.33333333,41.66666667,41.66666667,-0.457872928,-0.406077348,1,0,0,0.384,submitButton,46.44444444,0.31698895,-0.395027624,1,0,0,1,29,89,55,1,71,67456,blockT,180,2022-02-24_17h05.58.130,orientation adjustment block,2021.2.3,MacIntel,58.82352941,continueButton,,,,,,
,,,,,,,,,,,,,,,,,,,,,,-47.22222222,62,20,75,14.77777778,47.22222222,47.22222222,-0.464779006,-0.285911602,1,0,0,1.735,submitButton,46.45467836,-0.471685083,-0.406077348,0,0,0,1,30,90,46,1,62,67456,blockT,180,2022-02-24_17h05.58.130,orientation adjustment block,2021.2.3,MacIntel,58.82352941,,,,,,,
,,,,,,,,,,,,,,,,,,,,,,-56.11111111,49,20,75,-7.111111111,56.11111111,56.11111111,-0.471685083,-0.406077348,1,0,0,0.917,submitButton,46.58008658,-0.471685083,-0.406077348,0,0,0,1,31,91,33,1,49,67456,blockT,180,2022-02-24_17h05.58.130,orientation adjustment block,2021.2.3,MacIntel,58.82352941,,,,,,,
,,,,,,,,,,,,,,,,,,,,,,62.22222222,-75,20,75,-12.77777778,62.22222222,62.22222222,-0.473066298,-0.412983425,1,0,0,1.349,submitButton,46.78062678,-0.473066298,-0.412983425,0,0,0,1,32,92,59,1,75,67456,blockT,180,2022-02-24_17h05.58.130,orientation adjustment block,2021.2.3,MacIntel,58.82352941,,,,,,,
,,,,,,,,,,,,,,,,,,,,,,30,32,20,75,62,30,30,-0.473066298,-0.412983425,1,0,0,1.684,submitButton,46.56821378,-0.473066298,-0.412983425,0,0,0,1,33,93,16,1,32,67456,blockT,180,2022-02-24_17h05.58.130,orientation adjustment block,2021.2.3,MacIntel,58.82352941,,,,,,,
,,,,,,,,,,,,,,,,,,,,,,75,-61,20,75,14,75,75,-0.473066298,-0.412983425,1,0,0,1.95,submitButton,46.92361111,-0.462016575,-0.408839779,0,0,0,1,34,94,45,1,61,67456,blockT,180,2022-02-24_17h05.58.130,orientation adjustment block,2021.2.3,MacIntel,58.82352941,,,,,,,
,,,,,,,,,,,,,,,,,,,,,,27.77777778,56,20,75,83.77777778,27.77777778,27.77777778,-0.462016575,-0.408839779,1,0,0,0.717,submitButton,46.6872428,-0.462016575,-0.408839779,0,0,0,1,35,95,40,1,56,67456,blockT,180,2022-02-24_17h05.58.130,orientation adjustment block,2021.2.3,MacIntel,58.82352941,,,,,,,
,,,,,,,,,,,,,,,,,,,,,,28.88888889,31,20,75,59.88888889,28.88888889,28.88888889,-0.462016575,-0.408839779,1,0,0,0.399,submitButton,46.4701897,-0.456491713,-0.403314917,0,0,0,1,36,96,15,1,31,67456,blockT,180,2022-02-24_17h05.58.130,orientation adjustment block,2021.2.3,MacIntel,58.82352941,,,,,,,
,,,,,,,,,,,,,,,,,,,,,,-66.66666667,-40,20,75,-106.6666667,66.66666667,66.66666667,-0.46339779,-0.412983425,1,0,0,0.617,submitButton,46.71352075,-0.46339779,-0.412983425,0,0,0,1,37,97,24,1,40,67456,blockT,180,2022-02-24_17h05.58.130,orientation adjustment block,2021.2.3,MacIntel,58.82352941,,,,,,,
,,,,,,,,,,,,,,,,,,,,,,-59.44444444,46,20,75,-13.44444444,59.44444444,59.44444444,-0.46339779,-0.415745856,1,0,0,0.435,submitButton,46.86507937,-0.46339779,-0.415745856,0,0,0,1,38,98,30,1,46,67456,blockT,180,2022-02-24_17h05.58.130,orientation adjustment block,2021.2.3,MacIntel,58.82352941,,,,,,,
,,,,,,,,,,,,,,,,,,,,,,66.66666667,67,20,75,133.6666667,66.66666667,66.66666667,-0.466160221,-0.419889503,1,0,0,0.45,submitButton,47.09803922,-0.459254144,-0.417127072,0,0,0,1,39,99,51,1,67,67456,blockT,180,2022-02-24_17h05.58.130,orientation adjustment block,2021.2.3,MacIntel,58.82352941,,,,,,,
,,,,,,,,,,,,,,,,,,,,,,62.77777778,-70,20,75,-7.222222222,62.77777778,62.77777778,-0.459254144,-0.417127072,1,0,0,2.234,submitButton,47.28036176,-0.459254144,-0.417127072,0,0,0,1,40,100,54,1,70,67456,blockT,180,2022-02-24_17h05.58.130,orientation adjustment block,2021.2.3,MacIntel,58.82352941,,,,,,,
,,,,,,,,,,,,,,,,,,,,,,-37.22222222,-65,20,75,-102.2222222,37.22222222,37.22222222,-0.459254144,-0.417127072,1,0,0,0.667,submitButton,47.16475096,-0.459254144,-0.417127072,0,0,0,1,41,101,49,1,65,67456,blockT,180,2022-02-24_17h05.58.130,orientation adjustment block,2021.2.3,MacIntel,58.82352941,,,,,,,
,,,,,,,,,,,,,,,,,,,,,,70,-39,20,75,31,70,70,-0.459254144,-0.417127072,1,0,0,0.401,submitButton,47.42424242,-0.459254144,-0.417127072,0,0,0,1,42,102,23,1,39,67456,blockT,180,2022-02-24_17h05.58.130,orientation adjustment block,2021.2.3,MacIntel,58.82352941,,,,,,,
,,,,,,,,,,,,,,,,,,,,,,68.33333333,27,20,75,95.33333333,68.33333333,68.33333333,-0.459254144,-0.417127072,1,0,0,0.2,submitButton,47.65917603,-0.459254144,-0.417127072,0,0,0,1,43,103,11,1,27,67456,blockT,180,2022-02-24_17h05.58.130,orientation adjustment block,2021.2.3,MacIntel,58.82352941,,,,,,,
,,,,,,,,,,,,,,,,,,,,,,32.22222222,-19,20,75,13.22222222,32.22222222,32.22222222,-0.459254144,-0.417127072,1,0,0,1.634,submitButton,47.48765432,0.375,-0.390883978,1,0,0,1,44,104,3,1,19,67456,blockT,180,2022-02-24_17h05.58.130,orientation adjustment block,2021.2.3,MacIntel,58.82352941,continueButton,,,,,,
,,,,,,,,,,,,,,,,,,,,,,61.11111111,-48,20,75,13.11111111,61.11111111,61.11111111,-0.28660221,-0.404696133,1,0,0,0.617,submitButton,47.63736264,-0.28660221,-0.404696133,0,0,0,1,45,105,32,1,48,67456,blockT,180,2022-02-24_17h05.58.130,orientation adjustment block,2021.2.3,MacIntel,58.82352941,,,,,,,
,,,,,,,,,,,,,,,,,,,,,,41.66666667,-33,20,75,8.666666667,41.66666667,41.66666667,-0.28660221,-0.404696133,1,0,0,0.683,submitButton,47.57246377,-0.28660221,-0.403314917,0,0,0,1,46,106,17,1,33,67456,blockT,180,2022-02-24_17h05.58.130,orientation adjustment block,2021.2.3,MacIntel,58.82352941,,,,,,,
,,,,,,,,,,,,,,,,,,,,,,47.77777778,35,20,75,82.77777778,47.77777778,47.77777778,-0.28660221,-0.403314917,1,0,0,0.3,submitButton,47.57467145,-0.28660221,-0.403314917,0,0,0,1,47,107,19,1,35,67456,blockT,180,2022-02-24_17h05.58.130,orientation adjustment block,2021.2.3,MacIntel,58.82352941,,,,,,,
,,,,,,,,,,,,,,,,,,,,,,67.77777778,53,20,75,120.7777778,67.77777778,67.77777778,-0.28660221,-0.403314917,1,0,0,0.916,submitButton,47.78959811,-0.283839779,-0.395027624,0,0,0,1,48,108,37,1,53,67456,blockT,180,2022-02-24_17h05.58.130,orientation adjustment block,2021.2.3,MacIntel,58.82352941,,,,,,,
,,,,,,,,,,,,,,,,,,,,,,25,44,20,75,69,25,25,-0.283839779,-0.395027624,1,0,0,0.332,submitButton,47.5497076,-0.283839779,-0.395027624,0,0,0,1,49,109,28,1,44,67456,blockT,180,2022-02-24_17h05.58.130,orientation adjustment block,2021.2.3,MacIntel,58.82352941,,,,,,,
,,,,,,,,,,,,,,,,,,,,,,25,-47,20,75,-22,25,25,-0.283839779,-0.395027624,1,0,0,0.517,submitButton,47.31481481,-0.283839779,-0.395027624,0,0,0,1,50,110,31,1,47,67456,blockT,180,2022-02-24_17h05.58.130,orientation adjustment block,2021.2.3,MacIntel,58.82352941,,,,,,,
,,,,,,,,,,,,,,,,,,,,,,63.88888889,17,20,75,80.88888889,63.88888889,63.88888889,-0.283839779,-0.395027624,1,0,0,1.302,submitButton,47.48568156,-0.283839779,-0.395027624,0,0,0,1,51,111,1,1,17,67456,blockT,180,2022-02-24_17h05.58.130,orientation adjustment block,2021.2.3,MacIntel,58.82352941,,,,,,,
,,,,,,,,,,,,,,,,,,,,,,-46.11111111,57,20,75,10.88888889,46.11111111,46.11111111,-0.283839779,-0.392265193,1,0,0,0.485,submitButton,47.47165533,-0.283839779,-0.392265193,0,0,0,1,52,112,41,1,57,67456,blockT,180,2022-02-24_17h05.58.130,orientation adjustment block,2021.2.3,MacIntel,58.82352941,,,,,,,
,,,,,,,,,,,,,,,,,,,,,,68.33333333,-22,20,75,46.33333333,68.33333333,68.33333333,-0.283839779,-0.392265193,1,0,0,0.3,submitButton,47.68237935,-0.283839779,-0.392265193,0,0,0,1,53,113,6,1,22,67456,blockT,180,2022-02-24_17h05.58.130,orientation adjustment block,2021.2.3,MacIntel,58.82352941,,,,,,,
,,,,,,,,,,,,,,,,,,,,,,68.88888889,43,20,75,111.8888889,68.88888889,68.88888889,-0.283839779,-0.392265193,1,0,0,0.883,submitButton,47.89444444,-0.283839779,-0.388121547,0,0,0,1,54,114,27,1,43,67456,blockT,180,2022-02-24_17h05.58.130,orientation adjustment block,2021.2.3,MacIntel,58.82352941,,,,,,,
,,,,,,,,,,,,,,,,,,,,,,42.22222222,50,20,75,92.22222222,42.22222222,42.22222222,-0.283839779,-0.388121547,1,0,0,1.867,submitButton,47.83828383,-0.283839779,-0.388121547,0,0,0,1,55,115,34,1,50,67456,blockT,180,2022-02-24_17h05.58.130,orientation adjustment block,2021.2.3,MacIntel,58.82352941,,,,,,,
,,,,,,,,,,,,,,,,,,,,,,-32.22222222,55,20,75,22.77777778,32.22222222,32.22222222,-0.283839779,-0.388121547,1,0,0,0.6,submitButton,47.68518519,-0.283839779,-0.388121547,0,0,0,1,56,116,39,1,55,67456,blockT,180,2022-02-24_17h05.58.130,orientation adjustment block,2021.2.3,MacIntel,58.82352941,,,,,,,
,,,,,,,,,,,,,,,,,,,,,,55.55555556,68,20,75,123.5555556,55.55555556,55.55555556,-0.278314917,-0.385359116,1,0,0,0.367,submitButton,47.76159655,-0.278314917,-0.385359116,0,0,0,1,57,117,52,1,68,67456,blockT,180,2022-02-24_17h05.58.130,orientation adjustment block,2021.2.3,MacIntel,58.82352941,,,,,,,
,,,,,,,,,,,,,,,,,,,,,,-29.44444444,20,20,75,-9.444444444,29.44444444,29.44444444,-0.278314917,-0.385359116,1,0,0,0.417,submitButton,47.58547009,-0.278314917,-0.385359116,0,0,0,1,58,118,4,1,20,67456,blockT,180,2022-02-24_17h05.58.130,orientation adjustment block,2021.2.3,MacIntel,58.82352941,,,,,,,
,,,,,,,,,,,,,,,,,,,,,,-60,26,20,75,-34,60,60,-0.278314917,-0.385359116,1,0,0,0.317,submitButton,47.7037037,0.285220994,-0.418508287,1,0,0,1,59,119,10,1,26,67456,blockT,180,2022-02-24_17h05.58.130,orientation adjustment block,2021.2.3,MacIntel,58.82352941,continueButton,,,,,,
,,,,,,,,,,,,,,,,,,,,,,-52.77777778,-17,20,75,-69.77777778,52.77777778,52.77777778,-0.339088398,-0.399171271,1,0,0,0.916,submitButton,47.75157233,-0.339088398,-0.395027624,0,0,0,2,0,120,1,1,17,67456,blockT,180,2022-02-24_17h05.58.130,orientation adjustment block,2021.2.3,MacIntel,58.82352941,,,,,,,
,,,,,,,,,,,,,,,,,,,,,,60,35,20,75,95,60,60,-0.339088398,-0.395027624,1,0,0,0.568,submitButton,47.86604361,-0.339088398,-0.395027624,0,0,0,2,1,121,19,1,35,67456,blockT,180,2022-02-24_17h05.58.130,orientation adjustment block,2021.2.3,MacIntel,58.82352941,,,,,,,
,,,,,,,,,,,,,,,,,,,,,,48.33333333,25,20,75,73.33333333,48.33333333,48.33333333,-0.339088398,-0.395027624,1,0,0,0.367,submitButton,47.87037037,-0.339088398,-0.395027624,0,0,0,2,2,122,9,1,25,67456,blockT,180,2022-02-24_17h05.58.130,orientation adjustment block,2021.2.3,MacIntel,58.82352941,,,,,,,
,,,,,,,,,,,,,,,,,,,,,,-34.44444444,30,20,75,-4.444444444,34.44444444,34.44444444,-0.339088398,-0.395027624,1,0,0,0.251,submitButton,47.74719674,-0.339088398,-0.395027624,0,0,0,2,3,123,14,1,30,67456,blockT,180,2022-02-24_17h05.58.130,orientation adjustment block,2021.2.3,MacIntel,58.82352941,,,,,,,
,,,,,,,,,,,,,,,,,,,,,,-23.33333333,61,20,75,37.66666667,23.33333333,23.33333333,-0.339088398,-0.395027624,1,0,0,0.334,submitButton,47.52525253,-0.339088398,-0.395027624,0,0,0,2,4,124,45,1,61,67456,blockT,180,2022-02-24_17h05.58.130,orientation adjustment block,2021.2.3,MacIntel,58.82352941,,,,,,,
,,,,,,,,,,,,,,,,,,,,,,71.66666667,-38,20,75,33.66666667,71.66666667,71.66666667,-0.339088398,-0.395027624,1,0,0,0.316,submitButton,47.74274274,-0.339088398,-0.395027624,0,0,0,2,5,125,22,1,38,67456,blockT,180,2022-02-24_17h05.58.130,orientation adjustment block,2021.2.3,MacIntel,58.82352941,,,,,,,
,,,,,,,,,,,,,,,,,,,,,,-68.88888889,29,20,75,-39.88888889,68.88888889,68.88888889,-0.341850829,-0.401933702,1,0,0,0.351,submitButton,47.93154762,-0.341850829,-0.401933702,0,0,0,2,6,126,13,1,29,67456,blockT,180,2022-02-24_17h05.58.130,orientation adjustment block,2021.2.3,MacIntel,58.82352941,,,,,,,
,,,,,,,,,,,,,,,,,,,,,,-68.33333333,26,20,75,-42.33333333,68.33333333,68.33333333,-0.341850829,-0.401933702,1,0,0,0.467,submitButton,48.1120944,-0.341850829,-0.401933702,0,0,0,2,7,127,10,1,26,67456,blockT,180,2022-02-24_17h05.58.130,orientation adjustment block,2021.2.3,MacIntel,58.82352941,,,,,,,
,,,,,,,,,,,,,,,,,,,,,,-72.77777778,-22,20,75,-94.77777778,72.77777778,72.77777778,-0.341850829,-0.401933702,1,0,0,0.4,submitButton,48.32846004,-0.341850829,-0.401933702,0,0,0,2,8,128,6,1,22,67456,blockT,180,2022-02-24_17h05.58.130,orientation adjustment block,2021.2.3,MacIntel,58.82352941,,,,,,,
,,,,,,,,,,,,,,,,,,,,,,70,68,20,75,138,70,70,-0.340469613,-0.399171271,1,0,0,0.433,submitButton,48.51690821,-0.340469613,-0.399171271,0,0,0,2,9,129,52,1,68,67456,blockT,180,2022-02-24_17h05.58.130,orientation adjustment block,2021.2.3,MacIntel,58.82352941,,,,,,,
,,,,,,,,,,,,,,,,,,,,,,20.55555556,52,20,75,72.55555556,20.55555556,20.55555556,-0.340469613,-0.399171271,1,0,0,0.483,submitButton,48.27586207,-0.340469613,-0.399171271,0,0,0,2,10,130,36,1,52,67456,blockT,180,2022-02-24_17h05.58.130,orientation adjustment block,2021.2.3,MacIntel,58.82352941,,,,,,,
,,,,,,,,,,,,,,,,,,,,,,-35.55555556,51,20,75,15.44444444,35.55555556,35.55555556,-0.340469613,-0.399171271,1,0,0,0.501,submitButton,48.1671415,-0.340469613,-0.399171271,0,0,0,2,11,131,35,1,51,67456,blockT,180,2022-02-24_17h05.58.130,orientation adjustment block,2021.2.3,MacIntel,58.82352941,,,,,,,
,,,,,,,,,,,,,,,,,,,,,,57.77777778,74,20,75,131.7777778,57.77777778,57.77777778,-0.340469613,-0.399171271,1,0,0,0.566,submitButton,48.24858757,-0.340469613,-0.399171271,0,0,0,2,12,132,58,1,74,67456,blockT,180,2022-02-24_17h05.58.130,orientation adjustment block,2021.2.3,MacIntel,58.82352941,,,,,,,
,,,,,,,,,,,,,,,,,,,,,,42.77777778,-72,20,75,-29.22222222,42.77777778,42.77777778,-0.340469613,-0.399171271,1,0,0,0.417,submitButton,48.20261438,-0.340469613,-0.399171271,0,0,0,2,13,133,56,1,72,67456,blockT,180,2022-02-24_17h05.58.130,orientation adjustment block,2021.2.3,MacIntel,58.82352941,,,,,,,
,,,,,,,,,,,,,,,,,,,,,,51.11111111,-59,20,75,-7.888888889,51.11111111,51.11111111,-0.340469613,-0.399171271,1,0,0,0.834,submitButton,48.22685185,0.402624309,-0.383977901,1,0,0,2,14,134,43,1,59,67456,blockT,180,2022-02-24_17h05.58.130,orientation adjustment block,2021.2.3,MacIntel,58.82352941,continueButton,,,,,,
,,,,,,,,,,,,,,,,,,,,,,-27.22222222,60,20,75,32.77777778,27.22222222,27.22222222,-0.392955801,-0.407458564,1,0,0,0.35,submitButton,48.05325987,-0.392955801,-0.407458564,0,0,0,2,15,135,44,1,60,67456,blockT,180,2022-02-24_17h05.58.130,orientation adjustment block,2021.2.3,MacIntel,58.82352941,,,,,,,
,,,,,,,,,,,,,,,,,,,,,,20.55555556,45,20,75,65.55555556,20.55555556,20.55555556,-0.392955801,-0.407458564,1,0,0,0.549,submitButton,47.82786885,-0.392955801,-0.407458564,0,0,0,2,16,136,29,1,45,67456,blockT,180,2022-02-24_17h05.58.130,orientation adjustment block,2021.2.3,MacIntel,58.82352941,,,,,,,
,,,,,,,,,,,,,,,,,,,,,,-47.77777778,34,20,75,-13.77777778,47.77777778,47.77777778,-0.392955801,-0.407458564,1,0,0,0.717,submitButton,47.82746161,-0.392955801,-0.407458564,0,0,0,2,17,137,18,1,34,67456,blockT,180,2022-02-24_17h05.58.130,orientation adjustment block,2021.2.3,MacIntel,58.82352941,,,,,,,
,,,,,,,,,,,,,,,,,,,,,,64.44444444,20,20,75,84.44444444,64.44444444,64.44444444,-0.392955801,-0.407458564,1,0,0,0.816,submitButton,47.96146953,-0.392955801,-0.407458564,0,0,0,2,18,138,4,1,20,67456,blockT,180,2022-02-24_17h05.58.130,orientation adjustment block,2021.2.3,MacIntel,58.82352941,,,,,,,
,,,,,,,,,,,,,,,,,,,,,,63.33333333,21,20,75,84.33333333,63.33333333,63.33333333,-0.392955801,-0.407458564,1,0,0,0.484,submitButton,48.08444444,-0.392955801,-0.407458564,0,0,0,2,19,139,5,1,21,67456,blockT,180,2022-02-24_17h05.58.130,orientation adjustment block,2021.2.3,MacIntel,58.82352941,,,,,,,
,,,,,,,,,,,,,,,,,,,,,,74.44444444,42,20,75,116.4444444,74.44444444,74.44444444,-0.392955801,-0.407458564,1,0,0,0.267,submitButton,48.29365079,-0.392955801,-0.407458564,0,0,0,2,20,140,26,1,42,67456,blockT,180,2022-02-24_17h05.58.130,orientation adjustment block,2021.2.3,MacIntel,58.82352941,,,,,,,
,,,,,,,,,,,,,,,,,,,,,,42.77777778,39,20,75,81.77777778,42.77777778,42.77777778,-0.392955801,-0.407458564,1,0,0,0.234,submitButton,48.25021872,-0.392955801,-0.407458564,0,0,0,2,21,141,23,1,39,67456,blockT,180,2022-02-24_17h05.58.130,orientation adjustment block,2021.2.3,MacIntel,58.82352941,,,,,,,
,,,,,,,,,,,,,,,,,,,,,,-20,40,20,75,20,20,20,-0.392955801,-0.407458564,1,0,0,0.766,submitButton,48.02951389,-0.392955801,-0.407458564,0,0,0,2,22,142,24,1,40,67456,blockT,180,2022-02-24_17h05.58.130,orientation adjustment block,2021.2.3,MacIntel,58.82352941,,,,,,,
,,,,,,,,,,,,,,,,,,,,,,-21.66666667,-58,20,75,-79.66666667,21.66666667,21.66666667,-0.392955801,-0.407458564,1,0,0,4.917,submitButton,47.82515073,-0.392955801,-0.407458564,0,0,0,2,23,143,42,1,58,67456,blockT,180,2022-02-24_17h05.58.130,orientation adjustment block,2021.2.3,MacIntel,58.82352941,,,,,,,
,,,,,,,,,,,,,,,,,,,,,,-25.55555556,44,20,75,18.44444444,25.55555556,25.55555556,-0.392955801,-0.407458564,1,0,0,0.966,submitButton,47.65384615,-0.392955801,-0.407458564,0,0,0,2,24,144,28,1,44,67456,blockT,180,2022-02-24_17h05.58.130,orientation adjustment block,2021.2.3,MacIntel,58.82352941,,,,,,,
,,,,,,,,,,,,,,,,,,,,,,-56.66666667,53,20,75,-3.666666667,56.66666667,56.66666667,-0.392955801,-0.407458564,1,0,0,0.384,submitButton,47.72264631,-0.392955801,-0.407458564,0,0,0,2,25,145,37,1,53,67456,blockT,180,2022-02-24_17h05.58.130,orientation adjustment block,2021.2.3,MacIntel,58.82352941,,,,,,,
,,,,,,,,,,,,,,,,,,,,,,35,31,20,75,66,35,35,-0.392955801,-0.407458564,1,0,0,0.534,submitButton,47.62626263,-0.392955801,-0.407458564,0,0,0,2,26,146,15,1,31,67456,blockT,180,2022-02-24_17h05.58.130,orientation adjustment block,2021.2.3,MacIntel,58.82352941,,,,,,,
,,,,,,,,,,,,,,,,,,,,,,-65.55555556,-23,20,75,-88.55555556,65.55555556,65.55555556,-0.392955801,-0.407458564,1,0,0,0.3,submitButton,47.76106934,-0.392955801,-0.407458564,0,0,0,2,27,147,7,1,23,67456,blockT,180,2022-02-24_17h05.58.130,orientation adjustment block,2021.2.3,MacIntel,58.82352941,,,,,,,
,,,,,,,,,,,,,,,,,,,,,,-22.22222222,-36,20,75,-58.22222222,22.22222222,22.22222222,-0.392955801,-0.407458564,1,0,0,1.717,submitButton,47.57048093,-0.392955801,-0.407458564,0,0,0,2,28,148,20,1,36,67456,blockT,180,2022-02-24_17h05.58.130,orientation adjustment block,2021.2.3,MacIntel,58.82352941,,,,,,,
,,,,,,,,,,,,,,,,,,,,,,-72.77777778,-64,20,75,-136.7777778,72.77777778,72.77777778,-0.392955801,-0.407458564,1,0,0,0.717,submitButton,47.75720165,0.337707182,-0.385359116,1,0,0,2,29,149,48,1,64,67456,blockT,180,2022-02-24_17h05.58.130,orientation adjustment block,2021.2.3,MacIntel,58.82352941,continueButton,,,,,,
,,,,,,,,,,,,,,,,,,,,,,38.88888889,-73,20,75,-34.11111111,38.88888889,38.88888889,-0.35980663,-0.408839779,1,0,0,1.683,submitButton,47.69199346,-0.35980663,-0.408839779,0,0,0,2,30,150,57,1,73,67456,blockT,180,2022-02-24_17h05.58.130,orientation adjustment block,2021.2.3,MacIntel,58.82352941,,,,,,,
,,,,,,,,,,,,,,,,,,,,,,-23.88888889,18,20,75,-5.888888889,23.88888889,23.88888889,-0.35980663,-0.408839779,1,0,0,0.367,submitButton,47.51824818,-0.35980663,-0.408839779,0,0,0,2,31,151,2,1,18,67456,blockT,180,2022-02-24_17h05.58.130,orientation adjustment block,2021.2.3,MacIntel,58.82352941,,,,,,,
,,,,,,,,,,,,,,,,,,,,,,56.11111111,-19,20,75,37.11111111,56.11111111,56.11111111,-0.415055249,-0.395027624,1,0,0,0.751,submitButton,47.5805153,-0.413674033,-0.395027624,0,0,0,2,32,152,3,1,19,67456,blockT,180,2022-02-24_17h05.58.130,orientation adjustment block,2021.2.3,MacIntel,58.82352941,,,,,,,
,,,,,,,,,,,,,,,,,,,,,,-71.66666667,67,20,75,-4.666666667,71.66666667,71.66666667,-0.413674033,-0.395027624,1,0,0,0.717,submitButton,47.75379696,-0.413674033,-0.395027624,0,0,0,2,33,153,51,1,67,67456,blockT,180,2022-02-24_17h05.58.130,orientation adjustment block,2021.2.3,MacIntel,58.82352941,,,,,,,
,,,,,,,,,,,,,,,,,,,,,,-31.11111111,-33,20,75,-64.11111111,31.11111111,31.11111111,-0.413674033,-0.395027624,1,0,0,0.933,submitButton,47.63492063,-0.413674033,-0.395027624,0,0,0,2,34,154,17,1,33,67456,blockT,180,2022-02-24_17h05.58.130,orientation adjustment block,2021.2.3,MacIntel,58.82352941,,,,,,,
,,,,,,,,,,,,,,,,,,,,,,35,-28,20,75,7,35,35,-0.413674033,-0.395027624,1,0,0,0.383,submitButton,47.54531127,-0.413674033,-0.395027624,0,0,0,2,35,155,12,1,28,67456,blockT,180,2022-02-24_17h05.58.130,orientation adjustment block,2021.2.3,MacIntel,58.82352941,,,,,,,
,,,,,,,,,,,,,,,,,,,,,,-42.22222222,63,20,75,20.77777778,42.22222222,42.22222222,-0.413674033,-0.395027624,1,0,0,0.418,submitButton,47.50782473,-0.413674033,-0.395027624,0,0,0,2,36,156,47,1,63,67456,blockT,180,2022-02-24_17h05.58.130,orientation adjustment block,2021.2.3,MacIntel,58.82352941,,,,,,,
,,,,,,,,,,,,,,,,,,,,,,58.33333333,16,20,75,74.33333333,58.33333333,58.33333333,-0.413674033,-0.395027624,1,0,0,0.3,submitButton,47.58352758,-0.413674033,-0.395027624,0,0,0,2,37,157,0,1,16,67456,blockT,180,2022-02-24_17h05.58.130,orientation adjustment block,2021.2.3,MacIntel,58.82352941,,,,,,,
,,,,,,,,,,,,,,,,,,,,,,31.11111111,69,20,75,100.1111111,31.11111111,31.11111111,-0.413674033,-0.395027624,1,0,0,0.783,submitButton,47.4691358,-0.413674033,-0.395027624,0,0,0,2,38,158,53,1,69,67456,blockT,180,2022-02-24_17h05.58.130,orientation adjustment block,2021.2.3,MacIntel,58.82352941,,,,,,,
,,,,,,,,,,,,,,,,,,,,,,-71.11111111,-24,20,75,-95.11111111,71.11111111,71.11111111,-0.413674033,-0.395027624,1,0,0,0.482,submitButton,47.63218391,-0.413674033,-0.395027624,0,0,0,2,39,159,8,1,24,67456,blockT,180,2022-02-24_17h05.58.130,orientation adjustment block,2021.2.3,MacIntel,58.82352941,,,,,,,
,,,,,,,,,,,,,,,,,,,,,,-57.77777778,75,20,75,17.22222222,57.77777778,57.77777778,-0.413674033,-0.395027624,1,0,0,0.367,submitButton,47.70167428,0.555939227,-0.092541436,0,0,0,2,40,160,59,1,75,67456,blockT,180,2022-02-24_17h05.58.130,orientation adjustment block,2021.2.3,MacIntel,58.82352941,,,,,,,
,,,,,,,,,,,,,,,,,,,,,,-33.88888889,-65,20,75,-98.88888889,33.88888889,33.88888889,-0.247928177,-0.401933702,1,0,0,1.567,submitButton,47.60770975,-0.247928177,-0.401933702,0,0,0,2,41,161,49,1,65,67456,blockT,180,2022-02-24_17h05.58.130,orientation adjustment block,2021.2.3,MacIntel,58.82352941,,,,,,,
,,,,,,,,,,,,,,,,,,,,,,43.33333333,-41,20,75,2.333333333,43.33333333,43.33333333,-0.247928177,-0.401933702,1,0,0,0.601,submitButton,47.57882883,-0.247928177,-0.401933702,0,0,0,2,42,162,25,1,41,67456,blockT,180,2022-02-24_17h05.58.130,orientation adjustment block,2021.2.3,MacIntel,58.82352941,,,,,,,
,,,,,,,,,,,,,,,,,,,,,,72.77777778,-57,20,75,15.77777778,72.77777778,72.77777778,-0.247928177,-0.401933702,1,0,0,0.118,submitButton,47.74794929,-0.247928177,-0.401933702,0,0,0,2,43,163,41,1,57,67456,blockT,180,2022-02-24_17h05.58.130,orientation adjustment block,2021.2.3,MacIntel,58.82352941,,,,,,,
,,,,,,,,,,,,,,,,,,,,,,66.66666667,-70,20,75,-3.333333333,66.66666667,66.66666667,-0.247928177,-0.401933702,1,0,0,2.684,submitButton,47.87407407,0.276933702,-0.39640884,1,0,0,2,44,164,54,1,70,67456,blockT,180,2022-02-24_17h05.58.130,orientation adjustment block,2021.2.3,MacIntel,58.82352941,continueButton,,,,,,
,,,,,,,,,,,,,,,,,,,,,,68.88888889,-48,20,75,20.88888889,68.88888889,68.88888889,-0.452348066,-0.407458564,1,0,0,1.517,submitButton,48.01324503,-0.452348066,-0.407458564,0,0,0,2,45,165,32,1,48,67456,blockT,180,2022-02-24_17h05.58.130,orientation adjustment block,2021.2.3,MacIntel,58.82352941,,,,,,,
,,,,,,,,,,,,,,,,,,,,,,-57.77777778,47,20,75,-10.77777778,57.77777778,57.77777778,-0.452348066,-0.366022099,1,0,0,1.067,submitButton,48.07748538,-0.452348066,-0.41160221,0,0,0,2,46,166,31,1,47,67456,blockT,180,2022-02-24_17h05.58.130,orientation adjustment block,2021.2.3,MacIntel,58.82352941,,,,,,,
,,,,,,,,,,,,,,,,,,,,,,51.66666667,-46,20,75,5.666666667,51.66666667,51.66666667,-0.452348066,-0.41160221,1,0,0,0.516,submitButton,48.10094408,-0.452348066,-0.41160221,0,0,0,2,47,167,30,1,46,67456,blockT,180,2022-02-24_17h05.58.130,orientation adjustment block,2021.2.3,MacIntel,58.82352941,,,,,,,
,,,,,,,,,,,,,,,,,,,,,,-48.88888889,-66,20,75,-114.8888889,48.88888889,48.88888889,-0.452348066,-0.41160221,1,0,0,1.134,submitButton,48.10606061,-0.452348066,-0.41160221,0,0,0,2,48,168,50,1,66,67456,blockT,180,2022-02-24_17h05.58.130,orientation adjustment block,2021.2.3,MacIntel,58.82352941,,,,,,,
,,,,,,,,,,,,,,,,,,,,,,71.66666667,55,20,75,126.6666667,71.66666667,71.66666667,-0.452348066,-0.41160221,1,0,0,0.467,submitButton,48.25806452,-0.452348066,-0.41160221,0,0,0,2,49,169,39,1,55,67456,blockT,180,2022-02-24_17h05.58.130,orientation adjustment block,2021.2.3,MacIntel,58.82352941,,,,,,,
,,,,,,,,,,,,,,,,,,,,,,-59.44444444,32,20,75,-27.44444444,59.44444444,59.44444444,-0.452348066,-0.41160221,1,0,0,1.617,submitButton,48.32977208,-0.358425414,-0.372928177,0,0,0,2,50,170,16,1,32,67456,blockT,180,2022-02-24_17h05.58.130,orientation adjustment block,2021.2.3,MacIntel,58.82352941,,,,,,,
,,,,,,,,,,,,,,,,,,,,,,-49.44444444,-56,20,75,-105.4444444,49.44444444,49.44444444,-0.358425414,-0.41160221,1,0,0,0.783,submitButton,48.3368719,-0.358425414,-0.41160221,0,0,0,2,51,171,40,1,56,67456,blockT,180,2022-02-24_17h05.58.130,orientation adjustment block,2021.2.3,MacIntel,58.82352941,,,,,,,
,,,,,,,,,,,,,,,,,,,,,,49.44444444,37,20,75,86.44444444,49.44444444,49.44444444,-0.358425414,-0.41160221,1,0,0,1.233,submitButton,48.34388186,-0.358425414,-0.41160221,0,0,0,2,52,172,21,1,37,67456,blockT,180,2022-02-24_17h05.58.130,orientation adjustment block,2021.2.3,MacIntel,58.82352941,,,,,,,
,,,,,,,,,,,,,,,,,,,,,,56.11111111,-43,20,75,13.11111111,56.11111111,56.11111111,-0.358425414,-0.41160221,1,0,0,0.6,submitButton,48.39273235,-0.358425414,-0.41160221,0,0,0,2,53,173,27,1,43,67456,blockT,180,2022-02-24_17h05.58.130,orientation adjustment block,2021.2.3,MacIntel,58.82352941,,,,,,,
,,,,,,,,,,,,,,,,,,,,,,-26.11111111,-49,20,75,-75.11111111,26.11111111,26.11111111,-0.361187845,-0.412983425,1,0,0,1.717,submitButton,48.25347222,-0.361187845,-0.412983425,0,0,0,2,54,174,33,1,49,67456,blockT,180,2022-02-24_17h05.58.130,orientation adjustment block,2021.2.3,MacIntel,58.82352941,,,,,,,
,,,,,,,,,,,,,,,,,,,,,,-35.55555556,-62,20,75,-97.55555556,35.55555556,35.55555556,-0.361187845,-0.412983425,1,0,0,0.717,submitButton,48.17460317,-0.361187845,-0.412983425,0,0,0,2,55,175,46,1,62,67456,blockT,180,2022-02-24_17h05.58.130,orientation adjustment block,2021.2.3,MacIntel,58.82352941,,,,,,,
,,,,,,,,,,,,,,,,,,,,,,23.33333333,54,20,75,77.33333333,23.33333333,23.33333333,-0.361187845,-0.412983425,1,0,0,0.567,submitButton,48.021262,-0.361187845,-0.412983425,0,0,0,2,56,176,38,1,54,67456,blockT,180,2022-02-24_17h05.58.130,orientation adjustment block,2021.2.3,MacIntel,58.82352941,,,,,,,
,,,,,,,,,,,,,,,,,,,,,,-51.11111111,-50,20,75,-101.1111111,51.11111111,51.11111111,-0.361187845,-0.412983425,1,0,0,1.516,submitButton,48.04021813,-0.361187845,-0.412983425,0,0,0,2,57,177,34,1,50,67456,blockT,180,2022-02-24_17h05.58.130,orientation adjustment block,2021.2.3,MacIntel,58.82352941,,,,,,,
,,,,,,,,,,,,,,,,,,,,,,42.22222222,27,20,75,69.22222222,42.22222222,42.22222222,-0.361187845,-0.412983425,1,0,0,1.201,submitButton,48.00474255,-0.361187845,-0.412983425,0,0,0,2,58,178,11,1,27,67456,blockT,180,2022-02-24_17h05.58.130,orientation adjustment block,2021.2.3,MacIntel,58.82352941,,,,,,,
,,,,,,,,,,,,,,,,,,,,,,56.66666667,71,20,75,127.6666667,56.66666667,56.66666667,-0.361187845,-0.412983425,1,0,0,0.517,submitButton,48.05723906,-0.361187845,-0.412983425,0,0,0,2,59,179,55,1,71,67456,blockT,180,2022-02-24_17h05.58.130,orientation adjustment block,2021.2.3,MacIntel,58.82352941,,,,,,,
,,,,,,,,,,,,,,,,,,,,,,,,,,,,,,,,,,,,,,,,,,,,,,,,67456,blockT,180,2022-02-24_17h05.58.130,orientation adjustment block,2021.2.3,MacIntel,58.82352941,,0.333563536,-0.41160221,1,0,0,EndButtonTxt
