consentMouse1.x,consentMouse1.y,consentMouse1.leftButton,consentMouse1.midButton,consentMouse1.rightButton,consentMouse1.clicked_name,consent_Mouse.x,consent_Mouse.y,consent_Mouse.leftButton,consent_Mouse.midButton,consent_Mouse.rightButton,consent_Mouse.clicked_name,startMouse.x,startMouse.y,startMouse.leftButton,startMouse.midButton,startMouse.rightButton,startMouse_2.x,startMouse_2.y,startMouse_2.leftButton,startMouse_2.midButton,startMouse_2.rightButton,start_distance,fixedOri,minimalDistance,maxOri,this_ori,accuracy,presented_accuracy,submitMouse.x,submitMouse.y,submitMouse.leftButton,submitMouse.midButton,submitMouse.rightButton,submitMouse.time,submitMouse.clicked_name,block_accuracy,continueMouse.x,continueMouse.y,continueMouse.leftButton,continueMouse.midButton,continueMouse.rightButton,trials.thisRepN,trials.thisTrialN,trials.thisN,trials.thisIndex,trials.ran,startOri,participant,condition,nTrials,date,expName,psychopyVersion,OS,frameRate,continueMouse.clicked_name,EndButtonMouse.x,EndButtonMouse.y,EndButtonMouse.leftButton,EndButtonMouse.midButton,EndButtonMouse.rightButton,EndButtonMouse.clicked_name
0.406623264,-0.400855035,1,0,0,consent_button1,0.407682292,-0.401111111,1,0,0,consent_button,0.14343316,-0.260512153,1,0,0,0.091501736,-0.365768229,1,0,0,-21.66666667,74,20,75,52.33333333,21.66666667,21.66666667,-0.122204861,-0.401627604,1,0,0,8.9991,submitButton,21.66666667,-0.122204861,-0.401627604,0,0,0,0,0,0,58,1,74,67567,blockT,180,2022-02-16_15h26.27.621,orientation adjustment block,2021.2.3,MacIntel,60.0024001,,,,,,,
,,,,,,,,,,,,,,,,,,,,,,31.66666667,-53,20,75,-21.33333333,31.66666667,31.66666667,-0.122204861,-0.401627604,1,0,0,3.1493,submitButton,26.66666667,-0.122204861,-0.401627604,0,0,0,0,1,1,37,1,53,67567,blockT,180,2022-02-16_15h26.27.621,orientation adjustment block,2021.2.3,MacIntel,60.0024001,,,,,,,
,,,,,,,,,,,,,,,,,,,,,,-32.77777778,52,20,75,19.22222222,32.77777778,32.77777778,-0.123268229,-0.401627604,1,0,0,1.2496,submitButton,28.7037037,-0.123268229,-0.401627604,0,0,0,0,2,2,36,1,52,67567,blockT,180,2022-02-16_15h26.27.621,orientation adjustment block,2021.2.3,MacIntel,60.0024001,,,,,,,
,,,,,,,,,,,,,,,,,,,,,,42.77777778,19,20,75,61.77777778,42.77777778,42.77777778,-0.127374132,-0.405394965,1,0,0,4.1837,submitButton,42.77777778,-0.127374132,-0.405394965,0,0,0,0,3,3,3,1,19,67567,blockT,180,2022-02-16_15h26.27.621,orientation adjustment block,2021.2.3,MacIntel,60.0024001,,,,,,,
,,,,,,,,,,,,,,,,,,,,,,52.22222222,47,20,75,99.22222222,52.22222222,52.22222222,-0.127374132,-0.405394965,1,0,0,1.4335,submitButton,47.5,-0.127374132,-0.405394965,0,0,0,0,4,4,31,1,47,67567,blockT,180,2022-02-16_15h26.27.621,orientation adjustment block,2021.2.3,MacIntel,60.0024001,,,,,,,
,,,,,,,,,,,,,,,,,,,,,,-56.11111111,-72,20,75,-128.1111111,56.11111111,56.11111111,-0.127374132,-0.405394965,1,0,0,5.2174,submitButton,50.37037037,-0.127374132,-0.405394965,0,0,0,0,5,5,56,1,72,67567,blockT,180,2022-02-16_15h26.27.621,orientation adjustment block,2021.2.3,MacIntel,60.0024001,,,,,,,
,,,,,,,,,,,,,,,,,,,,,,-43.88888889,49,20,75,5.111111111,43.88888889,43.88888889,-0.127374132,-0.405394965,1,0,0,2.4669,submitButton,43.88888889,-0.127374132,-0.405394965,0,0,0,0,6,6,33,1,49,67567,blockT,180,2022-02-16_15h26.27.621,orientation adjustment block,2021.2.3,MacIntel,60.0024001,,,,,,,
,,,,,,,,,,,,,,,,,,,,,,-39.44444444,-31,20,75,-70.44444444,39.44444444,39.44444444,-0.127374132,-0.405394965,1,0,0,2.55,submitButton,41.66666667,-0.127374132,-0.405394965,0,0,0,0,7,7,15,1,31,67567,blockT,180,2022-02-16_15h26.27.621,orientation adjustment block,2021.2.3,MacIntel,60.0024001,,,,,,,
,,,,,,,,,,,,,,,,,,,,,,37.77777778,42,20,75,111.7777778,69.77777778,69.77777778,0.214231771,-0.306584201,1,0,0,3.1679,submitButton,51.03703704,-0.169279514,-0.405295139,0,0,0,0,8,8,26,1,42,67567,blockT,180,2022-02-16_15h26.27.621,orientation adjustment block,2021.2.3,MacIntel,60.0024001,,,,,,,
,,,,,,,,,,,,,,,,,,,,,,-32.22222222,66,20,75,56.77777778,9.222222222,9.222222222,0.217469618,-0.292860243,1,0,0,3.2006,submitButton,9.222222222,-0.214804688,-0.399027778,0,0,0,0,9,9,50,1,66,67567,blockT,180,2022-02-16_15h26.27.621,orientation adjustment block,2021.2.3,MacIntel,60.0024001,,,,,,,
,,,,,,,,,,,,,,,,,,,,,,-61.11111111,-54,20,75,-165.1111111,68.88888889,68.88888889,0.407261285,-0.287413194,1,0,0,5.6172,submitButton,39.05555556,-0.394483507,-0.397986111,0,0,0,0,10,10,38,1,54,67567,blockT,180,2022-02-16_15h26.27.621,orientation adjustment block,2021.2.3,MacIntel,60.0024001,,,,,,,
,,,,,,,,,,,,,,,,,,,,,,34.44444444,36,20,75,111.4444444,75.44444444,75.44444444,0.201974826,-0.301289062,1,0,0,1.484,submitButton,51.18518519,-0.19765625,-0.407847222,0,0,0,0,11,11,20,1,36,67567,blockT,180,2022-02-16_15h26.27.621,orientation adjustment block,2021.2.3,MacIntel,60.0024001,,,,,,,
,,,,,,,,,,,,,,,,,,,,,,56.11111111,71,20,75,63.11111111,7.888888889,7.888888889,0.358420139,-0.299778646,1,0,0,0.0837,submitButton,7.888888889,-0.277821181,-0.421905382,0,0,0,0,12,12,55,1,71,67567,blockT,180,2022-02-16_15h26.27.621,orientation adjustment block,2021.2.3,MacIntel,60.0024001,,,,,,,
,,,,,,,,,,,,,,,,,,,,,,-68.88888889,34,20,75,-135.8888889,10.11111111,10.11111111,0.375212674,-0.289184028,1,0,0,0.1666,submitButton,9,-0.279440104,-0.409440104,0,0,0,0,13,13,18,1,34,67567,blockT,180,2022-02-16_15h26.27.621,orientation adjustment block,2021.2.3,MacIntel,60.0024001,,,,,,,
,,,,,,,,,,,,,,,,,,,,,,22.22222222,69,20,75,56.22222222,12.77777778,12.77777778,0.395585937,-0.294639757,1,0,0,0.1337,submitButton,10.25925926,0.281202257,-0.402296007,1,0,0,0,14,14,53,1,69,67567,blockT,180,2022-02-16_15h26.27.621,orientation adjustment block,2021.2.3,MacIntel,60.0024001,continueButton,,,,,,
,,,,,,,,,,,,,,,,,,,,,,58.88888889,-64,20,75,-122.1111111,58.11111111,58.11111111,0.389123264,-0.312834201,1,0,0,0.1487,submitButton,58.11111111,-0.132265625,-0.403480903,0,0,0,0,15,15,48,1,64,67567,blockT,180,2022-02-16_15h26.27.621,orientation adjustment block,2021.2.3,MacIntel,60.0024001,,,,,,,
,,,,,,,,,,,,,,,,,,,,,,-61.11111111,-18,20,75,-122.1111111,75.88888889,75.88888889,0.386710069,-0.285677083,1,0,0,0.5844,submitButton,67,0.298077257,-0.10437066,0,0,0,0,16,16,2,1,18,67567,blockT,180,2022-02-16_15h26.27.621,orientation adjustment block,2021.2.3,MacIntel,60.0024001,,,,,,,
,,,,,,,,,,,,,,,,,,,,,,70,56,20,75,70,14,14,0.400720486,-0.288671875,1,0,0,4.1833,submitButton,49.33333333,-0.159131944,-0.415021701,0,0,0,0,17,17,40,1,56,67567,blockT,180,2022-02-16_15h26.27.621,orientation adjustment block,2021.2.3,MacIntel,60.0024001,,,,,,,
,,,,,,,,,,,,,,,,,,,,,,-38.88888889,-23,20,75,-119.8888889,83.11111111,83.11111111,0.400915799,-0.308645833,1,0,0,0.1836,submitButton,57.77777778,-0.150651042,-0.404913194,0,0,0,0,18,18,7,1,23,67567,blockT,180,2022-02-16_15h26.27.621,orientation adjustment block,2021.2.3,MacIntel,60.0024001,,,,,,,
,,,,,,,,,,,,,,,,,,,,,,63.33333333,63,20,75,60.33333333,2.666666667,2.666666667,0.399144965,-0.297508681,1,0,0,0.1005,submitButton,46.75555556,-0.167894965,-0.398415799,0,0,0,0,19,19,47,1,63,67567,blockT,180,2022-02-16_15h26.27.621,orientation adjustment block,2021.2.3,MacIntel,60.0024001,,,,,,,
,,,,,,,,,,,,,,,,,,,,,,-29.44444444,-41,20,75,-110.4444444,69.44444444,69.44444444,0.403802083,-0.293255208,1,0,0,0.1327,submitButton,50.53703704,-0.192109375,-0.411744792,0,0,0,0,20,20,25,1,41,67567,blockT,180,2022-02-16_15h26.27.621,orientation adjustment block,2021.2.3,MacIntel,60.0024001,,,,,,,
,,,,,,,,,,,,,,,,,,,,,,-61.66666667,45,20,75,-130.6666667,4.333333333,4.333333333,0.370138889,-0.288359375,1,0,0,0.0331,submitButton,43.93650794,-0.266119792,-0.410030382,0,0,0,0,21,21,29,1,45,67567,blockT,180,2022-02-16_15h26.27.621,orientation adjustment block,2021.2.3,MacIntel,60.0024001,,,,,,,
,,,,,,,,,,,,,,,,,,,,,,-48.88888889,-50,20,75,-53.88888889,3.888888889,3.888888889,0.234939236,-0.312044271,1,0,0,0.0823,submitButton,38.93055556,-0.214622396,-0.409240451,0,0,0,0,22,22,34,1,50,67567,blockT,180,2022-02-16_15h26.27.621,orientation adjustment block,2021.2.3,MacIntel,60.0024001,,,,,,,
,,,,,,,,,,,,,,,,,,,,,,49.44444444,67,20,75,30.44444444,36.55555556,36.55555556,0.37734809,-0.291918403,1,0,0,0.4662,submitButton,38.66666667,-0.202265625,-0.406953125,0,0,0,0,23,23,51,1,67,67567,blockT,180,2022-02-16_15h26.27.621,orientation adjustment block,2021.2.3,MacIntel,60.0024001,,,,,,,
,,,,,,,,,,,,,,,,,,,,,,-43.88888889,-51,20,75,-51.88888889,0.888888889,0.888888889,0.209053819,-0.306553819,1,0,0,0.6995,submitButton,34.88888889,-0.221228299,-0.403363715,0,0,0,0,24,24,35,1,51,67567,blockT,180,2022-02-16_15h26.27.621,orientation adjustment block,2021.2.3,MacIntel,60.0024001,,,,,,,
,,,,,,,,,,,,,,,,,,,,,,34.44444444,-28,20,75,-20.55555556,7.444444444,7.444444444,0.383190104,-0.287139757,1,0,0,0.6332,submitButton,32.39393939,-0.192265625,-0.407326389,0,0,0,0,25,25,12,1,28,67567,blockT,180,2022-02-16_15h26.27.621,orientation adjustment block,2021.2.3,MacIntel,60.0024001,,,,,,,
,,,,,,,,,,,,,,,,,,,,,,20,70,20,75,129,59,59,0.126319444,-0.298641493,1,0,0,0.3345,submitButton,34.61111111,-0.206584201,-0.393151042,0,0,0,0,26,26,54,1,70,67567,blockT,180,2022-02-16_15h26.27.621,orientation adjustment block,2021.2.3,MacIntel,60.0024001,,,,,,,
,,,,,,,,,,,,,,,,,,,,,,28.88888889,44,20,75,52.88888889,8.888888889,8.888888889,0.22469184,-0.30609809,1,0,0,1.1009,submitButton,32.63247863,-0.159331597,-0.396141493,0,0,0,0,27,27,28,1,44,67567,blockT,180,2022-02-16_15h26.27.621,orientation adjustment block,2021.2.3,MacIntel,60.0024001,,,,,,,
,,,,,,,,,,,,,,,,,,,,,,54.44444444,-46,20,75,147.4444444,13.44444444,13.44444444,0.171414931,-0.309769965,1,0,0,2.4645,submitButton,31.26190476,-0.163246528,-0.406215278,0,0,0,0,28,28,30,1,46,67567,blockT,180,2022-02-16_15h26.27.621,orientation adjustment block,2021.2.3,MacIntel,60.0024001,,,,,,,
,,,,,,,,,,,,,,,,,,,,,,65,68,20,75,45,23,23,0.37062934,-0.310143229,1,0,0,0.0337,submitButton,30.71111111,0.348298611,-0.401493056,1,0,0,0,29,29,52,1,68,67567,blockT,180,2022-02-16_15h26.27.621,orientation adjustment block,2021.2.3,MacIntel,60.0024001,continueButton,,,,,,
,,,,,,,,,,,,,,,,,,,,,,-35.55555556,55,20,75,-131.5555556,6.555555556,6.555555556,0.432486979,-0.284036458,1,0,0,2.2668,submitButton,29.20138889,-0.125763889,-0.405551215,0,0,0,0,30,30,39,1,55,67567,blockT,180,2022-02-16_15h26.27.621,orientation adjustment block,2021.2.3,MacIntel,60.0024001,,,,,,,
,,,,,,,,,,,,,,,,,,,,,,-30,75,20,75,60,15,15,0.193997396,-0.272174479,1,0,0,0.1349,submitButton,28.36601307,-0.305269097,-0.404774306,0,0,0,0,31,31,59,1,75,67567,blockT,180,2022-02-16_15h26.27.621,orientation adjustment block,2021.2.3,MacIntel,60.0024001,,,,,,,
,,,,,,,,,,,,,,,,,,,,,,-56.11111111,30,20,75,21.88888889,8.111111111,8.111111111,0.1871875,-0.310082465,1,0,0,0.5665,submitButton,27.24074074,-0.232165799,-0.398871528,0,0,0,0,32,32,14,1,30,67567,blockT,180,2022-02-16_15h26.27.621,orientation adjustment block,2021.2.3,MacIntel,60.0024001,,,,,,,
,,,,,,,,,,,,,,,,,,,,,,-21.66666667,25,20,75,19.33333333,5.666666667,5.666666667,0.232916667,-0.311241319,1,0,0,0.4014,submitButton,26.10526316,-0.244084201,-0.409809028,0,0,0,0,33,33,9,1,25,67567,blockT,180,2022-02-16_15h26.27.621,orientation adjustment block,2021.2.3,MacIntel,60.0024001,,,,,,,
,,,,,,,,,,,,,,,,,,,,,,-72.77777778,48,20,75,29.22222222,18.77777778,18.77777778,0.216032986,-0.295056424,1,0,0,0.0184,submitButton,25.73888889,-0.12218316,-0.405065104,0,0,0,0,34,34,32,1,48,67567,blockT,180,2022-02-16_15h26.27.621,orientation adjustment block,2021.2.3,MacIntel,60.0024001,,,,,,,
,,,,,,,,,,,,,,,,,,,,,,66.11111111,-35,20,75,-19.88888889,15.11111111,15.11111111,0.389053819,-0.303841146,1,0,0,1.2668,submitButton,25.23280423,-0.197070313,-0.391688368,0,0,0,0,35,35,19,1,35,67567,blockT,180,2022-02-16_15h26.27.621,orientation adjustment block,2021.2.3,MacIntel,60.0024001,,,,,,,
,,,,,,,,,,,,,,,,,,,,,,-40,58,20,75,31,27,27,0.146206597,-0.308854167,1,0,0,0.8506,submitButton,25.31313131,-0.218532986,-0.390846354,0,0,0,0,36,36,42,1,58,67567,blockT,180,2022-02-16_15h26.27.621,orientation adjustment block,2021.2.3,MacIntel,60.0024001,,,,,,,
,,,,,,,,,,,,,,,,,,,,,,-26.66666667,16,20,75,27.33333333,11.33333333,11.33333333,0.451892361,-0.293194444,1,0,0,0.2661,submitButton,24.70531401,-0.156909722,-0.399561632,0,0,0,0,37,37,0,1,16,67567,blockT,180,2022-02-16_15h26.27.621,orientation adjustment block,2021.2.3,MacIntel,60.0024001,,,,,,,
,,,,,,,,,,,,,,,,,,,,,,-53.33333333,24,20,75,19.66666667,4.333333333,4.333333333,0.201184896,-0.31015191,1,0,0,1.2836,submitButton,23.85648148,-0.166779514,-0.399027778,0,0,0,0,38,38,8,1,24,67567,blockT,180,2022-02-16_15h26.27.621,orientation adjustment block,2021.2.3,MacIntel,60.0024001,,,,,,,
,,,,,,,,,,,,,,,,,,,,,,36.11111111,-40,20,75,-32.88888889,7.111111111,7.111111111,0.367881944,-0.290182292,1,0,0,0.3828,submitButton,23.18666667,-0.312699653,-0.398576389,0,0,0,0,39,39,24,1,40,67567,blockT,180,2022-02-16_15h26.27.621,orientation adjustment block,2021.2.3,MacIntel,60.0024001,,,,,,,
,,,,,,,,,,,,,,,,,,,,,,-42.22222222,-39,20,75,-50.22222222,11.22222222,11.22222222,0.360520833,-0.296809896,1,0,0,1.7832,submitButton,22.72649573,-0.176419271,-0.401922743,0,0,0,0,40,40,23,1,39,67567,blockT,180,2022-02-16_15h26.27.621,orientation adjustment block,2021.2.3,MacIntel,60.0024001,,,,,,,
,,,,,,,,,,,,,,,,,,,,,,22.22222222,26,20,75,34.22222222,8.222222222,8.222222222,0.215247396,-0.311263021,1,0,0,0.7404,submitButton,22.18930041,-0.145824653,-0.39749566,0,0,0,0,41,41,10,1,26,67567,blockT,180,2022-02-16_15h26.27.621,orientation adjustment block,2021.2.3,MacIntel,60.0024001,,,,,,,
,,,,,,,,,,,,,,,,,,,,,,42.77777778,22,20,75,35.77777778,13.77777778,13.77777778,0.413302951,-0.288802083,1,0,0,0.8161,submitButton,21.88888889,-0.264496528,-0.395108507,0,0,0,0,42,42,6,1,22,67567,blockT,180,2022-02-16_15h26.27.621,orientation adjustment block,2021.2.3,MacIntel,60.0024001,,,,,,,
,,,,,,,,,,,,,,,,,,,,,,-23.33333333,60,20,75,29.66666667,30.33333333,30.33333333,0.395924479,-0.300711806,1,0,0,0.7157,submitButton,22.18007663,-0.155533854,-0.398732639,0,0,0,0,43,43,44,1,60,67567,blockT,180,2022-02-16_15h26.27.621,orientation adjustment block,2021.2.3,MacIntel,60.0024001,,,,,,,
,,,,,,,,,,,,,,,,,,,,,,-35,-20,20,75,-38,18,18,0.392873264,-0.289266493,1,0,0,0.5176,submitButton,22.04074074,0.509032118,-0.40046875,1,0,0,0,44,44,4,1,20,67567,blockT,180,2022-02-16_15h26.27.621,orientation adjustment block,2021.2.3,MacIntel,60.0024001,continueButton,,,,,,
,,,,,,,,,,,,,,,,,,,,,,21.66666667,-32,20,75,-32.33333333,0.333333333,0.333333333,0.435321181,-0.293311632,1,0,0,0.1832,submitButton,21.34050179,-0.162751736,-0.411671007,0,0,0,0,45,45,16,1,32,67567,blockT,180,2022-02-16_15h26.27.621,orientation adjustment block,2021.2.3,MacIntel,60.0024001,,,,,,,
,,,,,,,,,,,,,,,,,,,,,,72.22222222,-33,20,75,28.22222222,61.22222222,61.22222222,0.376471354,-0.303528646,1,0,0,0.8163,submitButton,22.58680556,-0.126063368,-0.410750868,0,0,0,0,46,46,17,1,33,67567,blockT,180,2022-02-16_15h26.27.621,orientation adjustment block,2021.2.3,MacIntel,60.0024001,,,,,,,
,,,,,,,,,,,,,,,,,,,,,,55.55555556,-17,20,75,-29.44444444,12.44444444,12.44444444,0.407951389,-0.296636285,1,0,0,0.3324,submitButton,22.27946128,-0.205585938,-0.401944444,0,0,0,0,47,47,1,1,17,67567,blockT,180,2022-02-16_15h26.27.621,orientation adjustment block,2021.2.3,MacIntel,60.0024001,,,,,,,
,,,,,,,,,,,,,,,,,,,,,,56.66666667,-43,20,75,-24.33333333,18.66666667,18.66666667,0.373381076,-0.30405816,1,0,0,0.3992,submitButton,22.17320261,-0.193454861,-0.423233507,0,0,0,0,48,48,27,1,43,67567,blockT,180,2022-02-16_15h26.27.621,orientation adjustment block,2021.2.3,MacIntel,60.0024001,,,,,,,
,,,,,,,,,,,,,,,,,,,,,,37.77777778,37,20,75,-30.22222222,67.22222222,67.22222222,0.412543403,-0.292317708,1,0,0,1.1495,submitButton,23.46031746,-0.126757813,-0.403554688,0,0,0,0,49,49,21,1,37,67567,blockT,180,2022-02-16_15h26.27.621,orientation adjustment block,2021.2.3,MacIntel,60.0024001,,,,,,,
,,,,,,,,,,,,,,,,,,,,,,75,57,20,75,217,20,20,0.201809896,-0.312013889,1,0,0,0.2336,submitButton,23.36419753,-0.229544271,-0.400967882,0,0,0,0,50,50,41,1,57,67567,blockT,180,2022-02-16_15h26.27.621,orientation adjustment block,2021.2.3,MacIntel,60.0024001,,,,,,,
,,,,,,,,,,,,,,,,,,,,,,-38.88888889,27,20,75,34.11111111,7.111111111,7.111111111,0.395993924,-0.293528646,1,0,0,0.2816,submitButton,22.92492492,-0.117170139,-0.408012153,0,0,0,0,51,51,11,1,27,67567,blockT,180,2022-02-16_15h26.27.621,orientation adjustment block,2021.2.3,MacIntel,60.0024001,,,,,,,
,,,,,,,,,,,,,,,,,,,,,,24.44444444,-38,20,75,-27.55555556,10.44444444,10.44444444,0.387230903,-0.298654514,1,0,0,0.7165,submitButton,22.59649123,-0.124947917,-0.387356771,0,0,0,0,52,52,22,1,38,67567,blockT,180,2022-02-16_15h26.27.621,orientation adjustment block,2021.2.3,MacIntel,60.0024001,,,,,,,
,,,,,,,,,,,,,,,,,,,,,,41.11111111,-29,20,75,-26.88888889,2.111111111,2.111111111,0.375533854,-0.291072049,1,0,0,0.1341,submitButton,22.07122507,-0.2134375,-0.406883681,0,0,0,0,53,53,13,1,29,67567,blockT,180,2022-02-16_15h26.27.621,orientation adjustment block,2021.2.3,MacIntel,60.0024001,,,,,,,
,,,,,,,,,,,,,,,,,,,,,,-21.66666667,62,20,75,53.33333333,8.666666667,8.666666667,0.213459201,-0.291423611,1,0,0,0.3335,submitButton,21.73611111,-0.173229167,-0.405143229,0,0,0,0,54,54,46,1,62,67567,blockT,180,2022-02-16_15h26.27.621,orientation adjustment block,2021.2.3,MacIntel,60.0024001,,,,,,,
,,,,,,,,,,,,,,,,,,,,,,34.44444444,-73,20,75,-66.55555556,6.444444444,6.444444444,0.384930556,-0.308867187,1,0,0,0.4007,submitButton,21.36314363,-0.189175347,-0.406497396,0,0,0,0,55,55,57,1,73,67567,blockT,180,2022-02-16_15h26.27.621,orientation adjustment block,2021.2.3,MacIntel,60.0024001,,,,,,,
,,,,,,,,,,,,,,,,,,,,,,65.55555556,61,20,75,245.5555556,4.555555556,4.555555556,0.209657118,-0.311818576,1,0,0,0.0995,submitButton,20.96296296,-0.119609375,-0.399557292,0,0,0,0,56,56,45,1,61,67567,blockT,180,2022-02-16_15h26.27.621,orientation adjustment block,2021.2.3,MacIntel,60.0024001,,,,,,,
,,,,,,,,,,,,,,,,,,,,,,-66.66666667,-21,20,75,-35.66666667,14.66666667,14.66666667,0.233420139,-0.293736979,1,0,0,0.1496,submitButton,20.81653747,-0.324010417,-0.403715278,0,0,0,0,57,57,5,1,21,67567,blockT,180,2022-02-16_15h26.27.621,orientation adjustment block,2021.2.3,MacIntel,60.0024001,,,,,,,
,,,,,,,,,,,,,,,,,,,,,,44.44444444,65,20,75,236.4444444,8.555555556,8.555555556,-0.141935764,-0.405989583,1,0,0,3.0338,submitButton,20.53787879,-0.141935764,-0.405989583,0,0,0,0,58,58,49,1,65,67567,blockT,180,2022-02-16_15h26.27.621,orientation adjustment block,2021.2.3,MacIntel,60.0024001,,,,,,,
,,,,,,,,,,,,,,,,,,,,,,-65.55555556,59,20,75,59.44444444,0.444444444,0.444444444,-0.195143229,-0.399457465,1,0,0,1.5661,submitButton,20.09135802,0.254448785,-0.389210069,1,0,0,0,59,59,43,1,59,67567,blockT,180,2022-02-16_15h26.27.621,orientation adjustment block,2021.2.3,MacIntel,60.0024001,continueButton,,,,,,
,,,,,,,,,,,,,,,,,,,,,,-42.77777778,44,20,75,26.22222222,17.77777778,17.77777778,0.368068576,-0.305182292,1,0,0,0.0671,submitButton,20.0410628,-0.168771701,-0.400381944,0,0,0,1,0,60,28,1,44,67567,blockT,180,2022-02-16_15h26.27.621,orientation adjustment block,2021.2.3,MacIntel,60.0024001,,,,,,,
,,,,,,,,,,,,,,,,,,,,,,-43.33333333,22,20,75,28.66666667,6.666666667,6.666666667,-0.225338542,-0.405659722,1,0,0,1.3836,submitButton,19.75650118,-0.225338542,-0.404583333,0,0,0,1,1,61,6,1,22,67567,blockT,180,2022-02-16_15h26.27.621,orientation adjustment block,2021.2.3,MacIntel,60.0024001,,,,,,,
,,,,,,,,,,,,,,,,,,,,,,57.77777778,57,20,75,218.7777778,18.22222222,18.22222222,-0.189414063,-0.410898437,1,0,0,2.6005,submitButton,19.72453704,-0.189414063,-0.410898437,0,0,0,1,2,62,41,1,57,67567,blockT,180,2022-02-16_15h26.27.621,orientation adjustment block,2021.2.3,MacIntel,60.0024001,,,,,,,
,,,,,,,,,,,,,,,,,,,,,,69.44444444,49,20,75,197.4444444,31.55555556,31.55555556,0.191011285,-0.306341146,1,0,0,0.1002,submitButton,19.96598639,-0.167387153,-0.406115451,0,0,0,1,3,63,33,1,49,67567,blockT,180,2022-02-16_15h26.27.621,orientation adjustment block,2021.2.3,MacIntel,60.0024001,,,,,,,
,,,,,,,,,,,,,,,,,,,,,,-48.33333333,53,20,75,52.66666667,0.333333333,0.333333333,-0.199288194,-0.406193576,1,0,0,1.1667,submitButton,19.57333333,-0.199288194,-0.406193576,0,0,0,1,4,64,37,1,53,67567,blockT,180,2022-02-16_15h26.27.621,orientation adjustment block,2021.2.3,MacIntel,60.0024001,,,,,,,
,,,,,,,,,,,,,,,,,,,,,,-67.22222222,-25,20,75,-46.22222222,21.22222222,21.22222222,-0.29281684,-0.403949653,1,0,0,1.7158,submitButton,19.60566449,-0.29281684,-0.403949653,0,0,0,1,5,65,9,1,25,67567,blockT,180,2022-02-16_15h26.27.621,orientation adjustment block,2021.2.3,MacIntel,60.0024001,,,,,,,
,,,,,,,,,,,,,,,,,,,,,,-33.88888889,46,20,75,37.11111111,8.888888889,8.888888889,-0.137018229,-0.395915799,1,0,0,1.318,submitButton,19.39957265,-0.137018229,-0.395915799,0,0,0,1,6,66,30,1,46,67567,blockT,180,2022-02-16_15h26.27.621,orientation adjustment block,2021.2.3,MacIntel,60.0024001,,,,,,,
,,,,,,,,,,,,,,,,,,,,,,-73.88888889,-21,20,75,-29.88888889,8.888888889,8.888888889,0.207638889,-0.308823785,1,0,0,1.4,submitButton,19.20125786,-0.207912326,-0.411757812,0,0,0,1,7,67,5,1,21,67567,blockT,180,2022-02-16_15h26.27.621,orientation adjustment block,2021.2.3,MacIntel,60.0024001,,,,,,,
,,,,,,,,,,,,,,,,,,,,,,-73.88888889,-69,20,75,-59.88888889,9.111111111,9.111111111,0.214739583,-0.28874566,1,0,0,1.5992,submitButton,19.01440329,-0.144648438,-0.409127604,0,0,0,1,8,68,53,1,69,67567,blockT,180,2022-02-16_15h26.27.621,orientation adjustment block,2021.2.3,MacIntel,60.0024001,,,,,,,
,,,,,,,,,,,,,,,,,,,,,,-58.33333333,-36,20,75,-28.33333333,7.666666667,7.666666667,0.216579861,-0.287599826,1,0,0,0.8833,submitButton,18.80808081,-0.167795139,-0.401853299,0,0,0,1,9,69,20,1,36,67567,blockT,180,2022-02-16_15h26.27.621,orientation adjustment block,2021.2.3,MacIntel,60.0024001,,,,,,,
,,,,,,,,,,,,,,,,,,,,,,66.66666667,-64,20,75,-40.33333333,23.66666667,23.66666667,0.377842882,-0.287673611,1,0,0,0.4502,submitButton,18.89484127,-0.199891493,-0.407582465,0,0,0,1,10,70,48,1,64,67567,blockT,180,2022-02-16_15h26.27.621,orientation adjustment block,2021.2.3,MacIntel,60.0024001,,,,,,,
,,,,,,,,,,,,,,,,,,,,,,-25,-43,20,75,-32,11,11,-0.251627604,-0.405976563,1,0,0,0.9843,submitButton,18.75633528,-0.251627604,-0.405716146,0,0,0,1,11,71,27,1,43,67567,blockT,180,2022-02-16_15h26.27.621,orientation adjustment block,2021.2.3,MacIntel,60.0024001,,,,,,,
,,,,,,,,,,,,,,,,,,,,,,44.44444444,-70,20,75,-55.55555556,14.44444444,14.44444444,0.391636285,-0.28562934,1,0,0,0.819,submitButton,18.68199234,-0.115559896,-0.409318576,0,0,0,1,12,72,54,1,70,67567,blockT,180,2022-02-16_15h26.27.621,orientation adjustment block,2021.2.3,MacIntel,60.0024001,,,,,,,
,,,,,,,,,,,,,,,,,,,,,,45,66,20,75,234,12,12,-0.165238715,-0.408068576,1,0,0,2.7679,submitButton,18.56873823,-0.165238715,-0.408068576,0,0,0,1,13,73,50,1,66,67567,blockT,180,2022-02-16_15h26.27.621,orientation adjustment block,2021.2.3,MacIntel,60.0024001,,,,,,,
,,,,,,,,,,,,,,,,,,,,,,-20.55555556,-71,20,75,-55.55555556,15.44444444,15.44444444,0.210399306,-0.293559028,1,0,0,0.2664,submitButton,18.51666667,0.361940104,-0.403472222,1,0,0,1,14,74,55,1,71,67567,blockT,180,2022-02-16_15h26.27.621,orientation adjustment block,2021.2.3,MacIntel,60.0024001,continueButton,,,,,,
,,,,,,,,,,,,,,,,,,,,,,40.55555556,-60,20,75,-42.44444444,17.55555556,17.55555556,0.398077257,-0.289956597,1,0,0,0.4155,submitButton,18.50091075,-0.134544271,-0.391627604,0,0,0,1,15,75,44,1,60,67567,blockT,180,2022-02-16_15h26.27.621,orientation adjustment block,2021.2.3,MacIntel,60.0024001,,,,,,,
,,,,,,,,,,,,,,,,,,,,,,48.33333333,-50,20,75,-45.66666667,4.333333333,4.333333333,-0.176940104,-0.415585938,1,0,0,1.2489,submitButton,18.27240143,-0.176940104,-0.415585938,0,0,0,1,16,76,34,1,50,67567,blockT,180,2022-02-16_15h26.27.621,orientation adjustment block,2021.2.3,MacIntel,60.0024001,,,,,,,
,,,,,,,,,,,,,,,,,,,,,,35.55555556,-17,20,75,148.5555556,14.44444444,14.44444444,-0.215520833,-0.400507813,1,0,0,3.1485,submitButton,18.21164021,-0.215520833,-0.400247396,0,0,0,1,17,77,1,1,17,67567,blockT,180,2022-02-16_15h26.27.621,orientation adjustment block,2021.2.3,MacIntel,60.0024001,,,,,,,
,,,,,,,,,,,,,,,,,,,,,,44.44444444,51,20,75,145.4444444,85.55555556,85.55555556,0.1946875,-0.289730903,1,0,0,0.8669,submitButton,19.26388889,-0.180585937,-0.417460938,0,0,0,1,18,78,35,1,51,67567,blockT,180,2022-02-16_15h26.27.621,orientation adjustment block,2021.2.3,MacIntel,60.0024001,,,,,,,
,,,,,,,,,,,,,,,,,,,,,,-63.88888889,62,20,75,44.11111111,17.88888889,17.88888889,0.180664063,-0.303758681,1,0,0,0.1671,submitButton,19.24273504,-0.187452257,-0.402022569,0,0,0,1,19,79,46,1,62,67567,blockT,180,2022-02-16_15h26.27.621,orientation adjustment block,2021.2.3,MacIntel,60.0024001,,,,,,,
,,,,,,,,,,,,,,,,,,,,,,-40.55555556,-35,20,75,-24.55555556,10.44444444,10.44444444,0.198394097,-0.308940972,1,0,0,0.1332,submitButton,19.10942761,-0.128797743,-0.398229167,0,0,0,1,20,80,19,1,35,67567,blockT,180,2022-02-16_15h26.27.621,orientation adjustment block,2021.2.3,MacIntel,60.0024001,,,,,,,
,,,,,,,,,,,,,,,,,,,,,,-33.33333333,33,20,75,31.66666667,1.333333333,1.333333333,-0.184166667,-0.4103125,1,0,0,1.5507,submitButton,18.84411277,-0.184166667,-0.4103125,0,0,0,1,21,81,17,1,33,67567,blockT,180,2022-02-16_15h26.27.621,orientation adjustment block,2021.2.3,MacIntel,60.0024001,,,,,,,
,,,,,,,,,,,,,,,,,,,,,,-48.88888889,-67,20,75,-50.88888889,16.11111111,16.11111111,-0.167478299,-0.418541667,1,0,0,2.0346,submitButton,18.80392157,-0.167478299,-0.418541667,0,0,0,1,22,82,51,1,67,67567,blockT,180,2022-02-16_15h26.27.621,orientation adjustment block,2021.2.3,MacIntel,60.0024001,,,,,,,
,,,,,,,,,,,,,,,,,,,,,,63.88888889,-55,20,75,139.8888889,14.88888889,14.88888889,-0.232938368,-0.396384549,1,0,0,2.7346,submitButton,18.74718196,-0.232938368,-0.396384549,0,0,0,1,23,83,39,1,55,67567,blockT,180,2022-02-16_15h26.27.621,orientation adjustment block,2021.2.3,MacIntel,60.0024001,,,,,,,
,,,,,,,,,,,,,,,,,,,,,,25.55555556,56,20,75,67.55555556,11.55555556,11.55555556,0.397951389,-0.297265625,1,0,0,0.3994,submitButton,18.64444444,-0.142703993,-0.398858507,0,0,0,1,24,84,40,1,56,67567,blockT,180,2022-02-16_15h26.27.621,orientation adjustment block,2021.2.3,MacIntel,60.0024001,,,,,,,
,,,,,,,,,,,,,,,,,,,,,,36.11111111,27,20,75,30.11111111,3.111111111,3.111111111,0.366493056,-0.291276042,1,0,0,0.1833,submitButton,18.4256651,-0.217269965,-0.401284722,0,0,0,1,25,85,11,1,27,67567,blockT,180,2022-02-16_15h26.27.621,orientation adjustment block,2021.2.3,MacIntel,60.0024001,,,,,,,
,,,,,,,,,,,,,,,,,,,,,,73.88888889,45,20,75,48.88888889,3.888888889,3.888888889,0.385924479,-0.289236111,1,0,0,0.2687,submitButton,18.22376543,-0.15141059,-0.392300347,0,0,0,1,26,86,29,1,45,67567,blockT,180,2022-02-16_15h26.27.621,orientation adjustment block,2021.2.3,MacIntel,60.0024001,,,,,,,
,,,,,,,,,,,,,,,,,,,,,,41.66666667,-72,20,75,-48.33333333,23.66666667,23.66666667,0.365755208,-0.302621528,1,0,0,0.6378,submitButton,18.29832572,-0.228953993,-0.41328125,0,0,0,1,27,87,56,1,72,67567,blockT,180,2022-02-16_15h26.27.621,orientation adjustment block,2021.2.3,MacIntel,60.0024001,,,,,,,
,,,,,,,,,,,,,,,,,,,,,,-21.66666667,19,20,75,24.33333333,5.333333333,5.333333333,0.222877604,-0.295069444,1,0,0,0.1114,submitButton,18.12312312,-0.157313368,-0.405859375,0,0,0,1,28,88,3,1,19,67567,blockT,180,2022-02-16_15h26.27.621,orientation adjustment block,2021.2.3,MacIntel,60.0024001,,,,,,,
,,,,,,,,,,,,,,,,,,,,,,55,-63,20,75,-31,32,32,0.228758681,-0.312547743,1,0,0,0.1465,submitButton,18.30814815,0.310243056,-0.395507813,1,0,0,1,29,89,47,1,63,67567,blockT,180,2022-02-16_15h26.27.621,orientation adjustment block,2021.2.3,MacIntel,60.0024001,continueButton,,,,,,
,,,,,,,,,,,,,,,,,,,,,,-70,-24,20,75,-34,10,10,0.196414931,-0.296362847,1,0,0,1.3998,submitButton,18.19883041,-0.204778646,-0.417647569,0,0,0,1,30,90,8,1,24,67567,blockT,180,2022-02-16_15h26.27.621,orientation adjustment block,2021.2.3,MacIntel,60.0024001,,,,,,,
,,,,,,,,,,,,,,,,,,,,,,26.66666667,40,20,75,42.66666667,2.666666667,2.666666667,0.37641059,-0.279127604,1,0,0,0.1333,submitButton,17.997114,-0.240577257,-0.4103125,0,0,0,1,31,91,24,1,40,67567,blockT,180,2022-02-16_15h26.27.621,orientation adjustment block,2021.2.3,MacIntel,60.0024001,,,,,,,
,,,,,,,,,,,,,,,,,,,,,,-20.55555556,-48,20,75,-50.55555556,2.555555556,2.555555556,0.171783854,-0.298146701,1,0,0,0.2843,submitButton,17.7991453,-0.295625,-0.401527778,0,0,0,1,32,92,32,1,48,67567,blockT,180,2022-02-16_15h26.27.621,orientation adjustment block,2021.2.3,MacIntel,60.0024001,,,,,,,
,,,,,,,,,,,,,,,,,,,,,,-21.11111111,32,20,75,25.88888889,6.111111111,6.111111111,0.163007812,-0.312391493,1,0,0,0.3643,submitButton,17.6511955,-0.175503472,-0.395073785,0,0,0,1,33,93,16,1,32,67567,blockT,180,2022-02-16_15h26.27.621,orientation adjustment block,2021.2.3,MacIntel,60.0024001,,,,,,,
,,,,,,,,,,,,,,,,,,,,,,-45.55555556,16,20,75,44.44444444,28.44444444,28.44444444,0.237947049,-0.310438368,1,0,0,0.1379,submitButton,17.78611111,-0.10327691,-0.399648438,0,0,0,1,34,94,0,1,16,67567,blockT,180,2022-02-16_15h26.27.621,orientation adjustment block,2021.2.3,MacIntel,60.0024001,,,,,,,
,,,,,,,,,,,,,,,,,,,,,,-46.11111111,-58,20,75,-48.11111111,9.888888889,9.888888889,-0.422751736,-0.404006076,1,0,0,1.748,submitButton,17.68861454,-0.422751736,-0.404006076,0,0,0,1,35,95,42,1,58,67567,blockT,180,2022-02-16_15h26.27.621,orientation adjustment block,2021.2.3,MacIntel,60.0024001,,,,,,,
,,,,,,,,,,,,,,,,,,,,,,33.33333333,23,20,75,34.33333333,11.33333333,11.33333333,0.408897569,-0.290221354,1,0,0,0.1512,submitButton,17.61111111,-0.126067708,-0.409496528,0,0,0,1,36,96,7,1,23,67567,blockT,180,2022-02-16_15h26.27.621,orientation adjustment block,2021.2.3,MacIntel,60.0024001,,,,,,,
,,,,,,,,,,,,,,,,,,,,,,-40,-75,20,75,-54,21,21,-0.202556424,-0.397313368,1,0,0,1.5649,submitButton,17.6519411,-0.202556424,-0.397052951,0,0,0,1,37,97,59,1,75,67567,blockT,180,2022-02-16_15h26.27.621,orientation adjustment block,2021.2.3,MacIntel,60.0024001,,,,,,,
,,,,,,,,,,,,,,,,,,,,,,-52.77777778,-68,20,75,-66.77777778,1.222222222,1.222222222,0.20374566,-0.30516059,1,0,0,0.7657,submitButton,17.45634921,-0.13515625,-0.410017361,0,0,0,1,38,98,52,1,68,67567,blockT,180,2022-02-16_15h26.27.621,orientation adjustment block,2021.2.3,MacIntel,60.0024001,,,,,,,
,,,,,,,,,,,,,,,,,,,,,,-45.55555556,-61,20,75,-58.55555556,2.444444444,2.444444444,-0.233224826,-0.405811632,1,0,0,1.9022,submitButton,17.27973856,-0.233224826,-0.405811632,0,0,0,1,39,99,45,1,61,67567,blockT,180,2022-02-16_15h26.27.621,orientation adjustment block,2021.2.3,MacIntel,60.0024001,,,,,,,
,,,,,,,,,,,,,,,,,,,,,,-29.44444444,-28,20,75,-21.44444444,6.555555556,6.555555556,0.177890625,-0.305750868,1,0,0,0.217,submitButton,17.15503876,-0.252391493,-0.413342014,0,0,0,1,40,100,12,1,28,67567,blockT,180,2022-02-16_15h26.27.621,orientation adjustment block,2021.2.3,MacIntel,60.0024001,,,,,,,
,,,,,,,,,,,,,,,,,,,,,,-37.77777778,73,20,75,58.22222222,14.77777778,14.77777778,0.185230035,-0.292243924,1,0,0,0.0993,submitButton,17.12771392,-0.199548611,-0.411644965,0,0,0,1,41,101,57,1,73,67567,blockT,180,2022-02-16_15h26.27.621,orientation adjustment block,2021.2.3,MacIntel,60.0024001,,,,,,,
,,,,,,,,,,,,,,,,,,,,,,68.33333333,-37,20,75,143.3333333,0.333333333,0.333333333,-0.193537326,-0.384930556,1,0,0,2.2015,submitButton,16.93686869,-0.193537326,-0.383611111,0,0,0,1,42,102,21,1,37,67567,blockT,180,2022-02-16_15h26.27.621,orientation adjustment block,2021.2.3,MacIntel,60.0024001,,,,,,,
,,,,,,,,,,,,,,,,,,,,,,-75,29,20,75,-147,4,4,0.403446181,-0.310737847,1,0,0,0.2175,submitButton,16.79151061,-0.143780382,-0.401861979,0,0,0,1,43,103,13,1,29,67567,blockT,180,2022-02-16_15h26.27.621,orientation adjustment block,2021.2.3,MacIntel,60.0024001,,,,,,,
,,,,,,,,,,,,,,,,,,,,,,-48.33333333,65,20,75,52.66666667,12.33333333,12.33333333,0.177148438,-0.321293403,1,0,0,0.0845,submitButton,16.74197531,0.324470486,-0.407899306,1,0,0,1,44,104,49,1,65,67567,blockT,180,2022-02-16_15h26.27.621,orientation adjustment block,2021.2.3,MacIntel,60.0024001,continueButton,,,,,,
,,,,,,,,,,,,,,,,,,,,,,-47.22222222,26,20,75,32.77777778,6.777777778,6.777777778,-0.124665799,-0.400355903,1,0,0,1.4336,submitButton,16.63247863,-0.124665799,-0.400355903,0,0,0,1,45,105,10,1,26,67567,blockT,180,2022-02-16_15h26.27.621,orientation adjustment block,2021.2.3,MacIntel,60.0024001,,,,,,,
,,,,,,,,,,,,,,,,,,,,,,-57.77777778,59,20,75,50.22222222,8.777777778,8.777777778,-0.187460938,-0.395386285,1,0,0,1.4837,submitButton,16.54710145,-0.187460938,-0.395386285,0,0,0,1,46,106,43,1,59,67567,blockT,180,2022-02-16_15h26.27.621,orientation adjustment block,2021.2.3,MacIntel,60.0024001,,,,,,,
,,,,,,,,,,,,,,,,,,,,,,71.11111111,30,20,75,202.1111111,7.888888889,7.888888889,-0.167725694,-0.402374132,1,0,0,2.1187,submitButton,16.45400239,-0.167725694,-0.402374132,0,0,0,1,47,107,14,1,30,67567,blockT,180,2022-02-16_15h26.27.621,orientation adjustment block,2021.2.3,MacIntel,60.0024001,,,,,,,
,,,,,,,,,,,,,,,,,,,,,,62.22222222,34,20,75,206.2222222,7.777777778,7.777777778,0.375195312,-0.302282986,1,0,0,2.2345,submitButton,16.36170213,-0.181970486,-0.398758681,0,0,0,1,48,108,18,1,34,67567,blockT,180,2022-02-16_15h26.27.621,orientation adjustment block,2021.2.3,MacIntel,60.0024001,,,,,,,
,,,,,,,,,,,,,,,,,,,,,,-60,-52,20,75,-44,8,8,-0.192148437,-0.396002604,1,0,0,1.6001,submitButton,16.27368421,-0.192148437,-0.396002604,0,0,0,1,49,109,36,1,52,67567,blockT,180,2022-02-16_15h26.27.621,orientation adjustment block,2021.2.3,MacIntel,60.0024001,,,,,,,
,,,,,,,,,,,,,,,,,,,,,,-31.11111111,42,20,75,46.88888889,4.888888889,4.888888889,-0.148081597,-0.39625434,1,0,0,1.117,submitButton,16.15509259,-0.148081597,-0.39625434,0,0,0,1,50,110,26,1,42,67567,blockT,180,2022-02-16_15h26.27.621,orientation adjustment block,2021.2.3,MacIntel,60.0024001,,,,,,,
,,,,,,,,,,,,,,,,,,,,,,66.11111111,-20,20,75,114.1111111,45.88888889,45.88888889,0.166297743,-0.285920139,1,0,0,0.0996,submitButton,16.46162658,-0.22640625,-0.388081597,0,0,0,1,51,111,4,1,20,67567,blockT,180,2022-02-16_15h26.27.621,orientation adjustment block,2021.2.3,MacIntel,60.0024001,,,,,,,
,,,,,,,,,,,,,,,,,,,,,,27.22222222,47,20,75,54.22222222,7.222222222,7.222222222,0.362131076,-0.283550347,1,0,0,0.7001,submitButton,16.36734694,-0.254678819,-0.408871528,0,0,0,1,52,112,31,1,47,67567,blockT,180,2022-02-16_15h26.27.621,orientation adjustment block,2021.2.3,MacIntel,60.0024001,,,,,,,
,,,,,,,,,,,,,,,,,,,,,,-43.33333333,41,20,75,26.66666667,14.33333333,14.33333333,0.171627604,-0.288033854,1,0,0,0.6506,submitButton,16.34680135,-0.200490451,-0.397369792,0,0,0,1,53,113,25,1,41,67567,blockT,180,2022-02-16_15h26.27.621,orientation adjustment block,2021.2.3,MacIntel,60.0024001,,,,,,,
,,,,,,,,,,,,,,,,,,,,,,61.66666667,31,20,75,207.6666667,3.333333333,3.333333333,0.152291667,-0.299123264,1,0,0,2.033,submitButton,16.21666667,-0.151840278,-0.393932292,0,0,0,1,54,114,15,1,31,67567,blockT,180,2022-02-16_15h26.27.621,orientation adjustment block,2021.2.3,MacIntel,60.0024001,,,,,,,
,,,,,,,,,,,,,,,,,,,,,,-52.77777778,-74,20,75,-220.7777778,33.22222222,33.22222222,0.379210069,-0.295121528,1,0,0,0.2994,submitButton,16.3850385,-0.207790799,-0.398407118,0,0,0,1,55,115,58,1,74,67567,blockT,180,2022-02-16_15h26.27.621,orientation adjustment block,2021.2.3,MacIntel,60.0024001,,,,,,,
,,,,,,,,,,,,,,,,,,,,,,-21.11111111,39,20,75,25.88888889,13.11111111,13.11111111,0.164561632,-0.303802083,1,0,0,0.6998,submitButton,16.35294118,-0.168697917,-0.406345486,0,0,0,1,56,116,23,1,39,67567,blockT,180,2022-02-16_15h26.27.621,orientation adjustment block,2021.2.3,MacIntel,60.0024001,,,,,,,
,,,,,,,,,,,,,,,,,,,,,,-60,-38,20,75,-214,4,4,0.377317708,-0.290733507,1,0,0,0.3155,submitButton,16.23300971,-0.105438368,-0.406484375,0,0,0,1,57,117,22,1,38,67567,blockT,180,2022-02-16_15h26.27.621,orientation adjustment block,2021.2.3,MacIntel,60.0024001,,,,,,,
,,,,,,,,,,,,,,,,,,,,,,33.33333333,54,20,75,197.3333333,36.66666667,36.66666667,0.179835069,-0.290733507,1,0,0,0.8665,submitButton,16.42948718,-0.258645833,-0.404813368,0,0,0,1,58,118,38,1,54,67567,blockT,180,2022-02-16_15h26.27.621,orientation adjustment block,2021.2.3,MacIntel,60.0024001,,,,,,,
,,,,,,,,,,,,,,,,,,,,,,-63.33333333,-18,20,75,-34.33333333,16.33333333,16.33333333,0.207217882,-0.299079861,1,0,0,0.1003,submitButton,16.42857143,0.416488715,-0.400342882,1,0,0,1,59,119,2,1,18,67567,blockT,180,2022-02-16_15h26.27.621,orientation adjustment block,2021.2.3,MacIntel,60.0024001,continueButton,,,,,,
,,,,,,,,,,,,,,,,,,,,,,-74.44444444,-42,20,75,-35.44444444,6.555555556,6.555555556,-0.182235243,-0.404539931,1,0,0,2.0669,submitButton,16.33542977,-0.182235243,-0.404539931,0,0,0,2,0,120,26,1,42,67567,blockT,180,2022-02-16_15h26.27.621,orientation adjustment block,2021.2.3,MacIntel,60.0024001,,,,,,,
,,,,,,,,,,,,,,,,,,,,,,-34.44444444,-21,20,75,-13.44444444,7.555555556,7.555555556,0.191341146,-0.301158854,1,0,0,0.848,submitButton,16.25337487,-0.194804687,-0.40031684,0,0,0,2,1,121,5,1,21,67567,blockT,180,2022-02-16_15h26.27.621,orientation adjustment block,2021.2.3,MacIntel,60.0024001,,,,,,,
,,,,,,,,,,,,,,,,,,,,,,34.44444444,53,20,75,49.44444444,3.555555556,3.555555556,0.381853299,-0.295329861,1,0,0,1.1192,submitButton,16.13580247,-0.180516493,-0.401762153,0,0,0,2,2,122,37,1,53,67567,blockT,180,2022-02-16_15h26.27.621,orientation adjustment block,2021.2.3,MacIntel,60.0024001,,,,,,,
,,,,,,,,,,,,,,,,,,,,,,39.44444444,49,20,75,127.4444444,78.44444444,78.44444444,-0.166532118,-0.403259549,1,0,0,1.2007,submitButton,16.70744139,-0.166532118,-0.403259549,0,0,0,2,3,123,33,1,49,67567,blockT,180,2022-02-16_15h26.27.621,orientation adjustment block,2021.2.3,MacIntel,60.0024001,,,,,,,
,,,,,,,,,,,,,,,,,,,,,,69.44444444,-30,20,75,-32.55555556,2.555555556,2.555555556,0.365056424,-0.312278646,1,0,0,0.35,submitButton,16.57878788,-0.190963542,-0.417799479,0,0,0,2,4,124,14,1,30,67567,blockT,180,2022-02-16_15h26.27.621,orientation adjustment block,2021.2.3,MacIntel,60.0024001,,,,,,,
,,,,,,,,,,,,,,,,,,,,,,-46.11111111,44,20,75,33.88888889,10.11111111,10.11111111,0.163802083,-0.309149306,1,0,0,0.183,submitButton,16.52052052,-0.18827691,-0.398793403,0,0,0,2,5,125,28,1,44,67567,blockT,180,2022-02-16_15h26.27.621,orientation adjustment block,2021.2.3,MacIntel,60.0024001,,,,,,,
,,,,,,,,,,,,,,,,,,,,,,21.66666667,39,20,75,23.66666667,15.33333333,15.33333333,0.390520833,-0.302955729,1,0,0,0.6505,submitButton,16.50992063,-0.148585069,-0.397296007,0,0,0,2,6,126,23,1,39,67567,blockT,180,2022-02-16_15h26.27.621,orientation adjustment block,2021.2.3,MacIntel,60.0024001,,,,,,,
,,,,,,,,,,,,,,,,,,,,,,-47.22222222,73,20,75,45.77777778,27.22222222,27.22222222,0.181323785,-0.312604167,1,0,0,0.2169,submitButton,16.60471976,-0.136875,-0.402013889,0,0,0,2,7,127,57,1,73,67567,blockT,180,2022-02-16_15h26.27.621,orientation adjustment block,2021.2.3,MacIntel,60.0024001,,,,,,,
,,,,,,,,,,,,,,,,,,,,,,70.55555556,-27,20,75,-25.44444444,1.555555556,1.555555556,0.36874566,-0.311835937,1,0,0,0.2169,submitButton,16.47270955,-0.124769965,-0.401592882,0,0,0,2,8,128,11,1,27,67567,blockT,180,2022-02-16_15h26.27.621,orientation adjustment block,2021.2.3,MacIntel,60.0024001,,,,,,,
,,,,,,,,,,,,,,,,,,,,,,44.44444444,45,20,75,216.4444444,8.555555556,8.555555556,0.198611111,-0.312743056,1,0,0,0.1823,submitButton,16.40386473,-0.16109375,-0.405338542,0,0,0,2,9,129,29,1,45,67567,blockT,180,2022-02-16_15h26.27.621,orientation adjustment block,2021.2.3,MacIntel,60.0024001,,,,,,,
,,,,,,,,,,,,,,,,,,,,,,36.11111111,71,20,75,59.11111111,11.88888889,11.88888889,0.409019097,-0.304644097,1,0,0,0.3325,submitButton,16.36494253,-0.217838542,-0.390985243,0,0,0,2,10,130,55,1,71,67567,blockT,180,2022-02-16_15h26.27.621,orientation adjustment block,2021.2.3,MacIntel,60.0024001,,,,,,,
,,,,,,,,,,,,,,,,,,,,,,26.11111111,20,20,75,22.11111111,2.111111111,2.111111111,0.377148437,-0.295434028,1,0,0,0.3833,submitButton,16.24311491,-0.227065972,-0.396453993,0,0,0,2,11,131,4,1,20,67567,blockT,180,2022-02-16_15h26.27.621,orientation adjustment block,2021.2.3,MacIntel,60.0024001,,,,,,,
,,,,,,,,,,,,,,,,,,,,,,26.11111111,-19,20,75,-22.88888889,3.888888889,3.888888889,0.445733507,-0.296080729,1,0,0,0.0161,submitButton,16.13841808,-0.226276042,-0.396349826,0,0,0,2,12,132,3,1,19,67567,blockT,180,2022-02-16_15h26.27.621,orientation adjustment block,2021.2.3,MacIntel,60.0024001,,,,,,,
,,,,,,,,,,,,,,,,,,,,,,-52.77777778,26,20,75,22.22222222,3.777777778,3.777777778,0.210811632,-0.31578125,1,0,0,0.8997,submitButton,16.03454715,-0.185828993,-0.417144097,0,0,0,2,13,133,10,1,26,67567,blockT,180,2022-02-16_15h26.27.621,orientation adjustment block,2021.2.3,MacIntel,60.0024001,,,,,,,
,,,,,,,,,,,,,,,,,,,,,,-68.88888889,-68,20,75,-229.8888889,18.11111111,18.11111111,-0.121644965,-0.396436632,1,0,0,2.1987,submitButton,16.05185185,0.408567708,-0.38905816,1,0,0,2,14,134,52,1,68,67567,blockT,180,2022-02-16_15h26.27.621,orientation adjustment block,2021.2.3,MacIntel,60.0024001,continueButton,,,,,,
,,,,,,,,,,,,,,,,,,,,,,44.44444444,-24,20,75,-27.55555556,3.555555556,3.555555556,0.377200521,-0.286380208,1,0,0,0.5182,submitButton,15.94857668,-0.162309028,-0.399023438,0,0,0,2,15,135,8,1,24,67567,blockT,180,2022-02-16_15h26.27.621,orientation adjustment block,2021.2.3,MacIntel,60.0024001,,,,,,,
,,,,,,,,,,,,,,,,,,,,,,33.33333333,62,20,75,49.33333333,12.66666667,12.66666667,0.374544271,-0.289440104,1,0,0,0.8,submitButton,15.92167577,-0.244157986,-0.408233507,0,0,0,2,16,136,46,1,62,67567,blockT,180,2022-02-16_15h26.27.621,orientation adjustment block,2021.2.3,MacIntel,60.0024001,,,,,,,
,,,,,,,,,,,,,,,,,,,,,,-26.66666667,17,20,75,23.33333333,6.333333333,6.333333333,0.19952691,-0.291341146,1,0,0,0.0499,submitButton,15.84372177,-0.138190104,-0.410512153,0,0,0,2,17,137,1,1,17,67567,blockT,180,2022-02-16_15h26.27.621,orientation adjustment block,2021.2.3,MacIntel,60.0024001,,,,,,,
,,,,,,,,,,,,,,,,,,,,,,68.88888889,-46,20,75,-38.11111111,7.888888889,7.888888889,-0.112226563,-0.399600694,1,0,0,1.7676,submitButton,15.77956989,-0.112226563,-0.399600694,0,0,0,2,18,138,30,1,46,67567,blockT,180,2022-02-16_15h26.27.621,orientation adjustment block,2021.2.3,MacIntel,60.0024001,,,,,,,
,,,,,,,,,,,,,,,,,,,,,,-33.88888889,-38,20,75,-35.88888889,2.111111111,2.111111111,0.393658854,-0.301375868,1,0,0,0.4152,submitButton,15.67022222,-0.184552951,-0.406215278,0,0,0,2,19,139,22,1,38,67567,blockT,180,2022-02-16_15h26.27.621,orientation adjustment block,2021.2.3,MacIntel,60.0024001,,,,,,,
,,,,,,,,,,,,,,,,,,,,,,48.88888889,64,20,75,227.8888889,16.11111111,16.11111111,0.201202257,-0.324939236,1,0,0,0.0835,submitButton,15.67372134,-0.194739583,-0.401532118,0,0,0,2,20,140,48,1,64,67567,blockT,180,2022-02-16_15h26.27.621,orientation adjustment block,2021.2.3,MacIntel,60.0024001,,,,,,,
,,,,,,,,,,,,,,,,,,,,,,42.77777778,35,20,75,43.77777778,8.777777778,8.777777778,0.369301215,-0.321649306,1,0,0,0.2826,submitButton,15.61942257,-0.246471354,-0.403107639,0,0,0,2,21,141,19,1,35,67567,blockT,180,2022-02-16_15h26.27.621,orientation adjustment block,2021.2.3,MacIntel,60.0024001,,,,,,,
,,,,,,,,,,,,,,,,,,,,,,-62.77777778,40,20,75,33.22222222,6.777777778,6.777777778,0.197591146,-0.288619792,1,0,0,0.4327,submitButton,15.55034722,-0.20578559,-0.392326389,0,0,0,2,22,142,24,1,40,67567,blockT,180,2022-02-16_15h26.27.621,orientation adjustment block,2021.2.3,MacIntel,60.0024001,,,,,,,
,,,,,,,,,,,,,,,,,,,,,,-62.22222222,-51,20,75,-222.2222222,8.777777778,8.777777778,0.401210937,-0.281996528,1,0,0,0.1838,submitButton,15.49784668,-0.150755208,-0.401901042,0,0,0,2,23,143,35,1,51,67567,blockT,180,2022-02-16_15h26.27.621,orientation adjustment block,2021.2.3,MacIntel,60.0024001,,,,,,,
,,,,,,,,,,,,,,,,,,,,,,-45.55555556,-43,20,75,-36.55555556,6.444444444,6.444444444,0.201358507,-0.302105035,1,0,0,0.1507,submitButton,15.42820513,-0.224032118,-0.394457465,0,0,0,2,24,144,27,1,43,67567,blockT,180,2022-02-16_15h26.27.621,orientation adjustment block,2021.2.3,MacIntel,60.0024001,,,,,,,
,,,,,,,,,,,,,,,,,,,,,,-64.44444444,58,20,75,45.55555556,12.44444444,12.44444444,0.392469618,-0.286393229,1,0,0,0.5495,submitButton,15.40542833,-0.253997396,-0.406814236,0,0,0,2,25,145,42,1,58,67567,blockT,180,2022-02-16_15h26.27.621,orientation adjustment block,2021.2.3,MacIntel,60.0024001,,,,,,,
,,,,,,,,,,,,,,,,,,,,,,34.44444444,-66,20,75,-61.55555556,4.444444444,4.444444444,0.432786458,-0.290486111,1,0,0,0.3486,submitButton,15.32239057,-0.123346354,-0.410256076,0,0,0,2,26,146,50,1,66,67567,blockT,180,2022-02-16_15h26.27.621,orientation adjustment block,2021.2.3,MacIntel,60.0024001,,,,,,,
,,,,,,,,,,,,,,,,,,,,,,30.55555556,-33,20,75,-25.44444444,7.555555556,7.555555556,-0.111380208,-0.401232639,1,0,0,1.317,submitButton,15.26399332,-0.111675347,-0.400642361,0,0,0,2,27,147,17,1,33,67567,blockT,180,2022-02-16_15h26.27.621,orientation adjustment block,2021.2.3,MacIntel,60.0024001,,,,,,,
,,,,,,,,,,,,,,,,,,,,,,-53.33333333,25,20,75,31.66666667,6.666666667,6.666666667,0.408498264,-0.2990625,1,0,0,0.0493,submitButton,15.19983416,-0.204361979,-0.403936632,0,0,0,2,28,148,9,1,25,67567,blockT,180,2022-02-16_15h26.27.621,orientation adjustment block,2021.2.3,MacIntel,60.0024001,,,,,,,
,,,,,,,,,,,,,,,,,,,,,,61.11111111,-65,20,75,-42.88888889,22.11111111,22.11111111,0.41328559,-0.307517361,1,0,0,0.0664,submitButton,15.25102881,0.412925347,-0.398975694,1,0,0,2,29,149,49,1,65,67567,blockT,180,2022-02-16_15h26.27.621,orientation adjustment block,2021.2.3,MacIntel,60.0024001,continueButton,,,,,,
,,,,,,,,,,,,,,,,,,,,,,28.33333333,31,20,75,30.33333333,0.666666667,0.666666667,0.379982639,-0.302447917,1,0,0,0.1826,submitButton,15.14379085,-0.130828993,-0.394605035,0,0,0,2,30,150,15,1,31,67567,blockT,180,2022-02-16_15h26.27.621,orientation adjustment block,2021.2.3,MacIntel,60.0024001,,,,,,,
,,,,,,,,,,,,,,,,,,,,,,-61.66666667,-52,20,75,-220.6666667,11.33333333,11.33333333,0.396584201,-0.288159722,1,0,0,0.3655,submitButton,15.11597729,-0.206384549,-0.392717014,0,0,0,2,31,151,36,1,52,67567,blockT,180,2022-02-16_15h26.27.621,orientation adjustment block,2021.2.3,MacIntel,60.0024001,,,,,,,
,,,,,,,,,,,,,,,,,,,,,,29.44444444,-36,20,75,-29.55555556,6.444444444,6.444444444,0.41828559,-0.286102431,1,0,0,0.3999,submitButton,15.0531401,-0.130763889,-0.401792535,0,0,0,2,32,152,20,1,36,67567,blockT,180,2022-02-16_15h26.27.621,orientation adjustment block,2021.2.3,MacIntel,60.0024001,,,,,,,
,,,,,,,,,,,,,,,,,,,,,,20.55555556,-60,20,75,-46.44444444,13.55555556,13.55555556,-0.224861111,-0.40375434,1,0,0,1.2355,submitButton,15.04236611,-0.224861111,-0.403233507,0,0,0,2,33,153,44,1,60,67567,blockT,180,2022-02-16_15h26.27.621,orientation adjustment block,2021.2.3,MacIntel,60.0024001,,,,,,,
,,,,,,,,,,,,,,,,,,,,,,-30.55555556,70,20,75,57.44444444,12.55555556,12.55555556,0.374861111,-0.276549479,1,0,0,0.2662,submitButton,15.02460317,-0.200820312,-0.400737847,0,0,0,2,34,154,54,1,70,67567,blockT,180,2022-02-16_15h26.27.621,orientation adjustment block,2021.2.3,MacIntel,60.0024001,,,,,,,
,,,,,,,,,,,,,,,,,,,,,,35.55555556,-56,20,75,-43.44444444,12.55555556,12.55555556,0.386067708,-0.309743924,1,0,0,0.117,submitButton,15.0070922,-0.107335069,-0.397994792,0,0,0,2,35,155,40,1,56,67567,blockT,180,2022-02-16_15h26.27.621,orientation adjustment block,2021.2.3,MacIntel,60.0024001,,,,,,,
,,,,,,,,,,,,,,,,,,,,,,67.77777778,74,20,75,233.7777778,20.22222222,20.22222222,0.162452257,-0.302521701,1,0,0,0.2502,submitButton,15.04381847,-0.171384549,-0.418780382,0,0,0,2,36,156,58,1,74,67567,blockT,180,2022-02-16_15h26.27.621,orientation adjustment block,2021.2.3,MacIntel,60.0024001,,,,,,,
,,,,,,,,,,,,,,,,,,,,,,33.88888889,54,20,75,57.88888889,3.888888889,3.888888889,0.392204861,-0.306979167,1,0,0,1.1,submitButton,14.96581197,-0.190069444,-0.397057292,0,0,0,2,37,157,38,1,54,67567,blockT,180,2022-02-16_15h26.27.621,orientation adjustment block,2021.2.3,MacIntel,60.0024001,,,,,,,
,,,,,,,,,,,,,,,,,,,,,,-62.22222222,69,20,75,46.77777778,22.22222222,22.22222222,0.165026042,-0.307482639,1,0,0,0.4331,submitButton,15.0162037,-0.239483507,-0.399227431,0,0,0,2,38,158,53,1,69,67567,blockT,180,2022-02-16_15h26.27.621,orientation adjustment block,2021.2.3,MacIntel,60.0024001,,,,,,,
,,,,,,,,,,,,,,,,,,,,,,-38.33333333,55,20,75,48.66666667,6.333333333,6.333333333,-0.114457465,-0.392612847,1,0,0,1.066,submitButton,14.95632184,-0.114457465,-0.392612847,0,0,0,2,39,159,39,1,55,67567,blockT,180,2022-02-16_15h26.27.621,orientation adjustment block,2021.2.3,MacIntel,60.0024001,,,,,,,
,,,,,,,,,,,,,,,,,,,,,,31.66666667,-72,20,75,-62.33333333,9.666666667,9.666666667,0.372009549,-0.288832465,1,0,0,0.3837,submitButton,14.92009132,-0.18578559,-0.404713542,0,0,0,2,40,160,56,1,72,67567,blockT,180,2022-02-16_15h26.27.621,orientation adjustment block,2021.2.3,MacIntel,60.0024001,,,,,,,
,,,,,,,,,,,,,,,,,,,,,,23.88888889,-34,20,75,-26.11111111,7.888888889,7.888888889,0.366888021,-0.289644097,1,0,0,0.2981,submitButton,14.87226002,-0.203684896,-0.391354167,0,0,0,2,41,161,18,1,34,67567,blockT,180,2022-02-16_15h26.27.621,orientation adjustment block,2021.2.3,MacIntel,60.0024001,,,,,,,
,,,,,,,,,,,,,,,,,,,,,,60,67,20,75,48,19,19,0.382439236,-0.295125868,1,0,0,0.083,submitButton,14.90015015,-0.179717882,-0.398151042,0,0,0,2,42,162,51,1,67,67567,blockT,180,2022-02-16_15h26.27.621,orientation adjustment block,2021.2.3,MacIntel,60.0024001,,,,,,,
,,,,,,,,,,,,,,,,,,,,,,61.66666667,-29,20,75,-38.33333333,9.333333333,9.333333333,0.407960069,-0.296002604,1,0,0,0.2666,submitButton,14.86278896,-0.121024306,-0.407269965,0,0,0,2,43,163,13,1,29,67567,blockT,180,2022-02-16_15h26.27.621,orientation adjustment block,2021.2.3,MacIntel,60.0024001,,,,,,,
,,,,,,,,,,,,,,,,,,,,,,-52.77777778,48,20,75,28.22222222,19.77777778,19.77777778,0.406953125,-0.302213542,1,0,0,0.1986,submitButton,14.89555556,0.393411458,-0.406111111,1,0,0,2,44,164,32,1,48,67567,blockT,180,2022-02-16_15h26.27.621,orientation adjustment block,2021.2.3,MacIntel,60.0024001,continueButton,,,,,,
,,,,,,,,,,,,,,,,,,,,,,-27.77777778,28,20,75,26.22222222,1.777777778,1.777777778,-0.135659722,-0.403854167,1,0,0,1.1669,submitButton,14.80868286,-0.135659722,-0.403854167,0,0,0,2,45,165,12,1,28,67567,blockT,180,2022-02-16_15h26.27.621,orientation adjustment block,2021.2.3,MacIntel,60.0024001,,,,,,,
,,,,,,,,,,,,,,,,,,,,,,45.55555556,-47,20,75,-33.44444444,13.55555556,13.55555556,0.227109375,-0.305065104,1,0,0,0.1176,submitButton,14.8004386,-0.113055556,-0.396653646,0,0,0,2,46,166,31,1,47,67567,blockT,180,2022-02-16_15h26.27.621,orientation adjustment block,2021.2.3,MacIntel,60.0024001,,,,,,,
,,,,,,,,,,,,,,,,,,,,,,-40.55555556,41,20,75,27.44444444,13.55555556,13.55555556,0.207786458,-0.325824653,1,0,0,0.4994,submitButton,14.79230211,-0.167786458,-0.403333333,0,0,0,2,47,167,25,1,41,67567,blockT,180,2022-02-16_15h26.27.621,orientation adjustment block,2021.2.3,MacIntel,60.0024001,,,,,,,
,,,,,,,,,,,,,,,,,,,,,,43.33333333,50,20,75,214.3333333,15.66666667,15.66666667,-0.203133681,-0.416953125,1,0,0,2.6166,submitButton,14.7979798,-0.198524306,-0.415646701,0,0,0,2,48,168,34,1,50,67567,blockT,180,2022-02-16_15h26.27.621,orientation adjustment block,2021.2.3,MacIntel,60.0024001,,,,,,,
,,,,,,,,,,,,,,,,,,,,,,-57.22222222,59,20,75,33.77777778,25.22222222,25.22222222,0.173567708,-0.296605903,1,0,0,0.6178,submitButton,14.86523297,-0.178502604,-0.394887153,0,0,0,2,49,169,43,1,59,67567,blockT,180,2022-02-16_15h26.27.621,orientation adjustment block,2021.2.3,MacIntel,60.0024001,,,,,,,
,,,,,,,,,,,,,,,,,,,,,,46.66666667,-18,20,75,-30.33333333,12.33333333,12.33333333,0.375959201,-0.296901042,1,0,0,0.0683,submitButton,14.84900285,-0.128567708,-0.395633681,0,0,0,2,50,170,2,1,18,67567,blockT,180,2022-02-16_15h26.27.621,orientation adjustment block,2021.2.3,MacIntel,60.0024001,,,,,,,
,,,,,,,,,,,,,,,,,,,,,,-73.88888889,22,20,75,13.11111111,8.888888889,8.888888889,0.196063368,-0.30734375,1,0,0,0.2328,submitButton,14.81104034,-0.135572917,-0.410095486,0,0,0,2,51,171,6,1,22,67567,blockT,180,2022-02-16_15h26.27.621,orientation adjustment block,2021.2.3,MacIntel,60.0024001,,,,,,,
,,,,,,,,,,,,,,,,,,,,,,-27.77777778,57,20,75,17.22222222,39.77777778,39.77777778,0.227361111,-0.302447917,1,0,0,0.1671,submitButton,14.96905767,-0.194097222,-0.39875434,0,0,0,2,52,172,41,1,57,67567,blockT,180,2022-02-16_15h26.27.621,orientation adjustment block,2021.2.3,MacIntel,60.0024001,,,,,,,
,,,,,,,,,,,,,,,,,,,,,,-50.55555556,-16,20,75,-26.55555556,10.55555556,10.55555556,0.181801215,-0.298849826,1,0,0,0.0508,submitButton,14.94129979,-0.268537326,-0.395,0,0,0,2,53,173,0,1,16,67567,blockT,180,2022-02-16_15h26.27.621,orientation adjustment block,2021.2.3,MacIntel,60.0024001,,,,,,,
,,,,,,,,,,,,,,,,,,,,,,23.88888889,32,20,75,16.88888889,15.11111111,15.11111111,0.390438368,-0.273875868,1,0,0,0.5671,submitButton,14.94236111,-0.198125,-0.40296875,0,0,0,2,54,174,16,1,32,67567,blockT,180,2022-02-16_15h26.27.621,orientation adjustment block,2021.2.3,MacIntel,60.0024001,,,,,,,
,,,,,,,,,,,,,,,,,,,,,,-43.33333333,-75,20,75,-232.3333333,22.66666667,22.66666667,0.437135417,-0.268658854,1,0,0,0.8669,submitButton,14.99033816,-0.216519097,-0.421119792,0,0,0,2,55,175,59,1,75,67567,blockT,180,2022-02-16_15h26.27.621,orientation adjustment block,2021.2.3,MacIntel,60.0024001,,,,,,,
,,,,,,,,,,,,,,,,,,,,,,24.44444444,61,20,75,59.44444444,1.555555556,1.555555556,0.422842882,-0.307460937,1,0,0,0.1668,submitButton,14.90740741,-0.168446181,-0.403680556,0,0,0,2,56,176,45,1,61,67567,blockT,180,2022-02-16_15h26.27.621,orientation adjustment block,2021.2.3,MacIntel,60.0024001,,,,,,,
,,,,,,,,,,,,,,,,,,,,,,52.77777778,-37,20,75,-34.22222222,2.777777778,2.777777778,0.39515625,-0.295833333,1,0,0,0.5663,submitButton,14.8329925,-0.192955729,-0.389157986,0,0,0,2,57,177,21,1,37,67567,blockT,180,2022-02-16_15h26.27.621,orientation adjustment block,2021.2.3,MacIntel,60.0024001,,,,,,,
,,,,,,,,,,,,,,,,,,,,,,-72.22222222,-23,20,75,-199.2222222,3.777777778,3.777777778,0.365516493,-0.300438368,1,0,0,0.0844,submitButton,14.76558266,-0.234249132,-0.407022569,0,0,0,2,58,178,7,1,23,67567,blockT,180,2022-02-16_15h26.27.621,orientation adjustment block,2021.2.3,MacIntel,60.0024001,,,,,,,
,,,,,,,,,,,,,,,,,,,,,,-55.55555556,63,20,75,34.44444444,28.55555556,28.55555556,0.424544271,-0.298580729,1,0,0,0.2505,submitButton,14.84915825,-0.173046875,-0.399327257,0,0,0,2,59,179,47,1,63,67567,blockT,180,2022-02-16_15h26.27.621,orientation adjustment block,2021.2.3,MacIntel,60.0024001,,,,,,,
,,,,,,,,,,,,,,,,,,,,,,,,,,,,,,,,,,,,,,,,,,,,,,,,67567,blockT,180,2022-02-16_15h26.27.621,orientation adjustment block,2021.2.3,MacIntel,60.0024001,,0.394201389,-0.394019097,1,0,0,EndButtonTxt
