consentMouse1.x,consentMouse1.y,consentMouse1.leftButton,consentMouse1.midButton,consentMouse1.rightButton,consentMouse1.clicked_name,consent_Mouse.x,consent_Mouse.y,consent_Mouse.leftButton,consent_Mouse.midButton,consent_Mouse.rightButton,consent_Mouse.clicked_name,startMouse.x,startMouse.y,startMouse.leftButton,startMouse.midButton,startMouse.rightButton,startMouse_2.x,startMouse_2.y,startMouse_2.leftButton,startMouse_2.midButton,startMouse_2.rightButton,start_distance,fixedOri,minimalDistance,maxOri,this_ori,accuracy,presented_accuracy,submitMouse.x,submitMouse.y,submitMouse.leftButton,submitMouse.midButton,submitMouse.rightButton,submitMouse.time,submitMouse.clicked_name,block_accuracy,continueMouse.x,continueMouse.y,continueMouse.leftButton,continueMouse.midButton,continueMouse.rightButton,trials.thisRepN,trials.thisTrialN,trials.thisN,trials.thisIndex,trials.ran,startOri,participant,condition,nTrials,date,expName,psychopyVersion,OS,frameRate,continueMouse.clicked_name,EndButtonMouse.x,EndButtonMouse.y,EndButtonMouse.leftButton,EndButtonMouse.midButton,EndButtonMouse.rightButton,EndButtonMouse.clicked_name
0.417419104,-0.398148155,1,0,0,consent_button1,0.411863436,-0.394444451,1,0,0,consent_button,0.151678248,-0.296296359,1,0,0,0.151678248,-0.296296359,1,0,0,29.44444444,-47,20,75,-61.55555556,14.55555556,14.55555556,0.377604176,-0.291666673,1,0,0,9.7907,submitButton,14.55555556,-0.166840272,-0.402777785,0,0,0,0,0,0,31,1,47,67672,blockT,180,2022-02-16_15h22.37.840,orientation adjustment block,2021.2.3,Win32,60.44852808,,,,,,,
,,,,,,,,,,,,,,,,,,,,,,-35.55555556,-45,20,75,-55.55555556,10.55555556,10.55555556,0.190567138,-0.281481487,1,0,0,0.2937,submitButton,12.55555556,0.06927084,-0.33240747,0,0,0,0,1,1,29,1,45,67672,blockT,180,2022-02-16_15h22.37.840,orientation adjustment block,2021.2.3,Win32,60.44852808,,,,,,,
,,,,,,,,,,,,,,,,,,,,,,-49.44444444,26,20,75,25.55555556,0.444444444,0.444444444,0.219270842,-0.300925932,1,0,0,0.2842,submitButton,8.518518519,0.152604174,-0.317592599,0,0,0,0,2,2,10,1,26,67672,blockT,180,2022-02-16_15h22.37.840,orientation adjustment block,2021.2.3,Win32,60.44852808,,,,,,,
,,,,,,,,,,,,,,,,,,,,,,55,16,20,75,200,4,4,0.201678249,-0.291666673,1,0,0,0.217,submitButton,4,-0.152025457,-0.418518582,0,0,0,0,3,3,0,1,16,67672,blockT,180,2022-02-16_15h22.37.840,orientation adjustment block,2021.2.3,Win32,60.44852808,,,,,,,
,,,,,,,,,,,,,,,,,,,,,,-28.33333333,54,20,75,69.66666667,15.66666667,15.66666667,-0.277025458,-0.40833334,1,0,0,1.8152,submitButton,9.833333333,0.086863433,-0.221296358,0,0,0,0,4,4,38,1,54,67672,blockT,180,2022-02-16_15h22.37.840,orientation adjustment block,2021.2.3,Win32,60.44852808,,,,,,,
,,,,,,,,,,,,,,,,,,,,,,39.44444444,74,20,75,257.4444444,3.444444444,3.444444444,0.220196768,-0.279629692,1,0,0,1.33,submitButton,7.703703704,-0.243692125,-0.412963026,0,0,0,0,5,5,58,1,74,67672,blockT,180,2022-02-16_15h22.37.840,orientation adjustment block,2021.2.3,Win32,60.44852808,,,,,,,
,,,,,,,,,,,,,,,,,,,,,,-52.22222222,-22,20,75,-27.22222222,5.222222222,5.222222222,0.190567138,-0.298148154,1,0,0,0.2331,submitButton,5.222222222,-0.246469903,-0.407407471,0,0,0,0,6,6,6,1,22,67672,blockT,180,2022-02-16_15h22.37.840,orientation adjustment block,2021.2.3,Win32,60.44852808,,,,,,,
,,,,,,,,,,,,,,,,,,,,,,51.11111111,38,20,75,219.1111111,1.111111111,1.111111111,0.201678249,-0.313888895,1,0,0,0.6125,submitButton,3.166666667,-0.188136569,-0.400925933,0,0,0,0,7,7,22,1,38,67672,blockT,180,2022-02-16_15h22.37.840,orientation adjustment block,2021.2.3,Win32,60.44852808,,,,,,,
,,,,,,,,,,,,,,,,,,,,,,-57.77777778,33,20,75,57.22222222,24.22222222,24.22222222,0.202604175,-0.311111117,1,0,0,1.2774,submitButton,10.18518519,-0.25387731,-0.422222229,0,0,0,0,8,8,17,1,33,67672,blockT,180,2022-02-16_15h22.37.840,orientation adjustment block,2021.2.3,Win32,60.44852808,,,,,,,
,,,,,,,,,,,,,,,,,,,,,,-55,43,20,75,46,3,3,0.210011582,-0.299074137,1,0,0,0.6619,submitButton,3,-0.217766199,-0.392592599,0,0,0,0,9,9,27,1,43,67672,blockT,180,2022-02-16_15h22.37.840,orientation adjustment block,2021.2.3,Win32,60.44852808,,,,,,,
,,,,,,,,,,,,,,,,,,,,,,73.88888889,-64,20,75,-46.11111111,17.88888889,17.88888889,0.394270843,-0.312963026,1,0,0,0.9945,submitButton,10.44444444,-0.189062495,-0.395370377,0,0,0,0,10,10,48,1,64,67672,blockT,180,2022-02-16_15h22.37.840,orientation adjustment block,2021.2.3,Win32,60.44852808,,,,,,,
,,,,,,,,,,,,,,,,,,,,,,35.55555556,49,20,75,227.5555556,1.444444444,1.444444444,0.195196767,-0.286111117,1,0,0,0.7497,submitButton,7.444444444,0.210937508,-0.318518581,0,0,0,0,11,11,33,1,49,67672,blockT,180,2022-02-16_15h22.37.840,orientation adjustment block,2021.2.3,Win32,60.44852808,,,,,,,
,,,,,,,,,,,,,,,,,,,,,,31.66666667,73,20,75,244.6666667,8.333333333,8.333333333,0.223900471,-0.308333339,1,0,0,4.576,submitButton,8.333333333,0.047974544,-0.329629692,0,0,0,0,12,12,57,1,73,67672,blockT,180,2022-02-16_15h22.37.840,orientation adjustment block,2021.2.3,Win32,60.44852808,,,,,,,
,,,,,,,,,,,,,,,,,,,,,,67.77777778,42,20,75,210.7777778,11.22222222,11.22222222,0.219270842,-0.30370371,1,0,0,1.0326,submitButton,9.777777778,0.197974545,-0.319444451,0,0,0,0,13,13,26,1,42,67672,blockT,180,2022-02-16_15h22.37.840,orientation adjustment block,2021.2.3,Win32,60.44852808,,,,,,,
,,,,,,,,,,,,,,,,,,,,,,70.55555556,-65,20,75,-29.44444444,35.55555556,35.55555556,0.399826398,-0.285185248,1,0,0,0.5292,submitButton,18.37037037,0.319270842,-0.404629693,1,0,0,0,14,14,49,1,65,67672,blockT,180,2022-02-16_15h22.37.840,orientation adjustment block,2021.2.3,Win32,60.44852808,continueButton,,,,,,
,,,,,,,,,,,,,,,,,,,,,,67.22222222,52,20,75,232.2222222,0.222222222,0.222222222,0.238715286,-0.318518581,1,0,0,1.0827,submitButton,0.222222222,0.179456026,-0.305555562,0,0,0,0,15,15,36,1,52,67672,blockT,180,2022-02-16_15h22.37.840,orientation adjustment block,2021.2.3,Win32,60.44852808,,,,,,,
,,,,,,,,,,,,,,,,,,,,,,-20.55555556,-23,20,75,-43.55555556,20.55555556,20.55555556,-0.17424768,-0.406481488,1,0,0,1.7484,submitButton,10.38888889,-0.17424768,-0.406481488,0,0,0,0,16,16,7,1,23,67672,blockT,180,2022-02-16_15h22.37.840,orientation adjustment block,2021.2.3,Win32,60.44852808,,,,,,,
,,,,,,,,,,,,,,,,,,,,,,-56.11111111,-20,20,75,-15.11111111,4.888888889,4.888888889,0.231307879,-0.287037043,1,0,0,0.2958,submitButton,8.555555556,-0.139062494,-0.373148155,0,0,0,0,17,17,4,1,20,67672,blockT,180,2022-02-16_15h22.37.840,orientation adjustment block,2021.2.3,Win32,60.44852808,,,,,,,
,,,,,,,,,,,,,,,,,,,,,,-66.66666667,-70,20,75,-235.6666667,14.33333333,14.33333333,0.386863435,-0.30740747,1,0,0,1.199,submitButton,10,0.192419103,-0.350000006,0,0,0,0,18,18,54,1,70,67672,blockT,180,2022-02-16_15h22.37.840,orientation adjustment block,2021.2.3,Win32,60.44852808,,,,,,,
,,,,,,,,,,,,,,,,,,,,,,-51.66666667,39,20,75,34.33333333,4.666666667,4.666666667,0.199826397,-0.300000006,1,0,0,2.3276,submitButton,8.933333333,0.306307879,-0.280555561,0,0,0,0,19,19,23,1,39,67672,blockT,180,2022-02-16_15h22.37.840,orientation adjustment block,2021.2.3,Win32,60.44852808,,,,,,,
,,,,,,,,,,,,,,,,,,,,,,27.22222222,51,20,75,222.2222222,8.777777778,8.777777778,0.214641212,-0.311111117,1,0,0,0.6994,submitButton,8.907407407,0.315567139,-0.290740803,0,0,0,0,20,20,35,1,51,67672,blockT,180,2022-02-16_15h22.37.840,orientation adjustment block,2021.2.3,Win32,60.44852808,,,,,,,
,,,,,,,,,,,,,,,,,,,,,,53.88888889,-67,20,75,-59.11111111,7.888888889,7.888888889,-0.160358791,-0.412037044,1,0,0,1.3991,submitButton,8.761904762,0.35167825,-0.287037043,0,0,0,0,21,21,51,1,67,67672,blockT,180,2022-02-16_15h22.37.840,orientation adjustment block,2021.2.3,Win32,60.44852808,,,,,,,
,,,,,,,,,,,,,,,,,,,,,,61.11111111,71,20,75,236.1111111,14.88888889,14.88888889,0.233159731,-0.283333339,1,0,0,0.533,submitButton,9.527777778,0.201678249,-0.290740803,0,0,0,0,22,22,55,1,71,67672,blockT,180,2022-02-16_15h22.37.840,orientation adjustment block,2021.2.3,Win32,60.44852808,,,,,,,
,,,,,,,,,,,,,,,,,,,,,,73.88888889,-61,20,75,-54.11111111,6.888888889,6.888888889,0.407233806,-0.287963025,1,0,0,0.7828,submitButton,9.234567901,0.348900472,-0.306481487,0,0,0,0,23,23,45,1,61,67672,blockT,180,2022-02-16_15h22.37.840,orientation adjustment block,2021.2.3,Win32,60.44852808,,,,,,,
,,,,,,,,,,,,,,,,,,,,,,46.11111111,21,20,75,223.1111111,22.11111111,22.11111111,0.219270842,-0.30370371,1,0,0,0.1998,submitButton,10.52222222,0.257233805,-0.355555562,0,0,0,0,24,24,5,1,21,67672,blockT,180,2022-02-16_15h22.37.840,orientation adjustment block,2021.2.3,Win32,60.44852808,,,,,,,
,,,,,,,,,,,,,,,,,,,,,,-66.66666667,50,20,75,30.33333333,19.66666667,19.66666667,0.258159731,-0.325000006,1,0,0,0.7297,submitButton,11.35353535,-0.219618051,-0.405555562,0,0,0,0,25,25,34,1,50,67672,blockT,180,2022-02-16_15h22.37.840,orientation adjustment block,2021.2.3,Win32,60.44852808,,,,,,,
,,,,,,,,,,,,,,,,,,,,,,-52.77777778,18,20,75,40.22222222,22.22222222,22.22222222,0.197974545,-0.287037043,1,0,0,0.6994,submitButton,12.25925926,-0.214062495,-0.411111118,0,0,0,0,26,26,2,1,18,67672,blockT,180,2022-02-16_15h22.37.840,orientation adjustment block,2021.2.3,Win32,60.44852808,,,,,,,
,,,,,,,,,,,,,,,,,,,,,,-62.77777778,60,20,75,73.22222222,13.22222222,13.22222222,0.175752323,-0.316666673,1,0,0,0.9835,submitButton,12.33333333,0.210011582,-0.331481488,0,0,0,0,27,27,44,1,60,67672,blockT,180,2022-02-16_15h22.37.840,orientation adjustment block,2021.2.3,Win32,60.44852808,,,,,,,
,,,,,,,,,,,,,,,,,,,,,,43.33333333,72,20,75,221.3333333,30.66666667,30.66666667,0.200752436,-0.293518581,1,0,0,0.7449,submitButton,13.64285714,0.254456027,-0.291666673,0,0,0,0,28,28,56,1,72,67672,blockT,180,2022-02-16_15h22.37.840,orientation adjustment block,2021.2.3,Win32,60.44852808,,,,,,,
,,,,,,,,,,,,,,,,,,,,,,-26.66666667,-63,20,75,-229.6666667,13.33333333,13.33333333,0.402604176,-0.293518581,1,0,0,0.2668,submitButton,13.62222222,0.353530102,-0.410185248,1,0,0,0,29,29,47,1,63,67672,blockT,180,2022-02-16_15h22.37.840,orientation adjustment block,2021.2.3,Win32,60.44852808,continueButton,,,,,,
,,,,,,,,,,,,,,,,,,,,,,37.22222222,-68,20,75,-17.77777778,50.22222222,50.22222222,0.219270842,-0.289814821,1,0,0,0.0499,submitButton,15.90972222,0.355381954,-0.336111117,0,0,0,0,30,30,52,1,68,67672,blockT,180,2022-02-16_15h22.37.840,orientation adjustment block,2021.2.3,Win32,60.44852808,,,,,,,
,,,,,,,,,,,,,,,,,,,,,,-74.44444444,-62,20,75,-229.4444444,12.55555556,12.55555556,0.430381954,-0.304629692,1,0,0,0.9448,submitButton,15.7124183,0.558159733,-0.258333339,0,0,0,0,31,31,46,1,62,67672,blockT,180,2022-02-16_15h22.37.840,orientation adjustment block,2021.2.3,Win32,60.44852808,,,,,,,
,,,,,,,,,,,,,,,,,,,,,,-61.66666667,58,20,75,85.33333333,27.33333333,27.33333333,0.201678249,-0.281481487,1,0,0,0.999,submitButton,16.35802469,0.426678251,-0.300925932,0,0,0,0,32,32,42,1,58,67672,blockT,180,2022-02-16_15h22.37.840,orientation adjustment block,2021.2.3,Win32,60.44852808,,,,,,,
,,,,,,,,,,,,,,,,,,,,,,-61.11111111,56,20,75,44.88888889,11.11111111,11.11111111,0.189641212,-0.304629692,1,0,0,0.3007,submitButton,16.08187135,0.21278936,-0.315740803,0,0,0,0,33,33,40,1,56,67672,blockT,180,2022-02-16_15h22.37.840,orientation adjustment block,2021.2.3,Win32,60.44852808,,,,,,,
,,,,,,,,,,,,,,,,,,,,,,38.33333333,35,20,75,43.33333333,8.333333333,8.333333333,0.316493065,-0.301851914,1,0,0,0.2489,submitButton,15.69444444,-0.180729161,-0.416666673,0,0,0,0,34,34,19,1,35,67672,blockT,180,2022-02-16_15h22.37.840,orientation adjustment block,2021.2.3,Win32,60.44852808,,,,,,,
,,,,,,,,,,,,,,,,,,,,,,56.11111111,-41,20,75,-52.88888889,11.88888889,11.88888889,0.375752437,-0.310185248,1,0,0,1.0835,submitButton,15.51322751,0.141493063,-0.359259266,0,0,0,0,35,35,25,1,41,67672,blockT,180,2022-02-16_15h22.37.840,orientation adjustment block,2021.2.3,Win32,60.44852808,,,,,,,
,,,,,,,,,,,,,,,,,,,,,,-72.77777778,-46,20,75,-223.7777778,2.222222222,2.222222222,-0.173321697,-0.376851915,1,0,0,2.1823,submitButton,14.90909091,0.274826398,-0.252777783,0,0,0,0,36,36,30,1,46,67672,blockT,180,2022-02-16_15h22.37.840,orientation adjustment block,2021.2.3,Win32,60.44852808,,,,,,,
,,,,,,,,,,,,,,,,,,,,,,69.44444444,55,20,75,235.4444444,0.444444444,0.444444444,-0.127951383,-0.402777785,1,0,0,2.2113,submitButton,14.28019324,0.231307879,-0.284259265,0,0,0,0,37,37,39,1,55,67672,blockT,180,2022-02-16_15h22.37.840,orientation adjustment block,2021.2.3,Win32,60.44852808,,,,,,,
,,,,,,,,,,,,,,,,,,,,,,-33.33333333,-40,20,75,-38.33333333,1.666666667,1.666666667,0.217419103,-0.298148154,1,0,0,0.2324,submitButton,13.75462963,0.248900471,-0.331481488,0,0,0,0,38,38,24,1,40,67672,blockT,180,2022-02-16_15h22.37.840,orientation adjustment block,2021.2.3,Win32,60.44852808,,,,,,,
,,,,,,,,,,,,,,,,,,,,,,-46.11111111,-19,20,75,-33.11111111,14.11111111,14.11111111,-0.140914346,-0.414814822,1,0,0,1.0326,submitButton,13.76888889,0.190567138,-0.271296359,0,0,0,0,39,39,3,1,19,67672,blockT,180,2022-02-16_15h22.37.840,orientation adjustment block,2021.2.3,Win32,60.44852808,,,,,,,
,,,,,,,,,,,,,,,,,,,,,,63.88888889,-48,20,75,-54.11111111,6.111111111,6.111111111,0.391493065,-0.292592598,1,0,0,1.6151,submitButton,13.47435897,-0.161284717,-0.375925932,0,0,0,0,40,40,32,1,48,67672,blockT,180,2022-02-16_15h22.37.840,orientation adjustment block,2021.2.3,Win32,60.44852808,,,,,,,
,,,,,,,,,,,,,,,,,,,,,,67.77777778,-75,20,75,-58.22222222,16.77777778,16.77777778,0.430381954,-0.298148154,1,0,0,0.3013,submitButton,13.59670782,-0.179803235,-0.386111118,0,0,0,0,41,41,59,1,75,67672,blockT,180,2022-02-16_15h22.37.840,orientation adjustment block,2021.2.3,Win32,60.44852808,,,,,,,
,,,,,,,,,,,,,,,,,,,,,,-68.33333333,29,20,75,44.66666667,15.66666667,15.66666667,0.20815973,-0.287963025,1,0,0,1.0173,submitButton,13.67063492,-0.14924768,-0.404629693,0,0,0,0,42,42,13,1,29,67672,blockT,180,2022-02-16_15h22.37.840,orientation adjustment block,2021.2.3,Win32,60.44852808,,,,,,,
,,,,,,,,,,,,,,,,,,,,,,-48.33333333,-28,20,75,40.66666667,68.66666667,68.66666667,0.266493098,-0.343518575,1,0,0,2.0477,submitButton,15.56704981,-0.31313657,-0.40833334,0,0,0,0,43,43,12,1,28,67672,blockT,180,2022-02-16_15h22.37.840,orientation adjustment block,2021.2.3,Win32,60.44852808,,,,,,,
,,,,,,,,,,,,,,,,,,,,,,45.55555556,-32,20,75,-32.44444444,0.444444444,0.444444444,0.403530102,-0.295370376,1,0,0,0.6833,submitButton,15.06296296,0.29704862,-0.409259266,1,0,0,0,44,44,16,1,32,67672,blockT,180,2022-02-16_15h22.37.840,orientation adjustment block,2021.2.3,Win32,60.44852808,continueButton,,,,,,
,,,,,,,,,,,,,,,,,,,,,,61.66666667,-59,20,75,27.66666667,86.66666667,86.66666667,0.150752323,-0.273148154,1,0,0,1.4288,submitButton,17.37275986,-0.241840273,-0.412037044,0,0,0,0,45,45,43,1,59,67672,blockT,180,2022-02-16_15h22.37.840,orientation adjustment block,2021.2.3,Win32,60.44852808,,,,,,,
,,,,,,,,,,,,,,,,,,,,,,-62.22222222,34,20,75,40.77777778,6.777777778,6.777777778,0.198900471,-0.315740803,1,0,0,2.0485,submitButton,17.04166667,0.201678249,-0.325925932,0,0,0,0,46,46,18,1,34,67672,blockT,180,2022-02-16_15h22.37.840,orientation adjustment block,2021.2.3,Win32,60.44852808,,,,,,,
,,,,,,,,,,,,,,,,,,,,,,-49.44444444,31,20,75,25.55555556,5.444444444,5.444444444,0.392419104,-0.288888895,1,0,0,1.0346,submitButton,16.69023569,0.222048619,-0.291666673,0,0,0,0,47,47,15,1,31,67672,blockT,180,2022-02-16_15h22.37.840,orientation adjustment block,2021.2.3,Win32,60.44852808,,,,,,,
,,,,,,,,,,,,,,,,,,,,,,-48.88888889,25,20,75,33.11111111,8.111111111,8.111111111,0.223900471,-0.292592598,1,0,0,0.5492,submitButton,16.4379085,-0.175173606,-0.387963026,0,0,0,0,48,48,9,1,25,67672,blockT,180,2022-02-16_15h22.37.840,orientation adjustment block,2021.2.3,Win32,60.44852808,,,,,,,
,,,,,,,,,,,,,,,,,,,,,,-35.55555556,66,20,75,67.44444444,1.444444444,1.444444444,0.186863434,-0.318518581,1,0,0,0.3159,submitButton,16.00952381,-0.164988364,-0.355555562,0,0,0,0,49,49,50,1,66,67672,blockT,180,2022-02-16_15h22.37.840,orientation adjustment block,2021.2.3,Win32,60.44852808,,,,,,,
,,,,,,,,,,,,,,,,,,,,,,-63.33333333,-30,20,75,-219.3333333,9.333333333,9.333333333,0.395196769,-0.295370376,1,0,0,1.7654,submitButton,15.82407407,-0.157581013,-0.387037044,0,0,0,0,50,50,14,1,30,67672,blockT,180,2022-02-16_15h22.37.840,orientation adjustment block,2021.2.3,Win32,60.44852808,,,,,,,
,,,,,,,,,,,,,,,,,,,,,,-57.77777778,69,20,75,72.22222222,3.222222222,3.222222222,0.21278936,-0.301851914,1,0,0,0.433,submitButton,15.48348348,-0.25850694,-0.415740804,0,0,0,0,51,51,53,1,69,67672,blockT,180,2022-02-16_15h22.37.840,orientation adjustment block,2021.2.3,Win32,60.44852808,,,,,,,
,,,,,,,,,,,,,,,,,,,,,,-47.22222222,53,20,75,49.77777778,3.222222222,3.222222222,0.148900471,-0.319444451,1,0,0,0.5607,submitButton,15.16081871,-0.281655032,-0.351851915,0,0,0,0,52,52,37,1,53,67672,blockT,180,2022-02-16_15h22.37.840,orientation adjustment block,2021.2.3,Win32,60.44852808,,,,,,,
,,,,,,,,,,,,,,,,,,,,,,-22.22222222,-44,20,75,-46.22222222,2.222222222,2.222222222,0.232233805,-0.310185248,1,0,0,0.0988,submitButton,14.82905983,-0.162210586,-0.416666673,0,0,0,0,53,53,28,1,44,67672,blockT,180,2022-02-16_15h22.37.840,orientation adjustment block,2021.2.3,Win32,60.44852808,,,,,,,
,,,,,,,,,,,,,,,,,,,,,,-36.11111111,37,20,75,9.888888889,27.11111111,27.11111111,0.224826397,-0.308333339,1,0,0,1.3655,submitButton,15.13611111,-0.201099532,-0.400925933,0,0,0,0,54,54,21,1,37,67672,blockT,180,2022-02-16_15h22.37.840,orientation adjustment block,2021.2.3,Win32,60.44852808,,,,,,,
,,,,,,,,,,,,,,,,,,,,,,30,-24,20,75,-34,10,10,0.433159732,-0.297222228,1,0,0,8.1269,submitButton,15.01084011,0.311863435,-0.359259266,0,0,0,0,55,55,8,1,24,67672,blockT,180,2022-02-16_15h22.37.840,orientation adjustment block,2021.2.3,Win32,60.44852808,,,,,,,
,,,,,,,,,,,,,,,,,,,,,,66.66666667,57,20,75,235.6666667,1.333333333,1.333333333,0.215567138,-0.293518581,1,0,0,0.3664,submitButton,14.68518519,0.190567138,-0.324074137,0,0,0,0,56,56,41,1,57,67672,blockT,180,2022-02-16_15h22.37.840,orientation adjustment block,2021.2.3,Win32,60.44852808,,,,,,,
,,,,,,,,,,,,,,,,,,,,,,45.55555556,17,20,75,39.55555556,22.55555556,22.55555556,0.397048621,-0.29444445,1,0,0,0.1139,submitButton,14.86821705,0.252604175,-0.296296359,0,0,0,0,57,57,1,1,17,67672,blockT,180,2022-02-16_15h22.37.840,orientation adjustment block,2021.2.3,Win32,60.44852808,,,,,,,
,,,,,,,,,,,,,,,,,,,,,,43.33333333,27,20,75,27.33333333,0.333333333,0.333333333,0.392419104,-0.315740803,1,0,0,0.5833,submitButton,14.53787879,0.172048619,-0.310185248,0,0,0,0,58,58,11,1,27,67672,blockT,180,2022-02-16_15h22.37.840,orientation adjustment block,2021.2.3,Win32,60.44852808,,,,,,,
,,,,,,,,,,,,,,,,,,,,,,41.11111111,-36,20,75,-42.88888889,6.888888889,6.888888889,0.407233806,-0.300000006,1,0,0,0.916,submitButton,14.36790123,0.534085772,-0.401851915,1,0,0,0,59,59,20,1,36,67672,blockT,180,2022-02-16_15h22.37.840,orientation adjustment block,2021.2.3,Win32,60.44852808,continueButton,,,,,,
,,,,,,,,,,,,,,,,,,,,,,-60,54,20,75,53,1,1,-0.139988364,-0.396296359,1,0,0,0.833,submitButton,14.07729469,0.285937509,-0.30740747,0,0,0,1,0,60,38,1,54,67672,blockT,180,2022-02-16_15h22.37.840,orientation adjustment block,2021.2.3,Win32,60.44852808,,,,,,,
,,,,,,,,,,,,,,,,,,,,,,-28.88888889,59,20,75,61.11111111,2.111111111,2.111111111,0.192419103,-0.293518581,1,0,0,0.4493,submitButton,13.82269504,0.257233805,-0.327777784,0,0,0,1,1,61,43,1,59,67672,blockT,180,2022-02-16_15h22.37.840,orientation adjustment block,2021.2.3,Win32,60.44852808,,,,,,,
,,,,,,,,,,,,,,,,,,,,,,22.77777778,51,20,75,239.7777778,8.777777778,8.777777778,-0.226099532,-0.404629693,1,0,0,2.6317,submitButton,13.71759259,0.135937508,-0.380555562,0,0,0,1,2,62,35,1,51,67672,blockT,180,2022-02-16_15h22.37.840,orientation adjustment block,2021.2.3,Win32,60.44852808,,,,,,,
,,,,,,,,,,,,,,,,,,,,,,-71.11111111,-17,20,75,-37.11111111,20.11111111,20.11111111,0.226678249,-0.291666673,1,0,0,0.4496,submitButton,13.84807256,0.119270841,-0.286111117,0,0,0,1,3,63,1,1,17,67672,blockT,180,2022-02-16_15h22.37.840,orientation adjustment block,2021.2.3,Win32,60.44852808,,,,,,,
,,,,,,,,,,,,,,,,,,,,,,41.66666667,25,20,75,36.66666667,11.66666667,11.66666667,0.379456028,-0.291666673,1,0,0,0.8495,submitButton,13.80444444,0.295196768,-0.228703709,0,0,0,1,4,64,9,1,25,67672,blockT,180,2022-02-16_15h22.37.840,orientation adjustment block,2021.2.3,Win32,60.44852808,,,,,,,
,,,,,,,,,,,,,,,,,,,,,,-44.44444444,57,20,75,45.55555556,11.44444444,11.44444444,0.222048619,-0.295370376,1,0,0,0.2836,submitButton,13.75816993,0.152604174,-0.314814821,0,0,0,1,5,65,41,1,57,67672,blockT,180,2022-02-16_15h22.37.840,orientation adjustment block,2021.2.3,Win32,60.44852808,,,,,,,
,,,,,,,,,,,,,,,,,,,,,,26.66666667,-44,20,75,-37.33333333,6.666666667,6.666666667,-0.335358792,-0.400000007,1,0,0,0.6499,submitButton,13.62179487,-0.280729162,-0.395370377,0,0,0,1,6,66,28,1,44,67672,blockT,180,2022-02-16_15h22.37.840,orientation adjustment block,2021.2.3,Win32,60.44852808,,,,,,,
,,,,,,,,,,,,,,,,,,,,,,42.77777778,31,20,75,30.77777778,0.222222222,0.222222222,0.408159732,-0.276851914,1,0,0,0.4494,submitButton,13.36897275,0.23778936,-0.326851915,0,0,0,1,7,67,15,1,31,67672,blockT,180,2022-02-16_15h22.37.840,orientation adjustment block,2021.2.3,Win32,60.44852808,,,,,,,
,,,,,,,,,,,,,,,,,,,,,,47.77777778,58,20,75,224.7777778,13.22222222,13.22222222,0.241493064,-0.300925932,1,0,0,0.2491,submitButton,13.36625514,0.266493064,-0.305555562,0,0,0,1,8,68,42,1,58,67672,blockT,180,2022-02-16_15h22.37.840,orientation adjustment block,2021.2.3,Win32,60.44852808,,,,,,,
,,,,,,,,,,,,,,,,,,,,,,50,63,20,75,246,3,3,0.182233804,-0.29444445,1,0,0,2.165,submitButton,13.17777778,-0.187210643,-0.392592599,0,0,0,1,9,69,47,1,63,67672,blockT,180,2022-02-16_15h22.37.840,orientation adjustment block,2021.2.3,Win32,60.44852808,,,,,,,
,,,,,,,,,,,,,,,,,,,,,,60.55555556,73,20,75,250.5555556,2.444444444,2.444444444,0.210937508,-0.296296359,1,0,0,1.6155,submitButton,12.98611111,0.320196768,-0.317592599,0,0,0,1,10,70,57,1,73,67672,blockT,180,2022-02-16_15h22.37.840,orientation adjustment block,2021.2.3,Win32,60.44852808,,,,,,,
,,,,,,,,,,,,,,,,,,,,,,34.44444444,30,20,75,31.44444444,1.444444444,1.444444444,0.377604176,-0.326851915,1,0,0,0.6826,submitButton,12.78362573,0.20815973,-0.337963026,0,0,0,1,11,71,14,1,30,67672,blockT,180,2022-02-16_15h22.37.840,orientation adjustment block,2021.2.3,Win32,60.44852808,,,,,,,
,,,,,,,,,,,,,,,,,,,,,,-59.44444444,60,20,75,65.55555556,5.555555556,5.555555556,0.215567138,-0.311111117,1,0,0,0.8825,submitButton,12.65900383,0.238715286,-0.348148154,0,0,0,1,12,72,44,1,60,67672,blockT,180,2022-02-16_15h22.37.840,orientation adjustment block,2021.2.3,Win32,60.44852808,,,,,,,
,,,,,,,,,,,,,,,,,,,,,,40.55555556,-22,20,75,-47.44444444,25.44444444,25.44444444,0.410011584,-0.305555562,1,0,0,0.6159,submitButton,12.87570621,0.188715286,-0.267592598,0,0,0,1,13,73,6,1,22,67672,blockT,180,2022-02-16_15h22.37.840,orientation adjustment block,2021.2.3,Win32,60.44852808,,,,,,,
,,,,,,,,,,,,,,,,,,,,,,29.44444444,16,20,75,27.44444444,11.44444444,11.44444444,0.358159732,-0.305555562,1,0,0,0.1155,submitButton,12.85185185,0.29704862,-0.401851915,1,0,0,1,14,74,0,1,16,67672,blockT,180,2022-02-16_15h22.37.840,orientation adjustment block,2021.2.3,Win32,60.44852808,continueButton,,,,,,
,,,,,,,,,,,,,,,,,,,,,,35,47,20,75,42,5,5,0.371122695,-0.30370371,1,0,0,1.5321,submitButton,12.72313297,0.296122694,-0.289814821,0,0,0,1,15,75,31,1,47,67672,blockT,180,2022-02-16_15h22.37.840,orientation adjustment block,2021.2.3,Win32,60.44852808,,,,,,,
,,,,,,,,,,,,,,,,,,,,,,25,38,20,75,45,7,7,-0.297395829,-0.396296359,1,0,0,0.766,submitButton,12.63082437,0.155381952,-0.299074137,0,0,0,1,16,76,22,1,38,67672,blockT,180,2022-02-16_15h22.37.840,orientation adjustment block,2021.2.3,Win32,60.44852808,,,,,,,
,,,,,,,,,,,,,,,,,,,,,,-53.88888889,-27,20,75,-37.88888889,10.88888889,10.88888889,0.232233805,-0.27870371,1,0,0,0.116,submitButton,12.6031746,-0.118692124,-0.362963026,0,0,0,1,17,77,11,1,27,67672,blockT,180,2022-02-16_15h22.37.840,orientation adjustment block,2021.2.3,Win32,60.44852808,,,,,,,
,,,,,,,,,,,,,,,,,,,,,,71.11111111,-75,20,75,-73.88888889,1.111111111,1.111111111,0.396122695,-0.290740803,1,0,0,1.2155,submitButton,12.42361111,0.216493064,-0.292592598,0,0,0,1,18,78,59,1,75,67672,blockT,180,2022-02-16_15h22.37.840,orientation adjustment block,2021.2.3,Win32,60.44852808,,,,,,,
,,,,,,,,,,,,,,,,,,,,,,-57.22222222,-50,20,75,-48.22222222,1.777777778,1.777777778,0.18315973,-0.295370376,1,0,0,0.3979,submitButton,12.25982906,0.260937509,-0.337963026,0,0,0,1,19,79,34,1,50,67672,blockT,180,2022-02-16_15h22.37.840,orientation adjustment block,2021.2.3,Win32,60.44852808,,,,,,,
,,,,,,,,,,,,,,,,,,,,,,34.44444444,46,20,75,50.44444444,4.444444444,4.444444444,0.396122695,-0.314814821,1,0,0,0.1766,submitButton,12.14141414,0.088715285,-0.309259265,0,0,0,1,20,80,30,1,46,67672,blockT,180,2022-02-16_15h22.37.840,orientation adjustment block,2021.2.3,Win32,60.44852808,,,,,,,
,,,,,,,,,,,,,,,,,,,,,,23.33333333,-21,20,75,-54.66666667,33.66666667,33.66666667,0.390567139,-0.300000006,1,0,0,0.7176,submitButton,12.46268657,0.223900471,-0.321296359,0,0,0,1,21,81,5,1,21,67672,blockT,180,2022-02-16_15h22.37.840,orientation adjustment block,2021.2.3,Win32,60.44852808,,,,,,,
,,,,,,,,,,,,,,,,,,,,,,59.44444444,-35,20,75,-48.55555556,13.55555556,13.55555556,0.409085771,-0.29444445,1,0,0,0.9828,submitButton,12.47875817,0.332233805,-0.334259265,0,0,0,1,22,82,19,1,35,67672,blockT,180,2022-02-16_15h22.37.840,orientation adjustment block,2021.2.3,Win32,60.44852808,,,,,,,
,,,,,,,,,,,,,,,,,,,,,,52.22222222,19,20,75,29.22222222,10.22222222,10.22222222,0.432233806,-0.308333339,1,0,0,0.217,submitButton,12.44605475,0.227604175,-0.296296359,0,0,0,1,23,83,3,1,19,67672,blockT,180,2022-02-16_15h22.37.840,orientation adjustment block,2021.2.3,Win32,60.44852808,,,,,,,
,,,,,,,,,,,,,,,,,,,,,,27.22222222,72,20,75,242.2222222,9.777777778,9.777777778,0.219270842,-0.297222228,1,0,0,1.8985,submitButton,12.40793651,0.007233859,-0.343518581,0,0,0,1,24,84,56,1,72,67672,blockT,180,2022-02-16_15h22.37.840,orientation adjustment block,2021.2.3,Win32,60.44852808,,,,,,,
,,,,,,,,,,,,,,,,,,,,,,-46.11111111,-26,20,75,-39.11111111,13.11111111,13.11111111,0.197048619,-0.27870371,1,0,0,1.1826,submitButton,12.41784038,0.413715287,-0.275925932,0,0,0,1,25,85,10,1,26,67672,blockT,180,2022-02-16_15h22.37.840,orientation adjustment block,2021.2.3,Win32,60.44852808,,,,,,,
,,,,,,,,,,,,,,,,,,,,,,-26.11111111,42,20,75,37.88888889,4.111111111,4.111111111,0.230381953,-0.296296359,1,0,0,0.1148,submitButton,12.30246914,0.280381953,-0.260185247,0,0,0,1,26,86,26,1,42,67672,blockT,180,2022-02-16_15h22.37.840,orientation adjustment block,2021.2.3,Win32,60.44852808,,,,,,,
,,,,,,,,,,,,,,,,,,,,,,-25.55555556,-43,20,75,-37.55555556,5.444444444,5.444444444,0.222048619,-0.304629692,1,0,0,0.5,submitButton,12.20852359,0.396122695,-0.359259266,0,0,0,1,27,87,27,1,43,67672,blockT,180,2022-02-16_15h22.37.840,orientation adjustment block,2021.2.3,Win32,60.44852808,,,,,,,
,,,,,,,,,,,,,,,,,,,,,,57.77777778,49,20,75,236.7777778,7.777777778,7.777777778,0.214641212,-0.291666673,1,0,0,1.7651,submitButton,12.14864865,0.034085655,-0.38333334,0,0,0,1,28,88,33,1,49,67672,blockT,180,2022-02-16_15h22.37.840,orientation adjustment block,2021.2.3,Win32,60.44852808,,,,,,,
,,,,,,,,,,,,,,,,,,,,,,-66.11111111,32,20,75,40.88888889,8.888888889,8.888888889,0.226678249,-0.285185248,1,0,0,0.9127,submitButton,12.10518519,0.348900472,-0.412037044,1,0,0,1,29,89,16,1,32,67672,blockT,180,2022-02-16_15h22.37.840,orientation adjustment block,2021.2.3,Win32,60.44852808,continueButton,,,,,,
,,,,,,,,,,,,,,,,,,,,,,51.66666667,-62,20,75,-67.33333333,5.333333333,5.333333333,0.425752438,-0.297222228,1,0,0,1.1343,submitButton,12.01608187,0.348900472,-0.33240747,0,0,0,1,30,90,46,1,62,67672,blockT,180,2022-02-16_15h22.37.840,orientation adjustment block,2021.2.3,Win32,60.44852808,,,,,,,
,,,,,,,,,,,,,,,,,,,,,,58.88888889,-64,20,75,-63.11111111,0.888888889,0.888888889,0.416493065,-0.284259265,1,0,0,1.1328,submitButton,11.87157287,0.296122694,-0.325925932,0,0,0,1,31,91,48,1,64,67672,blockT,180,2022-02-16_15h22.37.840,orientation adjustment block,2021.2.3,Win32,60.44852808,,,,,,,
,,,,,,,,,,,,,,,,,,,,,,-64.44444444,-61,20,75,-239.4444444,1.555555556,1.555555556,0.367419104,-0.310185248,1,0,0,1.7656,submitButton,11.73931624,0.306307879,-0.314814821,0,0,0,1,32,92,45,1,61,67672,blockT,180,2022-02-16_15h22.37.840,orientation adjustment block,2021.2.3,Win32,60.44852808,,,,,,,
,,,,,,,,,,,,,,,,,,,,,,66.66666667,67,20,75,257.6666667,10.66666667,10.66666667,0.201678249,-0.304629692,1,0,0,1.449,submitButton,11.7257384,0.266493064,-0.250925932,0,0,0,1,33,93,51,1,67,67672,blockT,180,2022-02-16_15h22.37.840,orientation adjustment block,2021.2.3,Win32,60.44852808,,,,,,,
,,,,,,,,,,,,,,,,,,,,,,38.88888889,70,20,75,251.8888889,1.888888889,1.888888889,0.252604175,-0.283333339,1,0,0,2.099,submitButton,11.60277778,0.210937508,-0.334259265,0,0,0,1,34,94,54,1,70,67672,blockT,180,2022-02-16_15h22.37.840,orientation adjustment block,2021.2.3,Win32,60.44852808,,,,,,,
,,,,,,,,,,,,,,,,,,,,,,-36.66666667,-69,20,75,-250.6666667,1.666666667,1.666666667,0.385937509,-0.279629692,1,0,0,2.7647,submitButton,11.48010974,0.135937508,-0.341666673,0,0,0,1,35,95,53,1,69,67672,blockT,180,2022-02-16_15h22.37.840,orientation adjustment block,2021.2.3,Win32,60.44852808,,,,,,,
,,,,,,,,,,,,,,,,,,,,,,-50,74,20,75,66,8,8,0.222974545,-0.309259265,1,0,0,0.2638,submitButton,11.43766938,0.276678249,-0.301851914,0,0,0,1,36,96,58,1,74,67672,blockT,180,2022-02-16_15h22.37.840,orientation adjustment block,2021.2.3,Win32,60.44852808,,,,,,,
,,,,,,,,,,,,,,,,,,,,,,20,66,20,75,245,1,1,0.251678249,-0.300925932,1,0,0,2.2957,submitButton,11.31191432,-0.139988364,-0.400000007,0,0,0,1,37,97,50,1,66,67672,blockT,180,2022-02-16_15h22.37.840,orientation adjustment block,2021.2.3,Win32,60.44852808,,,,,,,
,,,,,,,,,,,,,,,,,,,,,,-28.88888889,-45,20,75,-45.88888889,0.888888889,0.888888889,0.172974545,-0.293518581,1,0,0,0.0821,submitButton,11.18783069,0.233159731,-0.306481487,0,0,0,1,38,98,29,1,45,67672,blockT,180,2022-02-16_15h22.37.840,orientation adjustment block,2021.2.3,Win32,60.44852808,,,,,,,
,,,,,,,,,,,,,,,,,,,,,,32.22222222,37,20,75,48.22222222,11.22222222,11.22222222,0.360937509,-0.298148154,1,0,0,0.295,submitButton,11.18823529,-0.17887731,-0.395370377,0,0,0,1,39,99,21,1,37,67672,blockT,180,2022-02-16_15h22.37.840,orientation adjustment block,2021.2.3,Win32,60.44852808,,,,,,,
,,,,,,,,,,,,,,,,,,,,,,-33.88888889,39,20,75,48.11111111,9.111111111,9.111111111,0.214641212,-0.299074137,1,0,0,0.249,submitButton,11.16408269,-0.19461805,-0.397222229,0,0,0,1,40,100,23,1,39,67672,blockT,180,2022-02-16_15h22.37.840,orientation adjustment block,2021.2.3,Win32,60.44852808,,,,,,,
,,,,,,,,,,,,,,,,,,,,,,73.33333333,40,20,75,234.3333333,14.33333333,14.33333333,0.202604175,-0.288888895,1,0,0,0.4171,submitButton,11.20051086,-0.257581014,-0.410185248,0,0,0,1,41,101,24,1,40,67672,blockT,180,2022-02-16_15h22.37.840,orientation adjustment block,2021.2.3,Win32,60.44852808,,,,,,,
,,,,,,,,,,,,,,,,,,,,,,45,-36,20,75,-45,9,9,0.369270843,-0.291666673,1,0,0,0.0135,submitButton,11.17550505,-0.213136569,-0.396296359,0,0,0,1,42,102,20,1,36,67672,blockT,180,2022-02-16_15h22.37.840,orientation adjustment block,2021.2.3,Win32,60.44852808,,,,,,,
,,,,,,,,,,,,,,,,,,,,,,41.11111111,-55,20,75,-44.88888889,10.11111111,10.11111111,0.298900472,-0.30740747,1,0,0,1.2318,submitButton,11.16354557,-0.17424768,-0.404629693,0,0,0,1,43,103,39,1,55,67672,blockT,180,2022-02-16_15h22.37.840,orientation adjustment block,2021.2.3,Win32,60.44852808,,,,,,,
,,,,,,,,,,,,,,,,,,,,,,-67.22222222,-65,20,75,-238.2222222,6.777777778,6.777777778,0.368344917,-0.29444445,1,0,0,1.9496,submitButton,11.11481481,0.385937509,-0.381481488,1,0,0,1,44,104,49,1,65,67672,blockT,180,2022-02-16_15h22.37.840,orientation adjustment block,2021.2.3,Win32,60.44852808,continueButton,,,,,,
,,,,,,,,,,,,,,,,,,,,,,34.44444444,-53,20,75,-33.55555556,19.44444444,19.44444444,0.420196769,-0.308333339,1,0,0,0.0336,submitButton,11.20634921,-0.207581013,-0.393518582,0,0,0,1,45,105,37,1,53,67672,blockT,180,2022-02-16_15h22.37.840,orientation adjustment block,2021.2.3,Win32,60.44852808,,,,,,,
,,,,,,,,,,,,,,,,,,,,,,-31.66666667,-68,20,75,-48.66666667,19.33333333,19.33333333,0.222048619,-0.30370371,1,0,0,0.1833,submitButton,11.29468599,-0.020543918,-0.351851915,0,0,0,1,46,106,52,1,68,67672,blockT,180,2022-02-16_15h22.37.840,orientation adjustment block,2021.2.3,Win32,60.44852808,,,,,,,
,,,,,,,,,,,,,,,,,,,,,,70,48,20,75,234,6,6,0.21278936,-0.30370371,1,0,0,1.3325,submitButton,11.23775388,-0.235358791,-0.399074137,0,0,0,1,47,107,32,1,48,67672,blockT,180,2022-02-16_15h22.37.840,orientation adjustment block,2021.2.3,Win32,60.44852808,,,,,,,
,,,,,,,,,,,,,,,,,,,,,,27.22222222,23,20,75,25.22222222,2.222222222,2.222222222,0.371122695,-0.270370376,1,0,0,0.1994,submitButton,11.14184397,-0.133506939,-0.425925933,0,0,0,1,48,108,7,1,23,67672,blockT,180,2022-02-16_15h22.37.840,orientation adjustment block,2021.2.3,Win32,60.44852808,,,,,,,
,,,,,,,,,,,,,,,,,,,,,,56.66666667,-71,20,75,-69.33333333,1.666666667,1.666666667,0.400752437,-0.312037043,1,0,0,0.4995,submitButton,11.04210526,-0.226099532,-0.401851915,0,0,0,1,49,109,55,1,71,67672,blockT,180,2022-02-16_15h22.37.840,orientation adjustment block,2021.2.3,Win32,60.44852808,,,,,,,
,,,,,,,,,,,,,,,,,,,,,,74.44444444,-41,20,75,-58.55555556,17.55555556,17.55555556,0.373900472,-0.28240747,1,0,0,0.1835,submitButton,11.1099537,-0.218692125,-0.418518582,0,0,0,1,50,110,25,1,41,67672,blockT,180,2022-02-16_15h22.37.840,orientation adjustment block,2021.2.3,Win32,60.44852808,,,,,,,
,,,,,,,,,,,,,,,,,,,,,,52.77777778,-28,20,75,-42.22222222,14.22222222,14.22222222,0.37667825,-0.298148154,1,0,0,0.7662,submitButton,11.14203895,-0.310358792,-0.420370377,0,0,0,1,51,111,12,1,28,67672,blockT,180,2022-02-16_15h22.37.840,orientation adjustment block,2021.2.3,Win32,60.44852808,,,,,,,
,,,,,,,,,,,,,,,,,,,,,,51.11111111,52,20,75,242.1111111,10.11111111,10.11111111,0.190567138,-0.296296359,1,0,0,1.7159,submitButton,11.13151927,0.366493065,-0.314814821,0,0,0,1,52,112,36,1,52,67672,blockT,180,2022-02-16_15h22.37.840,orientation adjustment block,2021.2.3,Win32,60.44852808,,,,,,,
,,,,,,,,,,,,,,,,,,,,,,-37.77777778,56,20,75,62.22222222,6.222222222,6.222222222,0.215567138,-0.293518581,1,0,0,0.083,submitButton,11.08193042,0.215567138,-0.359259266,0,0,0,1,53,113,40,1,56,67672,blockT,180,2022-02-16_15h22.37.840,orientation adjustment block,2021.2.3,Win32,60.44852808,,,,,,,
,,,,,,,,,,,,,,,,,,,,,,20.55555556,-34,20,75,-31.44444444,2.555555556,2.555555556,-0.175173606,-0.396296359,1,0,0,0.6159,submitButton,10.99666667,0.257233805,-0.317592599,0,0,0,1,54,114,18,1,34,67672,blockT,180,2022-02-16_15h22.37.840,orientation adjustment block,2021.2.3,Win32,60.44852808,,,,,,,
,,,,,,,,,,,,,,,,,,,,,,-30.55555556,-20,20,75,-27.55555556,7.555555556,7.555555556,-0.264062495,-0.385185248,1,0,0,0.733,submitButton,10.96259626,0.258159731,-0.314814821,0,0,0,1,55,115,4,1,20,67672,blockT,180,2022-02-16_15h22.37.840,orientation adjustment block,2021.2.3,Win32,60.44852808,,,,,,,
,,,,,,,,,,,,,,,,,,,,,,69.44444444,-18,20,75,-30.55555556,12.55555556,12.55555556,0.355381954,-0.274074136,1,0,0,1.3991,submitButton,10.97821351,0.325752437,-0.25740747,0,0,0,1,56,116,2,1,18,67672,blockT,180,2022-02-16_15h22.37.840,orientation adjustment block,2021.2.3,Win32,60.44852808,,,,,,,
,,,,,,,,,,,,,,,,,,,,,,-47.77777778,-33,20,75,-22.77777778,10.22222222,10.22222222,0.252604175,-0.308333339,1,0,0,0.2333,submitButton,10.97087379,0.313715287,-0.343518581,0,0,0,1,57,117,17,1,33,67672,blockT,180,2022-02-16_15h22.37.840,orientation adjustment block,2021.2.3,Win32,60.44852808,,,,,,,
,,,,,,,,,,,,,,,,,,,,,,-52.77777778,29,20,75,38.22222222,9.222222222,9.222222222,0.200752436,-0.301851914,1,0,0,1.2496,submitButton,10.95405983,0.328530102,-0.274074136,0,0,0,1,58,118,13,1,29,67672,blockT,180,2022-02-16_15h22.37.840,orientation adjustment block,2021.2.3,Win32,60.44852808,,,,,,,
,,,,,,,,,,,,,,,,,,,,,,-59.44444444,-24,20,75,-21.44444444,2.555555556,2.555555556,0.224826397,-0.313888895,1,0,0,0.1342,submitButton,10.87407407,0.33408577,-0.399074137,1,0,0,1,59,119,8,1,24,67672,blockT,180,2022-02-16_15h22.37.840,orientation adjustment block,2021.2.3,Win32,60.44852808,continueButton,,,,,,
,,,,,,,,,,,,,,,,,,,,,,45,21,20,75,12,9,9,0.402604176,-0.309259265,1,0,0,0.3862,submitButton,10.85639413,0.099826396,-0.320370376,0,0,0,2,0,120,5,1,21,67672,blockT,180,2022-02-16_15h22.37.840,orientation adjustment block,2021.2.3,Win32,60.44852808,,,,,,,
,,,,,,,,,,,,,,,,,,,,,,-42.22222222,72,20,75,66.77777778,5.222222222,5.222222222,0.213715286,-0.311111117,1,0,0,0.3164,submitButton,10.80373832,-0.242766199,-0.385185248,0,0,0,2,1,121,56,1,72,67672,blockT,180,2022-02-16_15h22.37.840,orientation adjustment block,2021.2.3,Win32,60.44852808,,,,,,,
,,,,,,,,,,,,,,,,,,,,,,56.66666667,59,20,75,245.6666667,6.666666667,6.666666667,0.217419103,-0.312963026,1,0,0,2.165,submitButton,10.7654321,0.433159732,-0.329629692,0,0,0,2,2,122,43,1,59,67672,blockT,180,2022-02-16_15h22.37.840,orientation adjustment block,2021.2.3,Win32,60.44852808,,,,,,,
,,,,,,,,,,,,,,,,,,,,,,-57.22222222,-75,20,75,-244.2222222,10.77777778,10.77777778,0.412789362,-0.297222228,1,0,0,1.4489,submitButton,10.76554536,-0.209432865,-0.416666673,0,0,0,2,3,123,59,1,75,67672,blockT,180,2022-02-16_15h22.37.840,orientation adjustment block,2021.2.3,Win32,60.44852808,,,,,,,
,,,,,,,,,,,,,,,,,,,,,,33.88888889,-23,20,75,-47.11111111,24.11111111,24.11111111,0.361863435,-0.298148154,1,0,0,0.8995,submitButton,10.88686869,-0.260358792,-0.416666673,0,0,0,2,4,124,7,1,23,67672,blockT,180,2022-02-16_15h22.37.840,orientation adjustment block,2021.2.3,Win32,60.44852808,,,,,,,
,,,,,,,,,,,,,,,,,,,,,,67.22222222,47,20,75,239.2222222,12.22222222,12.22222222,0.205381953,-0.325000006,1,0,0,1.7814,submitButton,10.8988989,0.296122694,-0.222222228,0,0,0,2,5,125,31,1,47,67672,blockT,180,2022-02-16_15h22.37.840,orientation adjustment block,2021.2.3,Win32,60.44852808,,,,,,,
,,,,,,,,,,,,,,,,,,,,,,70.55555556,-63,20,75,-58.44444444,4.555555556,4.555555556,0.409085771,-0.293518581,1,0,0,0.8327,submitButton,10.8422619,0.335937509,-0.342592599,0,0,0,2,6,126,47,1,63,67672,blockT,180,2022-02-16_15h22.37.840,orientation adjustment block,2021.2.3,Win32,60.44852808,,,,,,,
,,,,,,,,,,,,,,,,,,,,,,21.66666667,-54,20,75,-45.33333333,8.666666667,8.666666667,0.372048621,-0.32870371,1,0,0,0.0982,submitButton,10.82300885,0.210937508,-0.325000006,0,0,0,2,7,127,38,1,54,67672,blockT,180,2022-02-16_15h22.37.840,orientation adjustment block,2021.2.3,Win32,60.44852808,,,,,,,
,,,,,,,,,,,,,,,,,,,,,,-47.77777778,56,20,75,54.22222222,1.777777778,1.777777778,0.210937508,-0.293518581,1,0,0,0.2498,submitButton,10.74366472,0.246122694,-0.298148154,0,0,0,2,8,128,40,1,56,67672,blockT,180,2022-02-16_15h22.37.840,orientation adjustment block,2021.2.3,Win32,60.44852808,,,,,,,
,,,,,,,,,,,,,,,,,,,,,,-20,-18,20,75,-18,0,0,-0.266840273,-0.43333334,1,0,0,1.4323,submitButton,10.65024155,0.09890047,-0.275925932,0,0,0,2,9,129,2,1,18,67672,blockT,180,2022-02-16_15h22.37.840,orientation adjustment block,2021.2.3,Win32,60.44852808,,,,,,,
,,,,,,,,,,,,,,,,,,,,,,-61.11111111,53,20,75,60.88888889,7.888888889,7.888888889,0.192419103,-0.289814821,1,0,0,0.7829,submitButton,10.62643678,0.105381952,-0.322222228,0,0,0,2,10,130,37,1,53,67672,blockT,180,2022-02-16_15h22.37.840,orientation adjustment block,2021.2.3,Win32,60.44852808,,,,,,,
,,,,,,,,,,,,,,,,,,,,,,34.44444444,-28,20,75,-46.55555556,18.55555556,18.55555556,0.409085771,-0.288888895,1,0,0,0.5832,submitButton,10.69420703,0.230381953,-0.311111117,0,0,0,2,11,131,12,1,28,67672,blockT,180,2022-02-16_15h22.37.840,orientation adjustment block,2021.2.3,Win32,60.44852808,,,,,,,
,,,,,,,,,,,,,,,,,,,,,,68.33333333,-27,20,75,-39.66666667,12.66666667,12.66666667,-0.23350694,-0.390740804,1,0,0,1.698,submitButton,10.71092279,0.404456028,-0.274074136,0,0,0,2,12,132,11,1,27,67672,blockT,180,2022-02-16_15h22.37.840,orientation adjustment block,2021.2.3,Win32,60.44852808,,,,,,,
,,,,,,,,,,,,,,,,,,,,,,-23.88888889,62,20,75,73.11111111,11.11111111,11.11111111,-0.219618051,-0.391666673,1,0,0,0.6993,submitButton,10.71428571,0.324826398,-0.326851915,0,0,0,2,13,133,46,1,62,67672,blockT,180,2022-02-16_15h22.37.840,orientation adjustment block,2021.2.3,Win32,60.44852808,,,,,,,
,,,,,,,,,,,,,,,,,,,,,,-74.44444444,39,20,75,54.55555556,15.55555556,15.55555556,0.214641212,-0.292592598,1,0,0,0.8328,submitButton,10.75462963,0.38130788,-0.399074137,1,0,0,2,14,134,23,1,39,67672,blockT,180,2022-02-16_15h22.37.840,orientation adjustment block,2021.2.3,Win32,60.44852808,continueButton,,,,,,
,,,,,,,,,,,,,,,,,,,,,,26.11111111,-70,20,75,68.11111111,41.88888889,41.88888889,0.218344916,-0.312037043,1,0,0,1.4994,submitButton,11.01193756,-0.262210643,-0.417592599,0,0,0,2,15,135,54,1,70,67672,blockT,180,2022-02-16_15h22.37.840,orientation adjustment block,2021.2.3,Win32,60.44852808,,,,,,,
,,,,,,,,,,,,,,,,,,,,,,-66.66666667,29,20,75,44.33333333,15.33333333,15.33333333,-0.221469902,-0.405555562,1,0,0,1.6658,submitButton,11.04735883,0.293344916,-0.231481487,0,0,0,2,16,136,13,1,29,67672,blockT,180,2022-02-16_15h22.37.840,orientation adjustment block,2021.2.3,Win32,60.44852808,,,,,,,
,,,,,,,,,,,,,,,,,,,,,,-26.11111111,65,20,75,52.88888889,12.11111111,12.11111111,0.459085771,-0.313888895,1,0,0,0.0995,submitButton,11.05600723,0.079456026,-0.323148154,0,0,0,2,17,137,49,1,65,67672,blockT,180,2022-02-16_15h22.37.840,orientation adjustment block,2021.2.3,Win32,60.44852808,,,,,,,
,,,,,,,,,,,,,,,,,,,,,,-74.44444444,34,20,75,45.55555556,11.55555556,11.55555556,0.426678251,-0.312963026,1,0,0,1.5335,submitButton,11.06003584,0.229456027,-0.356481488,0,0,0,2,18,138,18,1,34,67672,blockT,180,2022-02-16_15h22.37.840,orientation adjustment block,2021.2.3,Win32,60.44852808,,,,,,,
,,,,,,,,,,,,,,,,,,,,,,-55.55555556,-40,20,75,-219.5555556,0.444444444,0.444444444,0.383159732,-0.312037043,1,0,0,1.7822,submitButton,10.97511111,0.585937511,-0.057407468,0,0,0,2,19,139,24,1,40,67672,blockT,180,2022-02-16_15h22.37.840,orientation adjustment block,2021.2.3,Win32,60.44852808,,,,,,,
,,,,,,,,,,,,,,,,,,,,,,-66.66666667,68,20,75,52.33333333,15.66666667,15.66666667,-0.272395829,-0.407407471,1,0,0,1.1324,submitButton,11.01234568,-0.272395829,-0.407407471,0,0,0,2,20,140,52,1,68,67672,blockT,180,2022-02-16_15h22.37.840,orientation adjustment block,2021.2.3,Win32,60.44852808,,,,,,,
,,,,,,,,,,,,,,,,,,,,,,22.77777778,32,20,75,25.77777778,6.222222222,6.222222222,0.391493065,-0.289814821,1,0,0,0.6493,submitButton,10.97462817,0.102604174,-0.255555561,0,0,0,2,21,141,16,1,32,67672,blockT,180,2022-02-16_15h22.37.840,orientation adjustment block,2021.2.3,Win32,60.44852808,,,,,,,
,,,,,,,,,,,,,,,,,,,,,,-57.77777778,24,20,75,36.22222222,12.22222222,12.22222222,0.229456027,-0.29444445,1,0,0,0.783,submitButton,10.984375,-0.310358792,-0.396296359,0,0,0,2,22,142,8,1,24,67672,blockT,180,2022-02-16_15h22.37.840,orientation adjustment block,2021.2.3,Win32,60.44852808,,,,,,,
,,,,,,,,,,,,,,,,,,,,,,-65.55555556,-61,20,75,-223.5555556,17.44444444,17.44444444,0.409085771,-0.302777784,1,0,0,0.6812,submitButton,11.03445306,-0.226099532,-0.417592599,0,0,0,2,23,143,45,1,61,67672,blockT,180,2022-02-16_15h22.37.840,orientation adjustment block,2021.2.3,Win32,60.44852808,,,,,,,
,,,,,,,,,,,,,,,,,,,,,,-25,30,20,75,32,2,2,0.213715286,-0.285185248,1,0,0,0.1502,submitButton,10.96495726,-0.103877252,-0.414814822,0,0,0,2,24,144,14,1,30,67672,blockT,180,2022-02-16_15h22.37.840,orientation adjustment block,2021.2.3,Win32,60.44852808,,,,,,,
,,,,,,,,,,,,,,,,,,,,,,-23.33333333,-50,20,75,-38.33333333,11.66666667,11.66666667,0.172048619,-0.288888895,1,0,0,0.0661,submitButton,10.97031383,-0.318692125,-0.40370371,0,0,0,2,25,145,34,1,50,67672,blockT,180,2022-02-16_15h22.37.840,orientation adjustment block,2021.2.3,Win32,60.44852808,,,,,,,
,,,,,,,,,,,,,,,,,,,,,,-75,-67,20,75,-77,10,10,0.206307879,-0.283333339,1,0,0,0.5163,submitButton,10.96296296,-0.292766199,-0.410185248,0,0,0,2,26,146,51,1,67,67672,blockT,180,2022-02-16_15h22.37.840,orientation adjustment block,2021.2.3,Win32,60.44852808,,,,,,,
,,,,,,,,,,,,,,,,,,,,,,-60.55555556,-43,20,75,-210.5555556,12.44444444,12.44444444,0.426678251,-0.287037043,1,0,0,1.3997,submitButton,10.97410192,-0.39739583,-0.404629693,0,0,0,2,27,147,27,1,43,67672,blockT,180,2022-02-16_15h22.37.840,orientation adjustment block,2021.2.3,Win32,60.44852808,,,,,,,
,,,,,,,,,,,,,,,,,,,,,,-37.22222222,-31,20,75,-36.22222222,5.222222222,5.222222222,0.16278936,-0.319444451,1,0,0,0.1832,submitButton,10.93117745,-0.192766199,-0.409259266,0,0,0,2,28,148,15,1,31,67672,blockT,180,2022-02-16_15h22.37.840,orientation adjustment block,2021.2.3,Win32,60.44852808,,,,,,,
,,,,,,,,,,,,,,,,,,,,,,-41.11111111,-37,20,75,-40.11111111,3.111111111,3.111111111,0.209085769,-0.296296359,1,0,0,0.9494,submitButton,10.87325103,0.402604176,-0.392592599,1,0,0,2,29,149,21,1,37,67672,blockT,180,2022-02-16_15h22.37.840,orientation adjustment block,2021.2.3,Win32,60.44852808,continueButton,,,,,,
,,,,,,,,,,,,,,,,,,,,,,-62.22222222,64,20,75,63.77777778,0.222222222,0.222222222,0.215567138,-0.296296359,1,0,0,0.783,submitButton,10.79493464,-0.072395827,-0.422222229,0,0,0,2,30,150,48,1,64,67672,blockT,180,2022-02-16_15h22.37.840,orientation adjustment block,2021.2.3,Win32,60.44852808,,,,,,,
,,,,,,,,,,,,,,,,,,,,,,62.77777778,58,20,75,242.7777778,4.777777778,4.777777778,0.223900471,-0.292592598,1,0,0,1.2336,submitButton,10.75101379,-0.325173607,-0.400000007,0,0,0,2,31,151,42,1,58,67672,blockT,180,2022-02-16_15h22.37.840,orientation adjustment block,2021.2.3,Win32,60.44852808,,,,,,,
,,,,,,,,,,,,,,,,,,,,,,68.88888889,74,20,75,248.8888889,5.111111111,5.111111111,0.180381952,-0.334259265,1,0,0,1.5826,submitButton,10.71014493,-0.279803236,-0.406481488,0,0,0,2,32,152,58,1,74,67672,blockT,180,2022-02-16_15h22.37.840,orientation adjustment block,2021.2.3,Win32,60.44852808,,,,,,,
,,,,,,,,,,,,,,,,,,,,,,34.44444444,-51,20,75,-37.55555556,13.44444444,13.44444444,-0.275173607,-0.392592599,1,0,0,0.6329,submitButton,10.72981615,0.35908577,-0.35740747,0,0,0,2,33,153,35,1,51,67672,blockT,180,2022-02-16_15h22.37.840,orientation adjustment block,2021.2.3,Win32,60.44852808,,,,,,,
,,,,,,,,,,,,,,,,,,,,,,-21.66666667,-17,20,75,-34.66666667,17.66666667,17.66666667,-0.158506939,-0.375925932,1,0,0,0.4558,submitButton,10.77936508,0.281307879,-0.324074137,0,0,0,2,34,154,1,1,17,67672,blockT,180,2022-02-16_15h22.37.840,orientation adjustment block,2021.2.3,Win32,60.44852808,,,,,,,
,,,,,,,,,,,,,,,,,,,,,,-52.77777778,52,20,75,74.22222222,22.22222222,22.22222222,0.216493064,-0.306481487,1,0,0,1.0328,submitButton,10.86052009,0.229456027,-0.273148154,0,0,0,2,35,155,36,1,52,67672,blockT,180,2022-02-16_15h22.37.840,orientation adjustment block,2021.2.3,Win32,60.44852808,,,,,,,
,,,,,,,,,,,,,,,,,,,,,,42.22222222,35,20,75,42.22222222,7.222222222,7.222222222,0.446122695,-0.310185248,1,0,0,0.3328,submitButton,10.83489828,0.303530101,-0.365740804,0,0,0,2,36,156,19,1,35,67672,blockT,180,2022-02-16_15h22.37.840,orientation adjustment block,2021.2.3,Win32,60.44852808,,,,,,,
,,,,,,,,,,,,,,,,,,,,,,53.33333333,36,20,75,44.33333333,8.333333333,8.333333333,-0.230729162,-0.389814821,1,0,0,2.8145,submitButton,10.81740482,0.354456028,-0.293518581,0,0,0,2,37,157,20,1,36,67672,blockT,180,2022-02-16_15h22.37.840,orientation adjustment block,2021.2.3,Win32,60.44852808,,,,,,,
,,,,,,,,,,,,,,,,,,,,,,-50.55555556,-57,20,75,-238.5555556,1.555555556,1.555555556,0.382233806,-0.300000006,1,0,0,2.1149,submitButton,10.75308642,-0.306655032,-0.395370377,0,0,0,2,38,158,41,1,57,67672,blockT,180,2022-02-16_15h22.37.840,orientation adjustment block,2021.2.3,Win32,60.44852808,,,,,,,
,,,,,,,,,,,,,,,,,,,,,,20,49,20,75,55,6,6,0.383159732,-0.30740747,1,0,0,0.1956,submitButton,10.72030651,-0.300173607,-0.393518582,0,0,0,2,39,159,33,1,49,67672,blockT,180,2022-02-16_15h22.37.840,orientation adjustment block,2021.2.3,Win32,60.44852808,,,,,,,
,,,,,,,,,,,,,,,,,,,,,,52.77777778,69,20,75,49.77777778,19.22222222,19.22222222,0.346122694,-0.30740747,1,0,0,0.1818,submitButton,10.77853881,0.087789359,-0.320370376,0,0,0,2,40,160,53,1,69,67672,blockT,180,2022-02-16_15h22.37.840,orientation adjustment block,2021.2.3,Win32,60.44852808,,,,,,,
,,,,,,,,,,,,,,,,,,,,,,-36.11111111,-33,20,75,-41.11111111,8.111111111,8.111111111,0.165567137,-0.296296359,1,0,0,0.5329,submitButton,10.76039305,0.244270842,-0.293518581,0,0,0,2,41,161,17,1,33,67672,blockT,180,2022-02-16_15h22.37.840,orientation adjustment block,2021.2.3,Win32,60.44852808,,,,,,,
,,,,,,,,,,,,,,,,,,,,,,48.88888889,22,20,75,27.88888889,5.888888889,5.888888889,0.370196769,-0.306481487,1,0,0,0.4833,submitButton,10.72747748,-0.264988365,-0.393518582,0,0,0,2,42,162,6,1,22,67672,blockT,180,2022-02-16_15h22.37.840,orientation adjustment block,2021.2.3,Win32,60.44852808,,,,,,,
,,,,,,,,,,,,,,,,,,,,,,47.77777778,45,20,75,38.77777778,6.222222222,6.222222222,0.410011584,-0.30370371,1,0,0,0.5162,submitButton,10.69724087,-0.286284718,-0.392592599,0,0,0,2,43,163,29,1,45,67672,blockT,180,2022-02-16_15h22.37.840,orientation adjustment block,2021.2.3,Win32,60.44852808,,,,,,,
,,,,,,,,,,,,,,,,,,,,,,-52.77777778,-25,20,75,-33.77777778,8.777777778,8.777777778,0.200752436,-0.293518581,1,0,0,0.148,submitButton,10.68444444,0.316493065,-0.40833334,1,0,0,2,44,164,9,1,25,67672,blockT,180,2022-02-16_15h22.37.840,orientation adjustment block,2021.2.3,Win32,60.44852808,continueButton,,,,,,
,,,,,,,,,,,,,,,,,,,,,,40.55555556,55,20,75,39.55555556,15.44444444,15.44444444,0.455381954,-0.327777784,1,0,0,0.0202,submitButton,10.71596762,0.357233806,-0.264814821,0,0,0,2,45,165,39,1,55,67672,blockT,180,2022-02-16_15h22.37.840,orientation adjustment block,2021.2.3,Win32,60.44852808,,,,,,,
,,,,,,,,,,,,,,,,,,,,,,-60.55555556,44,20,75,48.44444444,4.444444444,4.444444444,0.235011582,-0.286111117,1,0,0,1.0495,submitButton,10.6747076,0.233159731,-0.25740747,0,0,0,2,46,166,28,1,44,67672,blockT,180,2022-02-16_15h22.37.840,orientation adjustment block,2021.2.3,Win32,60.44852808,,,,,,,
,,,,,,,,,,,,,,,,,,,,,,36.66666667,-26,20,75,-39.33333333,13.33333333,13.33333333,0.384085771,-0.306481487,1,0,0,1.099,submitButton,10.69208424,-0.266840273,-0.416666673,0,0,0,2,47,167,10,1,26,67672,blockT,180,2022-02-16_15h22.37.840,orientation adjustment block,2021.2.3,Win32,60.44852808,,,,,,,
,,,,,,,,,,,,,,,,,,,,,,-72.22222222,-48,20,75,-226.2222222,1.777777778,1.777777778,-0.28813657,-0.410185248,1,0,0,2.3437,submitButton,10.63419913,0.188715286,-0.348148154,0,0,0,2,48,168,32,1,48,67672,blockT,180,2022-02-16_15h22.37.840,orientation adjustment block,2021.2.3,Win32,60.44852808,,,,,,,
,,,,,,,,,,,,,,,,,,,,,,-68.33333333,-66,20,75,-241.3333333,4.666666667,4.666666667,0.373900472,-0.298148154,1,0,0,1.0797,submitButton,10.59569892,0.43130788,-0.215740803,0,0,0,2,49,169,50,1,66,67672,blockT,180,2022-02-16_15h22.37.840,orientation adjustment block,2021.2.3,Win32,60.44852808,,,,,,,
,,,,,,,,,,,,,,,,,,,,,,52.77777778,-71,20,75,-61.22222222,9.777777778,9.777777778,0.395196769,-0.287037043,1,0,0,0.5993,submitButton,10.59045584,-0.260358792,-0.404629693,0,0,0,2,50,170,55,1,71,67672,blockT,180,2022-02-16_15h22.37.840,orientation adjustment block,2021.2.3,Win32,60.44852808,,,,,,,
,,,,,,,,,,,,,,,,,,,,,,-63.88888889,46,20,75,59.11111111,13.11111111,13.11111111,0.21278936,-0.318518581,1,0,0,0.9661,submitButton,10.60651097,-0.349247681,-0.40370371,0,0,0,2,51,171,30,1,46,67672,blockT,180,2022-02-16_15h22.37.840,orientation adjustment block,2021.2.3,Win32,60.44852808,,,,,,,
,,,,,,,,,,,,,,,,,,,,,,67.77777778,73,20,75,249.7777778,3.222222222,3.222222222,0.224826397,-0.306481487,1,0,0,1.1653,submitButton,10.55977496,0.210937508,-0.271296359,0,0,0,2,52,172,57,1,73,67672,blockT,180,2022-02-16_15h22.37.840,orientation adjustment block,2021.2.3,Win32,60.44852808,,,,,,,
,,,,,,,,,,,,,,,,,,,,,,-35.55555556,60,20,75,49.44444444,10.55555556,10.55555556,-0.23350694,-0.396296359,1,0,0,1.0161,submitButton,10.55974843,-0.23350694,-0.396296359,0,0,0,2,53,173,44,1,60,67672,blockT,180,2022-02-16_15h22.37.840,orientation adjustment block,2021.2.3,Win32,60.44852808,,,,,,,
,,,,,,,,,,,,,,,,,,,,,,-44.44444444,19,20,75,27.55555556,8.555555556,8.555555556,0.231307879,-0.291666673,1,0,0,0.3144,submitButton,10.54722222,-0.118692124,-0.381481488,0,0,0,2,54,174,3,1,19,67672,blockT,180,2022-02-16_15h22.37.840,orientation adjustment block,2021.2.3,Win32,60.44852808,,,,,,,
,,,,,,,,,,,,,,,,,,,,,,-33.88888889,-38,20,75,-49.88888889,11.88888889,11.88888889,0.211863434,-0.28240747,1,0,0,0.9492,submitButton,10.55555556,-0.302951385,-0.410185248,0,0,0,2,55,175,22,1,38,67672,blockT,180,2022-02-16_15h22.37.840,orientation adjustment block,2021.2.3,Win32,60.44852808,,,,,,,
,,,,,,,,,,,,,,,,,,,,,,65,-41,20,75,-53,12,12,0.413715287,-0.26944445,1,0,0,0.9331,submitButton,10.56447188,0.176678249,-0.30370371,0,0,0,2,56,176,25,1,41,67672,blockT,180,2022-02-16_15h22.37.840,orientation adjustment block,2021.2.3,Win32,60.44852808,,,,,,,
,,,,,,,,,,,,,,,,,,,,,,69.44444444,16,20,75,218.4444444,22.44444444,22.44444444,0.226678249,-0.301851914,1,0,0,1.9982,submitButton,10.63735515,-0.154803235,-0.381481488,0,0,0,2,57,177,0,1,16,67672,blockT,180,2022-02-16_15h22.37.840,orientation adjustment block,2021.2.3,Win32,60.44852808,,,,,,,
,,,,,,,,,,,,,,,,,,,,,,-22.22222222,42,20,75,33.77777778,8.222222222,8.222222222,0.235937508,-0.292592598,1,0,0,0.115,submitButton,10.62262873,-0.179803235,-0.389814821,0,0,0,2,58,178,26,1,42,67672,blockT,180,2022-02-16_15h22.37.840,orientation adjustment block,2021.2.3,Win32,60.44852808,,,,,,,
,,,,,,,,,,,,,,,,,,,,,,26.66666667,-20,20,75,-39.33333333,19.33333333,19.33333333,0.414641213,-0.287037043,1,0,0,0.0842,submitButton,10.67542088,-0.16961805,-0.399074137,0,0,0,2,59,179,4,1,20,67672,blockT,180,2022-02-16_15h22.37.840,orientation adjustment block,2021.2.3,Win32,60.44852808,,,,,,,
,,,,,,,,,,,,,,,,,,,,,,,,,,,,,,,,,,,,,,,,,,,,,,,,67672,blockT,180,2022-02-16_15h22.37.840,orientation adjustment block,2021.2.3,Win32,60.44852808,,0.385011584,-0.386111118,1,0,0,EndButtonTxt
