consentMouse1.x,consentMouse1.y,consentMouse1.leftButton,consentMouse1.midButton,consentMouse1.rightButton,consentMouse1.clicked_name,consent_Mouse.x,consent_Mouse.y,consent_Mouse.leftButton,consent_Mouse.midButton,consent_Mouse.rightButton,consent_Mouse.clicked_name,startMouse.x,startMouse.y,startMouse.leftButton,startMouse.midButton,startMouse.rightButton,startMouse_2.x,startMouse_2.y,startMouse_2.leftButton,startMouse_2.midButton,startMouse_2.rightButton,start_distance,fixedOri,minimalDistance,maxOri,this_ori,accuracy,presented_accuracy,submitMouse.x,submitMouse.y,submitMouse.leftButton,submitMouse.midButton,submitMouse.rightButton,submitMouse.time,submitMouse.clicked_name,block_accuracy,continueMouse.x,continueMouse.y,continueMouse.leftButton,continueMouse.midButton,continueMouse.rightButton,trials.thisRepN,trials.thisTrialN,trials.thisN,trials.thisIndex,trials.ran,startOri,participant,condition,nTrials,date,expName,psychopyVersion,OS,frameRate,continueMouse.clicked_name,EndButtonMouse.x,EndButtonMouse.y,EndButtonMouse.leftButton,EndButtonMouse.midButton,EndButtonMouse.rightButton,EndButtonMouse.clicked_name
0.36111113,-0.398148162,1,0,0,consent_button1,0.372222241,-0.393518532,1,0,0,consent_button,0.146296312,-0.252777789,1,0,0,-0.051851839,-0.286111123,1,0,0,-51.11111111,-26,20,75,-57.11111111,31.11111111,31.11111111,0.19907409,-0.294444456,1,0,0,3.9491,submitButton,31.11111111,-0.346296288,-0.410185199,0,0,0,0,0,0,10,1,26,67684,blockT,180,2022-02-15_12h08.40.047,orientation adjustment block,2021.2.3,Win32,59.17159763,,,,,,,
,,,,,,,,,,,,,,,,,,,,,,-51.66666667,54,20,75,37.33333333,16.66666667,16.66666667,0.221296313,-0.319444457,1,0,0,0.2337,submitButton,23.88888889,-0.206481415,-0.40000007,0,0,0,0,1,1,38,1,54,67684,blockT,180,2022-02-15_12h08.40.047,orientation adjustment block,2021.2.3,Win32,59.17159763,,,,,,,
,,,,,,,,,,,,,,,,,,,,,,-68.33333333,23,20,75,5.666666667,17.33333333,17.33333333,0.147222238,-0.309259271,1,0,0,0.3781,submitButton,21.7037037,-0.317592584,-0.408333347,0,0,0,0,2,2,7,1,23,67684,blockT,180,2022-02-15_12h08.40.047,orientation adjustment block,2021.2.3,Win32,59.17159763,,,,,,,
,,,,,,,,,,,,,,,,,,,,,,-25.55555556,-37,20,75,-36.55555556,0.444444444,0.444444444,0.222222239,-0.311111123,1,0,0,0.3011,submitButton,0.444444444,-0.31388888,-0.393518532,0,0,0,0,3,3,21,1,37,67684,blockT,180,2022-02-15_12h08.40.047,orientation adjustment block,2021.2.3,Win32,59.17159763,,,,,,,
,,,,,,,,,,,,,,,,,,,,,,-27.22222222,-21,20,75,-23.22222222,2.222222222,2.222222222,0.205555572,-0.300000012,1,0,0,0.122,submitButton,1.333333333,-0.301851843,-0.401851865,0,0,0,0,4,4,5,1,21,67684,blockT,180,2022-02-15_12h08.40.047,orientation adjustment block,2021.2.3,Win32,59.17159763,,,,,,,
,,,,,,,,,,,,,,,,,,,,,,-70.55555556,59,20,75,25.44444444,33.55555556,33.55555556,0.173148164,-0.325000012,1,0,0,0.2001,submitButton,12.07407407,-0.383333326,-0.403703717,0,0,0,0,5,5,43,1,59,67684,blockT,180,2022-02-15_12h08.40.047,orientation adjustment block,2021.2.3,Win32,59.17159763,,,,,,,
,,,,,,,,,,,,,,,,,,,,,,-47.22222222,56,20,75,43.77777778,12.22222222,12.22222222,0.251851869,-0.282407419,1,0,0,0.1788,submitButton,12.22222222,-0.303703695,-0.407407421,0,0,0,0,6,6,40,1,56,67684,blockT,180,2022-02-15_12h08.40.047,orientation adjustment block,2021.2.3,Win32,59.17159763,,,,,,,
,,,,,,,,,,,,,,,,,,,,,,-52.77777778,-18,20,75,-29.77777778,11.77777778,11.77777778,0.167592608,-0.322222234,1,0,0,0.8004,submitButton,12,-0.279629621,-0.4046297,0,0,0,0,7,7,2,1,18,67684,blockT,180,2022-02-15_12h08.40.047,orientation adjustment block,2021.2.3,Win32,59.17159763,,,,,,,
,,,,,,,,,,,,,,,,,,,,,,65,-47,20,75,142,9,9,0.171296312,-0.329629642,1,0,0,2.0614,submitButton,11,-0.207407397,-0.397222236,0,0,0,0,8,8,31,1,47,67684,blockT,180,2022-02-15_12h08.40.047,orientation adjustment block,2021.2.3,Win32,59.17159763,,,,,,,
,,,,,,,,,,,,,,,,,,,,,,-70.55555556,64,20,75,44.44444444,19.55555556,19.55555556,0.198148164,-0.272222234,1,0,0,0.8953,submitButton,19.55555556,-0.28055549,-0.400925939,0,0,0,0,9,9,48,1,64,67684,blockT,180,2022-02-15_12h08.40.047,orientation adjustment block,2021.2.3,Win32,59.17159763,,,,,,,
,,,,,,,,,,,,,,,,,,,,,,54.44444444,-27,20,75,136.4444444,16.55555556,16.55555556,0.198148164,-0.295370382,1,0,0,0.9425,submitButton,18.05555556,-0.295370362,-0.39537044,0,0,0,0,10,10,11,1,27,67684,blockT,180,2022-02-15_12h08.40.047,orientation adjustment block,2021.2.3,Win32,59.17159763,,,,,,,
,,,,,,,,,,,,,,,,,,,,,,68.88888889,61,20,75,208.8888889,32.11111111,32.11111111,0.236111128,-0.289814827,1,0,0,0.0841,submitButton,22.74074074,-0.217592583,-0.40000007,0,0,0,0,11,11,45,1,61,67684,blockT,180,2022-02-15_12h08.40.047,orientation adjustment block,2021.2.3,Win32,59.17159763,,,,,,,
,,,,,,,,,,,,,,,,,,,,,,44.44444444,65,20,75,226.4444444,18.55555556,18.55555556,0.186111127,-0.297222234,1,0,0,1.4611,submitButton,18.55555556,-0.187037027,-0.402777791,0,0,0,0,12,12,49,1,65,67684,blockT,180,2022-02-15_12h08.40.047,orientation adjustment block,2021.2.3,Win32,59.17159763,,,,,,,
,,,,,,,,,,,,,,,,,,,,,,37.22222222,-71,20,75,-47.77777778,23.22222222,23.22222222,0.379629649,-0.253703715,1,0,0,0.3007,submitButton,20.88888889,-0.17037036,-0.424074088,0,0,0,0,13,13,55,1,71,67684,blockT,180,2022-02-15_12h08.40.047,orientation adjustment block,2021.2.3,Win32,59.17159763,,,,,,,
,,,,,,,,,,,,,,,,,,,,,,56.66666667,-16,20,75,-22.33333333,6.333333333,6.333333333,0.372222241,-0.281481493,1,0,0,0.3446,submitButton,16.03703704,0.38611113,-0.405555569,1,0,0,0,14,14,0,1,16,67684,blockT,180,2022-02-15_12h08.40.047,orientation adjustment block,2021.2.3,Win32,59.17159763,continueButton,,,,,,
,,,,,,,,,,,,,,,,,,,,,,-29.44444444,19,20,75,31.55555556,12.55555556,12.55555556,0.214814831,-0.282407419,1,0,0,1.6005,submitButton,12.55555556,-0.365740733,-0.398148162,0,0,0,0,15,15,3,1,19,67684,blockT,180,2022-02-15_12h08.40.047,orientation adjustment block,2021.2.3,Win32,59.17159763,,,,,,,
,,,,,,,,,,,,,,,,,,,,,,-65,52,20,75,31,21,21,-0.358333325,-0.362963032,1,0,0,1.3115,submitButton,16.77777778,-0.328703695,-0.399074087,0,0,0,0,16,16,36,1,52,67684,blockT,180,2022-02-15_12h08.40.047,orientation adjustment block,2021.2.3,Win32,59.17159763,,,,,,,
,,,,,,,,,,,,,,,,,,,,,,45,36,20,75,198,18,18,-0.249074065,-0.400925939,1,0,0,2.6449,submitButton,17.18518519,-0.249074065,-0.400925939,0,0,0,0,17,17,20,1,36,67684,blockT,180,2022-02-15_12h08.40.047,orientation adjustment block,2021.2.3,Win32,59.17159763,,,,,,,
,,,,,,,,,,,,,,,,,,,,,,-60.55555556,50,20,75,-127.5555556,2.444444444,2.444444444,0.384259278,-0.272222234,1,0,0,1.7774,submitButton,13.5,-0.3824074,-0.407407421,0,0,0,0,18,18,34,1,50,67684,blockT,180,2022-02-15_12h08.40.047,orientation adjustment block,2021.2.3,Win32,59.17159763,,,,,,,
,,,,,,,,,,,,,,,,,,,,,,-42.22222222,-41,20,75,-47.22222222,6.222222222,6.222222222,0.186111127,-0.289814827,1,0,0,1.0835,submitButton,12.04444444,-0.261111102,-0.4046297,0,0,0,0,19,19,25,1,41,67684,blockT,180,2022-02-15_12h08.40.047,orientation adjustment block,2021.2.3,Win32,59.17159763,,,,,,,
,,,,,,,,,,,,,,,,,,,,,,73.33333333,-68,20,75,106.3333333,5.666666667,5.666666667,-0.209259249,-0.406481495,1,0,0,2.0782,submitButton,10.98148148,-0.209259249,-0.406481495,0,0,0,0,20,20,52,1,68,67684,blockT,180,2022-02-15_12h08.40.047,orientation adjustment block,2021.2.3,Win32,59.17159763,,,,,,,
,,,,,,,,,,,,,,,,,,,,,,-66.11111111,-67,20,75,-76.11111111,9.111111111,9.111111111,0.371296315,-0.295370382,1,0,0,1.6448,submitButton,10.71428571,-0.19074073,-0.393518532,0,0,0,0,21,21,51,1,67,67684,blockT,180,2022-02-15_12h08.40.047,orientation adjustment block,2021.2.3,Win32,59.17159763,,,,,,,
,,,,,,,,,,,,,,,,,,,,,,74.44444444,-22,20,75,131.4444444,26.55555556,26.55555556,-0.252777712,-0.436111125,1,0,0,2.0776,submitButton,12.69444444,-0.242592583,-0.403703717,0,0,0,0,22,22,6,1,22,67684,blockT,180,2022-02-15_12h08.40.047,orientation adjustment block,2021.2.3,Win32,59.17159763,,,,,,,
,,,,,,,,,,,,,,,,,,,,,,37.77777778,42,20,75,197.7777778,24.22222222,24.22222222,0.235185202,-0.306481493,1,0,0,0.0218,submitButton,13.97530864,-0.218518509,-0.412037051,0,0,0,0,23,23,26,1,42,67684,blockT,180,2022-02-15_12h08.40.047,orientation adjustment block,2021.2.3,Win32,59.17159763,,,,,,,
,,,,,,,,,,,,,,,,,,,,,,-44.44444444,-32,20,75,-32.44444444,0.444444444,0.444444444,-0.227777768,-0.40000007,1,0,0,1.3501,submitButton,12.62222222,-0.227777768,-0.40000007,0,0,0,0,24,24,16,1,32,67684,blockT,180,2022-02-15_12h08.40.047,orientation adjustment block,2021.2.3,Win32,59.17159763,,,,,,,
,,,,,,,,,,,,,,,,,,,,,,-72.22222222,-17,20,75,-34.22222222,17.22222222,17.22222222,0.248148165,-0.290740753,1,0,0,0.1502,submitButton,13.04040404,-0.235185175,-0.401851865,0,0,0,0,25,25,1,1,17,67684,blockT,180,2022-02-15_12h08.40.047,orientation adjustment block,2021.2.3,Win32,59.17159763,,,,,,,
,,,,,,,,,,,,,,,,,,,,,,67.77777778,-70,20,75,-62.22222222,7.777777778,7.777777778,0.352777796,-0.300000012,1,0,0,0.2621,submitButton,12.60185185,-0.388888881,-0.392592606,0,0,0,0,26,26,54,1,70,67684,blockT,180,2022-02-15_12h08.40.047,orientation adjustment block,2021.2.3,Win32,59.17159763,,,,,,,
,,,,,,,,,,,,,,,,,,,,,,-45.55555556,48,20,75,25.44444444,22.55555556,22.55555556,-0.196296286,-0.39629631,1,0,0,1.2946,submitButton,13.36752137,-0.196296286,-0.39629631,0,0,0,0,27,27,32,1,48,67684,blockT,180,2022-02-15_12h08.40.047,orientation adjustment block,2021.2.3,Win32,59.17159763,,,,,,,
,,,,,,,,,,,,,,,,,,,,,,-27.77777778,-51,20,75,-49.77777778,1.222222222,1.222222222,-0.193518508,-0.405555569,1,0,0,1.1444,submitButton,12.5,-0.193518508,-0.405555569,0,0,0,0,28,28,35,1,51,67684,blockT,180,2022-02-15_12h08.40.047,orientation adjustment block,2021.2.3,Win32,59.17159763,,,,,,,
,,,,,,,,,,,,,,,,,,,,,,58.33333333,-25,20,75,-28.66666667,3.666666667,3.666666667,0.337962981,-0.296296308,1,0,0,0.1394,submitButton,11.91111111,0.421296316,-0.409259329,1,0,0,0,29,29,9,1,25,67684,blockT,180,2022-02-15_12h08.40.047,orientation adjustment block,2021.2.3,Win32,59.17159763,continueButton,,,,,,
,,,,,,,,,,,,,,,,,,,,,,-27.22222222,-49,20,75,1.777777778,50.77777778,50.77777778,0.198148164,-0.313888901,1,0,0,1.4615,submitButton,14.34027778,-0.337962955,-0.405555569,0,0,0,0,30,30,33,1,49,67684,blockT,180,2022-02-15_12h08.40.047,orientation adjustment block,2021.2.3,Win32,59.17159763,,,,,,,
,,,,,,,,,,,,,,,,,,,,,,-46.11111111,-45,20,75,-48.11111111,3.111111111,3.111111111,-0.197222155,-0.370370383,1,0,0,1.7279,submitButton,13.67973856,-0.220370304,-0.388888902,0,0,0,0,31,31,29,1,45,67684,blockT,180,2022-02-15_12h08.40.047,orientation adjustment block,2021.2.3,Win32,59.17159763,,,,,,,
,,,,,,,,,,,,,,,,,,,,,,-59.44444444,72,20,75,43.55555556,28.44444444,28.44444444,-0.234259193,-0.390740811,1,0,0,1.0111,submitButton,14.5,-0.234259193,-0.390740811,0,0,0,0,32,32,56,1,72,67684,blockT,180,2022-02-15_12h08.40.047,orientation adjustment block,2021.2.3,Win32,59.17159763,,,,,,,
,,,,,,,,,,,,,,,,,,,,,,-33.33333333,55,20,75,53.66666667,1.333333333,1.333333333,-0.181481471,-0.376851921,1,0,0,1.1936,submitButton,13.80701754,-0.181481471,-0.376851921,0,0,0,0,33,33,39,1,55,67684,blockT,180,2022-02-15_12h08.40.047,orientation adjustment block,2021.2.3,Win32,59.17159763,,,,,,,
,,,,,,,,,,,,,,,,,,,,,,-48.33333333,38,20,75,31.66666667,6.333333333,6.333333333,-0.19537036,-0.406481495,1,0,0,1.211,submitButton,13.43333333,-0.19537036,-0.406481495,0,0,0,0,34,34,22,1,38,67684,blockT,180,2022-02-15_12h08.40.047,orientation adjustment block,2021.2.3,Win32,59.17159763,,,,,,,
,,,,,,,,,,,,,,,,,,,,,,52.77777778,-43,20,75,-28.22222222,14.77777778,14.77777778,-0.260185176,-0.400925939,1,0,0,1.6333,submitButton,13.4973545,-0.260185176,-0.400925939,0,0,0,0,35,35,27,1,43,67684,blockT,180,2022-02-15_12h08.40.047,orientation adjustment block,2021.2.3,Win32,59.17159763,,,,,,,
,,,,,,,,,,,,,,,,,,,,,,-43.33333333,-29,20,75,-42.33333333,13.33333333,13.33333333,-0.237962953,-0.389814828,1,0,0,1.2113,submitButton,13.48989899,-0.237962953,-0.389814828,0,0,0,0,36,36,13,1,29,67684,blockT,180,2022-02-15_12h08.40.047,orientation adjustment block,2021.2.3,Win32,59.17159763,,,,,,,
,,,,,,,,,,,,,,,,,,,,,,-47.77777778,40,20,75,30.22222222,9.777777778,9.777777778,0.187037053,-0.311111123,1,0,0,0.0223,submitButton,13.32850242,-0.196296286,-0.39629631,0,0,0,0,37,37,24,1,40,67684,blockT,180,2022-02-15_12h08.40.047,orientation adjustment block,2021.2.3,Win32,59.17159763,,,,,,,
,,,,,,,,,,,,,,,,,,,,,,71.66666667,31,20,75,204.6666667,6.333333333,6.333333333,-0.167592582,-0.39629631,1,0,0,2.4327,submitButton,13.03703704,-0.167592582,-0.39629631,0,0,0,0,38,38,15,1,31,67684,blockT,180,2022-02-15_12h08.40.047,orientation adjustment block,2021.2.3,Win32,59.17159763,,,,,,,
,,,,,,,,,,,,,,,,,,,,,,-35.55555556,-33,20,75,-37.55555556,4.555555556,4.555555556,-0.210185175,-0.393518532,1,0,0,1.1286,submitButton,12.69777778,-0.210185175,-0.393518532,0,0,0,0,39,39,17,1,33,67684,blockT,180,2022-02-15_12h08.40.047,orientation adjustment block,2021.2.3,Win32,59.17159763,,,,,,,
,,,,,,,,,,,,,,,,,,,,,,39.44444444,53,20,75,59.44444444,6.444444444,6.444444444,0.373148167,-0.264814826,1,0,0,0.5058,submitButton,12.45726496,-0.230555546,-0.420370384,0,0,0,0,40,40,37,1,53,67684,blockT,180,2022-02-15_12h08.40.047,orientation adjustment block,2021.2.3,Win32,59.17159763,,,,,,,
,,,,,,,,,,,,,,,,,,,,,,-37.22222222,57,20,75,36.77777778,20.22222222,20.22222222,0.378703836,-0.276851863,1,0,0,1.2672,submitButton,12.74485597,-0.157407397,-0.400925939,0,0,0,0,41,41,41,1,57,67684,blockT,180,2022-02-15_12h08.40.047,orientation adjustment block,2021.2.3,Win32,59.17159763,,,,,,,
,,,,,,,,,,,,,,,,,,,,,,-25,-74,20,75,-62,12,12,-0.200925916,-0.392592606,1,0,0,1.0779,submitButton,12.71825397,-0.200925916,-0.392592606,0,0,0,0,42,42,58,1,74,67684,blockT,180,2022-02-15_12h08.40.047,orientation adjustment block,2021.2.3,Win32,59.17159763,,,,,,,
,,,,,,,,,,,,,,,,,,,,,,-73.33333333,-66,20,75,-214.3333333,31.66666667,31.66666667,0.399074093,-0.274074086,1,0,0,0.2444,submitButton,13.37164751,-0.155555488,-0.375000013,0,0,0,0,43,43,50,1,66,67684,blockT,180,2022-02-15_12h08.40.047,orientation adjustment block,2021.2.3,Win32,59.17159763,,,,,,,
,,,,,,,,,,,,,,,,,,,,,,42.77777778,-34,20,75,-28.22222222,5.777777778,5.777777778,0.383333465,-0.301851864,1,0,0,0.2611,submitButton,13.11851852,0.324074092,-0.390740811,1,0,0,0,44,44,18,1,34,67684,blockT,180,2022-02-15_12h08.40.047,orientation adjustment block,2021.2.3,Win32,59.17159763,continueButton,,,,,,
,,,,,,,,,,,,,,,,,,,,,,-65.55555556,39,20,75,39.44444444,0.444444444,0.444444444,-0.155555488,-0.387962976,1,0,0,1.8777,submitButton,12.70967742,-0.155555488,-0.387962976,0,0,0,0,45,45,23,1,39,67684,blockT,180,2022-02-15_12h08.40.047,orientation adjustment block,2021.2.3,Win32,59.17159763,,,,,,,
,,,,,,,,,,,,,,,,,,,,,,-40.55555556,-28,20,75,-39.55555556,11.55555556,11.55555556,0.222222239,-0.309259271,1,0,0,0.2786,submitButton,12.67361111,-0.159259248,-0.383333346,0,0,0,0,46,46,12,1,28,67684,blockT,180,2022-02-15_12h08.40.047,orientation adjustment block,2021.2.3,Win32,59.17159763,,,,,,,
,,,,,,,,,,,,,,,,,,,,,,-60,35,20,75,34,1,1,-0.144444433,-0.394444458,1,0,0,1.384,submitButton,12.31986532,-0.144444433,-0.394444458,0,0,0,0,47,47,19,1,35,67684,blockT,180,2022-02-15_12h08.40.047,orientation adjustment block,2021.2.3,Win32,59.17159763,,,,,,,
,,,,,,,,,,,,,,,,,,,,,,-28.33333333,-75,20,75,-68.33333333,6.666666667,6.666666667,0.193518535,-0.303703716,1,0,0,0.6669,submitButton,12.15359477,-0.265740731,-0.414814828,0,0,0,0,48,48,59,1,75,67684,blockT,180,2022-02-15_12h08.40.047,orientation adjustment block,2021.2.3,Win32,59.17159763,,,,,,,
,,,,,,,,,,,,,,,,,,,,,,-23.88888889,-60,20,75,-53.88888889,6.111111111,6.111111111,0.235185202,-0.316666735,1,0,0,0.1331,submitButton,11.98095238,-0.274074065,-0.39537044,0,0,0,0,49,49,44,1,60,67684,blockT,180,2022-02-15_12h08.40.047,orientation adjustment block,2021.2.3,Win32,59.17159763,,,,,,,
,,,,,,,,,,,,,,,,,,,,,,-38.33333333,-69,20,75,-72.33333333,3.333333333,3.333333333,0.220370387,-0.310185197,1,0,0,0.0338,submitButton,11.74074074,-0.206481415,-0.415740754,0,0,0,0,50,50,53,1,69,67684,blockT,180,2022-02-15_12h08.40.047,orientation adjustment block,2021.2.3,Win32,59.17159763,,,,,,,
,,,,,,,,,,,,,,,,,,,,,,-70.55555556,44,20,75,-26.55555556,70.55555556,70.55555556,-0.236111101,-0.39629631,1,0,0,1.6782,submitButton,13.33033033,-0.236111101,-0.39629631,0,0,0,0,51,51,28,1,44,67684,blockT,180,2022-02-15_12h08.40.047,orientation adjustment block,2021.2.3,Win32,59.17159763,,,,,,,
,,,,,,,,,,,,,,,,,,,,,,31.11111111,46,20,75,68.11111111,22.11111111,22.11111111,0.366666685,-0.291666678,1,0,0,0.8009,submitButton,13.56140351,-0.060185173,-0.100925935,0,0,0,0,52,52,30,1,46,67684,blockT,180,2022-02-15_12h08.40.047,orientation adjustment block,2021.2.3,Win32,59.17159763,,,,,,,
,,,,,,,,,,,,,,,,,,,,,,-42.22222222,-58,20,75,-219.2222222,18.77777778,18.77777778,0.401851984,-0.290740753,1,0,0,0.5168,submitButton,13.6951567,-0.358333325,-0.381481551,0,0,0,0,53,53,42,1,58,67684,blockT,180,2022-02-15_12h08.40.047,orientation adjustment block,2021.2.3,Win32,59.17159763,,,,,,,
,,,,,,,,,,,,,,,,,,,,,,-26.66666667,-73,20,75,-65.66666667,7.333333333,7.333333333,-0.221296286,-0.383333346,1,0,0,1.1447,submitButton,13.53611111,-0.221296286,-0.383333346,0,0,0,0,54,54,57,1,73,67684,blockT,180,2022-02-15_12h08.40.047,orientation adjustment block,2021.2.3,Win32,59.17159763,,,,,,,
,,,,,,,,,,,,,,,,,,,,,,-50.55555556,-63,20,75,-69.55555556,6.555555556,6.555555556,-0.243518452,-0.394444458,1,0,0,1.5449,submitButton,13.36585366,-0.243518452,-0.394444458,0,0,0,0,55,55,47,1,63,67684,blockT,180,2022-02-15_12h08.40.047,orientation adjustment block,2021.2.3,Win32,59.17159763,,,,,,,
,,,,,,,,,,,,,,,,,,,,,,-30,20,20,75,25,5,5,-0.174999989,-0.389814828,1,0,0,1.3772,submitButton,13.16666667,-0.174999989,-0.389814828,0,0,0,0,56,56,4,1,20,67684,blockT,180,2022-02-15_12h08.40.047,orientation adjustment block,2021.2.3,Win32,59.17159763,,,,,,,
,,,,,,,,,,,,,,,,,,,,,,47.77777778,30,20,75,201.7777778,8.222222222,8.222222222,0.192592609,-0.307407476,1,0,0,1.1115,submitButton,13.05167959,-0.231481472,-0.41666668,0,0,0,0,57,57,14,1,30,67684,blockT,180,2022-02-15_12h08.40.047,orientation adjustment block,2021.2.3,Win32,59.17159763,,,,,,,
,,,,,,,,,,,,,,,,,,,,,,74.44444444,-62,20,75,-33.55555556,28.44444444,28.44444444,0.393518538,-0.315740753,1,0,0,0.0834,submitButton,13.40151515,-0.213888879,-0.418518589,0,0,0,0,58,58,46,1,62,67684,blockT,180,2022-02-15_12h08.40.047,orientation adjustment block,2021.2.3,Win32,59.17159763,,,,,,,
,,,,,,,,,,,,,,,,,,,,,,37.22222222,-24,20,75,-15.77777778,8.222222222,8.222222222,0.368518537,-0.291666678,1,0,0,0.245,submitButton,13.28641975,0.396296315,-0.415740754,1,0,0,0,59,59,8,1,24,67684,blockT,180,2022-02-15_12h08.40.047,orientation adjustment block,2021.2.3,Win32,59.17159763,continueButton,,,,,,
,,,,,,,,,,,,,,,,,,,,,,-31.11111111,62,20,75,50.88888889,11.11111111,11.11111111,0.188888905,-0.325000012,1,0,0,0.4614,submitButton,13.23913043,-0.14074073,-0.392592606,0,0,0,1,0,60,46,1,62,67684,blockT,180,2022-02-15_12h08.40.047,orientation adjustment block,2021.2.3,Win32,59.17159763,,,,,,,
,,,,,,,,,,,,,,,,,,,,,,27.22222222,67,20,75,192.2222222,54.77777778,54.77777778,0.229629646,-0.307407476,1,0,0,0.0166,submitButton,14.12293144,-0.216666657,-0.402777791,0,0,0,1,1,61,51,1,67,67684,blockT,180,2022-02-15_12h08.40.047,orientation adjustment block,2021.2.3,Win32,59.17159763,,,,,,,
,,,,,,,,,,,,,,,,,,,,,,-39.44444444,-55,20,75,-54.44444444,0.555555556,0.555555556,0.187962979,-0.32314816,1,0,0,0.8283,submitButton,13.84027778,-0.152777767,-0.418518589,0,0,0,1,2,62,39,1,55,67684,blockT,180,2022-02-15_12h08.40.047,orientation adjustment block,2021.2.3,Win32,59.17159763,,,,,,,
,,,,,,,,,,,,,,,,,,,,,,70,-53,20,75,115,12,12,0.19907409,-0.305555568,1,0,0,0.0666,submitButton,13.80272109,-0.200925916,-0.415740754,0,0,0,1,3,63,37,1,53,67684,blockT,180,2022-02-15_12h08.40.047,orientation adjustment block,2021.2.3,Win32,59.17159763,,,,,,,
,,,,,,,,,,,,,,,,,,,,,,54.44444444,-18,20,75,-15.55555556,2.444444444,2.444444444,0.387963095,-0.291666678,1,0,0,0.0726,submitButton,13.57555556,-0.169444377,-0.408333347,0,0,0,1,4,64,2,1,18,67684,blockT,180,2022-02-15_12h08.40.047,orientation adjustment block,2021.2.3,Win32,59.17159763,,,,,,,
,,,,,,,,,,,,,,,,,,,,,,50,-64,20,75,-37,27,27,0.207407424,-0.313888901,1,0,0,0.3497,submitButton,13.83877996,-0.213888879,-0.39629631,0,0,0,1,5,65,48,1,64,67684,blockT,180,2022-02-15_12h08.40.047,orientation adjustment block,2021.2.3,Win32,59.17159763,,,,,,,
,,,,,,,,,,,,,,,,,,,,,,66.66666667,-42,20,75,-36.33333333,5.666666667,5.666666667,0.363888908,-0.276851863,1,0,0,0.2282,submitButton,13.68162393,-0.240740731,-0.402777791,0,0,0,1,6,66,26,1,42,67684,blockT,180,2022-02-15_12h08.40.047,orientation adjustment block,2021.2.3,Win32,59.17159763,,,,,,,
,,,,,,,,,,,,,,,,,,,,,,45,-47,20,75,-41,6,6,0.376851871,-0.27314816,1,0,0,0.4504,submitButton,13.53668763,-0.149999989,-0.40000007,0,0,0,1,7,67,31,1,47,67684,blockT,180,2022-02-15_12h08.40.047,orientation adjustment block,2021.2.3,Win32,59.17159763,,,,,,,
,,,,,,,,,,,,,,,,,,,,,,-57.77777778,-21,20,75,-43.77777778,22.77777778,22.77777778,-0.212962953,-0.398148162,1,0,0,1.2614,submitButton,13.70781893,-0.212962953,-0.398148162,0,0,0,1,8,68,5,1,21,67684,blockT,180,2022-02-15_12h08.40.047,orientation adjustment block,2021.2.3,Win32,59.17159763,,,,,,,
,,,,,,,,,,,,,,,,,,,,,,73.33333333,-35,20,75,-37.66666667,2.666666667,2.666666667,0.397222354,-0.285185197,1,0,0,0.0501,submitButton,13.50707071,-0.300925917,-0.401851865,0,0,0,1,9,69,19,1,35,67684,blockT,180,2022-02-15_12h08.40.047,orientation adjustment block,2021.2.3,Win32,59.17159763,,,,,,,
,,,,,,,,,,,,,,,,,,,,,,38.33333333,-51,20,75,-29.66666667,21.33333333,21.33333333,0.375000019,-0.289814827,1,0,0,0.0333,submitButton,13.6468254,-0.124999989,-0.381481551,0,0,0,1,10,70,35,1,51,67684,blockT,180,2022-02-15_12h08.40.047,orientation adjustment block,2021.2.3,Win32,59.17159763,,,,,,,
,,,,,,,,,,,,,,,,,,,,,,42.77777778,-27,20,75,-26.22222222,0.777777778,0.777777778,-0.167592582,-0.402777791,1,0,0,1.3833,submitButton,13.42105263,-0.167592582,-0.402777791,0,0,0,1,11,71,11,1,27,67684,blockT,180,2022-02-15_12h08.40.047,orientation adjustment block,2021.2.3,Win32,59.17159763,,,,,,,
,,,,,,,,,,,,,,,,,,,,,,-58.88888889,-33,20,75,-66.88888889,33.88888889,33.88888889,0.206481498,-0.303703716,1,0,0,0.3772,submitButton,13.77394636,-0.142592581,-0.392592606,0,0,0,1,12,72,17,1,33,67684,blockT,180,2022-02-15_12h08.40.047,orientation adjustment block,2021.2.3,Win32,59.17159763,,,,,,,
,,,,,,,,,,,,,,,,,,,,,,65,-24,20,75,-24,0,0,0.398148167,-0.285185197,1,0,0,0.2495,submitButton,13.54048964,-0.1611111,-0.39166668,0,0,0,1,13,73,8,1,24,67684,blockT,180,2022-02-15_12h08.40.047,orientation adjustment block,2021.2.3,Win32,59.17159763,,,,,,,
,,,,,,,,,,,,,,,,,,,,,,-62.77777778,-45,20,75,-61.77777778,16.77777778,16.77777778,-0.204629619,-0.389814828,1,0,0,1.5513,submitButton,13.59444444,0.327777909,-0.420370384,1,0,0,1,14,74,29,1,45,67684,blockT,180,2022-02-15_12h08.40.047,orientation adjustment block,2021.2.3,Win32,59.17159763,continueButton,,,,,,
,,,,,,,,,,,,,,,,,,,,,,52.77777778,29,20,75,215.7777778,6.777777778,6.777777778,0.202777794,-0.299074086,1,0,0,0.3654,submitButton,13.48269581,-0.237962953,-0.39629631,0,0,0,1,15,75,13,1,29,67684,blockT,180,2022-02-15_12h08.40.047,orientation adjustment block,2021.2.3,Win32,59.17159763,,,,,,,
,,,,,,,,,,,,,,,,,,,,,,-75,-37,20,75,-213,4,4,-0.147222211,-0.39537044,1,0,0,1.911,submitButton,13.3297491,-0.073148136,-0.362963032,0,0,0,1,16,76,21,1,37,67684,blockT,180,2022-02-15_12h08.40.047,orientation adjustment block,2021.2.3,Win32,59.17159763,,,,,,,
,,,,,,,,,,,,,,,,,,,,,,52.77777778,-49,20,75,-35.22222222,13.77777778,13.77777778,0.330555574,-0.277777789,1,0,0,0.2221,submitButton,13.33686067,-0.121296285,-0.392592606,0,0,0,1,17,77,33,1,49,67684,blockT,180,2022-02-15_12h08.40.047,orientation adjustment block,2021.2.3,Win32,59.17159763,,,,,,,
,,,,,,,,,,,,,,,,,,,,,,-60.55555556,-38,20,75,-223.5555556,5.555555556,5.555555556,0.36111113,-0.272222234,1,0,0,0.2842,submitButton,13.21527778,-0.1361111,-0.365740754,0,0,0,1,18,78,22,1,38,67684,blockT,180,2022-02-15_12h08.40.047,orientation adjustment block,2021.2.3,Win32,59.17159763,,,,,,,
,,,,,,,,,,,,,,,,,,,,,,-63.88888889,61,20,75,28.11111111,32.88888889,32.88888889,0.216666683,-0.307407476,1,0,0,0.7833,submitButton,13.51794872,-0.164814748,-0.424074088,0,0,0,1,19,79,45,1,61,67684,blockT,180,2022-02-15_12h08.40.047,orientation adjustment block,2021.2.3,Win32,59.17159763,,,,,,,
,,,,,,,,,,,,,,,,,,,,,,28.33333333,75,20,75,67.33333333,7.666666667,7.666666667,0.373148167,-0.299074086,1,0,0,0.3607,submitButton,13.42929293,-0.249074065,-0.4046297,0,0,0,1,20,80,59,1,75,67684,blockT,180,2022-02-15_12h08.40.047,orientation adjustment block,2021.2.3,Win32,59.17159763,,,,,,,
,,,,,,,,,,,,,,,,,,,,,,-36.11111111,39,20,75,-120.1111111,20.88888889,20.88888889,0.375000019,-0.272222234,1,0,0,0.3289,submitButton,13.54063018,0.262037054,-0.289814827,0,0,0,1,21,81,23,1,39,67684,blockT,180,2022-02-15_12h08.40.047,orientation adjustment block,2021.2.3,Win32,59.17159763,,,,,,,
,,,,,,,,,,,,,,,,,,,,,,53.88888889,-74,20,75,-45.11111111,28.88888889,28.88888889,0.403703723,-0.284259327,1,0,0,0.161,submitButton,13.76633987,-0.237037027,-0.412962977,0,0,0,1,22,82,58,1,74,67684,blockT,180,2022-02-15_12h08.40.047,orientation adjustment block,2021.2.3,Win32,59.17159763,,,,,,,
,,,,,,,,,,,,,,,,,,,,,,39.44444444,-31,20,75,-35.55555556,4.555555556,4.555555556,-0.082407395,-0.38703705,1,0,0,1.5785,submitButton,13.63285024,-0.142592581,-0.398148162,0,0,0,1,23,83,15,1,31,67684,blockT,180,2022-02-15_12h08.40.047,orientation adjustment block,2021.2.3,Win32,59.17159763,,,,,,,
,,,,,,,,,,,,,,,,,,,,,,-24.44444444,54,20,75,42.55555556,11.44444444,11.44444444,0.230555572,-0.295370382,1,0,0,0.4,submitButton,13.6015873,-0.125925915,-0.387962976,0,0,0,1,24,84,38,1,54,67684,blockT,180,2022-02-15_12h08.40.047,orientation adjustment block,2021.2.3,Win32,59.17159763,,,,,,,
,,,,,,,,,,,,,,,,,,,,,,-35.55555556,-28,20,75,-42.55555556,14.55555556,14.55555556,0.212037053,-0.279629698,1,0,0,0.1452,submitButton,13.61502347,-0.04722221,-0.346296309,0,0,0,1,25,85,12,1,28,67684,blockT,180,2022-02-15_12h08.40.047,orientation adjustment block,2021.2.3,Win32,59.17159763,,,,,,,
,,,,,,,,,,,,,,,,,,,,,,38.88888889,65,20,75,63.88888889,1.111111111,1.111111111,0.398148167,-0.313888901,1,0,0,0.2446,submitButton,13.44135802,-0.157407397,-0.389814828,0,0,0,1,26,86,49,1,65,67684,blockT,180,2022-02-15_12h08.40.047,orientation adjustment block,2021.2.3,Win32,59.17159763,,,,,,,
,,,,,,,,,,,,,,,,,,,,,,-24.44444444,16,20,75,20.55555556,4.555555556,4.555555556,0.362962982,-0.295370382,1,0,0,0.1673,submitButton,13.3196347,-0.137962952,-0.392592606,0,0,0,1,27,87,0,1,16,67684,blockT,180,2022-02-15_12h08.40.047,orientation adjustment block,2021.2.3,Win32,59.17159763,,,,,,,
,,,,,,,,,,,,,,,,,,,,,,-62.77777778,68,20,75,31.22222222,36.77777778,36.77777778,0.20370372,-0.293518587,1,0,0,0.2336,submitButton,13.63663664,-0.172222212,-0.388888902,0,0,0,1,28,88,52,1,68,67684,blockT,180,2022-02-15_12h08.40.047,orientation adjustment block,2021.2.3,Win32,59.17159763,,,,,,,
,,,,,,,,,,,,,,,,,,,,,,-47.22222222,26,20,75,28.77777778,2.777777778,2.777777778,0.248148165,-0.294444456,1,0,0,0.9109,submitButton,13.49185185,0.387963095,-0.412037051,1,0,0,1,29,89,10,1,26,67684,blockT,180,2022-02-15_12h08.40.047,orientation adjustment block,2021.2.3,Win32,59.17159763,continueButton,,,,,,
,,,,,,,,,,,,,,,,,,,,,,-39.44444444,70,20,75,57.55555556,12.44444444,12.44444444,-0.191666656,-0.379629643,1,0,0,1.2776,submitButton,13.47807018,0.002777791,-0.373148161,0,0,0,1,30,90,54,1,70,67684,blockT,180,2022-02-15_12h08.40.047,orientation adjustment block,2021.2.3,Win32,59.17159763,,,,,,,
,,,,,,,,,,,,,,,,,,,,,,33.33333333,-71,20,75,-57.66666667,13.33333333,13.33333333,-0.199074064,-0.39629631,1,0,0,0.9347,submitButton,13.47619048,-0.199074064,-0.39629631,0,0,0,1,31,91,55,1,71,67684,blockT,180,2022-02-15_12h08.40.047,orientation adjustment block,2021.2.3,Win32,59.17159763,,,,,,,
,,,,,,,,,,,,,,,,,,,,,,71.11111111,72,20,75,221.1111111,30.88888889,30.88888889,-0.134259248,-0.406481495,1,0,0,1.6445,submitButton,13.6994302,0.140740756,-0.192592603,0,0,0,1,32,92,56,1,72,67684,blockT,180,2022-02-15_12h08.40.047,orientation adjustment block,2021.2.3,Win32,59.17159763,,,,,,,
,,,,,,,,,,,,,,,,,,,,,,22.77777778,23,20,75,32.77777778,9.777777778,9.777777778,-0.182407397,-0.403703717,1,0,0,1.0557,submitButton,13.64978903,0.171296312,-0.2638889,0,0,0,1,33,93,7,1,23,67684,blockT,180,2022-02-15_12h08.40.047,orientation adjustment block,2021.2.3,Win32,59.17159763,,,,,,,
,,,,,,,,,,,,,,,,,,,,,,-31.11111111,20,20,75,24.88888889,4.888888889,4.888888889,-0.184259249,-0.398148162,1,0,0,1.0608,submitButton,13.54027778,-0.160185118,-0.38703705,0,0,0,1,34,94,4,1,20,67684,blockT,180,2022-02-15_12h08.40.047,orientation adjustment block,2021.2.3,Win32,59.17159763,,,,,,,
,,,,,,,,,,,,,,,,,,,,,,-26.11111111,60,20,75,60.88888889,0.888888889,0.888888889,0.210185202,-0.313888901,1,0,0,0.5285,submitButton,13.38408779,-0.050925913,-0.180555566,0,0,0,1,35,95,44,1,60,67684,blockT,180,2022-02-15_12h08.40.047,orientation adjustment block,2021.2.3,Win32,59.17159763,,,,,,,
,,,,,,,,,,,,,,,,,,,,,,-51.11111111,-25,20,75,-48.11111111,23.11111111,23.11111111,0.226851868,-0.292592604,1,0,0,0.0835,submitButton,13.50271003,-0.144444433,-0.393518532,0,0,0,1,36,96,9,1,25,67684,blockT,180,2022-02-15_12h08.40.047,orientation adjustment block,2021.2.3,Win32,59.17159763,,,,,,,
,,,,,,,,,,,,,,,,,,,,,,-23.33333333,41,20,75,30.66666667,10.33333333,10.33333333,0.146296312,-0.298148217,1,0,0,0.4115,submitButton,13.46452477,-0.162962952,-0.379629643,0,0,0,1,37,97,25,1,41,67684,blockT,180,2022-02-15_12h08.40.047,orientation adjustment block,2021.2.3,Win32,59.17159763,,,,,,,
,,,,,,,,,,,,,,,,,,,,,,-67.77777778,73,20,75,41.22222222,31.77777778,31.77777778,-0.155555488,-0.405555569,1,0,0,1.3947,submitButton,13.68253968,-0.155555488,-0.405555569,0,0,0,1,38,98,57,1,73,67684,blockT,180,2022-02-15_12h08.40.047,orientation adjustment block,2021.2.3,Win32,59.17159763,,,,,,,
,,,,,,,,,,,,,,,,,,,,,,51.11111111,46,20,75,214.1111111,11.88888889,11.88888889,0.197222238,-0.309259271,1,0,0,0.0168,submitButton,13.66143791,-0.211111044,-0.413888959,0,0,0,1,39,99,30,1,46,67684,blockT,180,2022-02-15_12h08.40.047,orientation adjustment block,2021.2.3,Win32,59.17159763,,,,,,,
,,,,,,,,,,,,,,,,,,,,,,39.44444444,-40,20,75,-29.55555556,10.44444444,10.44444444,-0.146296229,-0.417592606,1,0,0,1.2171,submitButton,13.62403101,-0.146296229,-0.417592606,0,0,0,1,40,100,24,1,40,67684,blockT,180,2022-02-15_12h08.40.047,orientation adjustment block,2021.2.3,Win32,59.17159763,,,,,,,
,,,,,,,,,,,,,,,,,,,,,,26.66666667,22,20,75,32.66666667,10.66666667,10.66666667,0.396296315,-0.303703716,1,0,0,0.3781,submitButton,13.59003831,0.122222237,-0.231481492,0,0,0,1,41,101,6,1,22,67684,blockT,180,2022-02-15_12h08.40.047,orientation adjustment block,2021.2.3,Win32,59.17159763,,,,,,,
,,,,,,,,,,,,,,,,,,,,,,56.11111111,30,20,75,49.11111111,19.11111111,19.11111111,0.413888908,-0.289814827,1,0,0,0.1338,submitButton,13.65277778,-0.186111101,-0.417592606,0,0,0,1,42,102,14,1,30,67684,blockT,180,2022-02-15_12h08.40.047,orientation adjustment block,2021.2.3,Win32,59.17159763,,,,,,,
,,,,,,,,,,,,,,,,,,,,,,55.55555556,58,20,75,201.5555556,36.44444444,36.44444444,0.175925942,-0.307407476,1,0,0,0.0166,submitButton,13.90886392,-0.1361111,-0.40000007,0,0,0,1,43,103,42,1,58,67684,blockT,180,2022-02-15_12h08.40.047,orientation adjustment block,2021.2.3,Win32,59.17159763,,,,,,,
,,,,,,,,,,,,,,,,,,,,,,28.88888889,48,20,75,46.88888889,1.111111111,1.111111111,0.394444464,-0.277777789,1,0,0,0.6838,submitButton,13.76666667,0.306481499,-0.393518532,1,0,0,1,44,104,32,1,48,67684,blockT,180,2022-02-15_12h08.40.047,orientation adjustment block,2021.2.3,Win32,59.17159763,continueButton,,,,,,
,,,,,,,,,,,,,,,,,,,,,,52.22222222,34,20,75,64.22222222,30.22222222,30.22222222,0.371296315,-0.302777846,1,0,0,0.6059,submitButton,13.94749695,-0.166666656,-0.393518532,0,0,0,1,45,105,18,1,34,67684,blockT,180,2022-02-15_12h08.40.047,orientation adjustment block,2021.2.3,Win32,59.17159763,,,,,,,
,,,,,,,,,,,,,,,,,,,,,,-72.22222222,36,20,75,31.77777778,4.222222222,4.222222222,-0.192592526,-0.41666668,1,0,0,1.9004,submitButton,13.84178744,-0.192592526,-0.41666668,0,0,0,1,46,106,20,1,36,67684,blockT,180,2022-02-15_12h08.40.047,orientation adjustment block,2021.2.3,Win32,59.17159763,,,,,,,
,,,,,,,,,,,,,,,,,,,,,,21.66666667,59,20,75,53.66666667,5.333333333,5.333333333,0.407407427,-0.276851863,1,0,0,0.2175,submitButton,13.75029869,-0.149999989,-0.39537044,0,0,0,1,47,107,43,1,59,67684,blockT,180,2022-02-15_12h08.40.047,orientation adjustment block,2021.2.3,Win32,59.17159763,,,,,,,
,,,,,,,,,,,,,,,,,,,,,,-53.88888889,-32,20,75,-41.88888889,9.888888889,9.888888889,-0.152777767,-0.385185198,1,0,0,2.328,submitButton,13.70921986,-0.152777767,-0.385185198,0,0,0,1,48,108,16,1,32,67684,blockT,180,2022-02-15_12h08.40.047,orientation adjustment block,2021.2.3,Win32,59.17159763,,,,,,,
,,,,,,,,,,,,,,,,,,,,,,-51.66666667,-43,20,75,-50.66666667,7.666666667,7.666666667,-0.151851841,-0.410185199,1,0,0,1.6114,submitButton,13.64561404,-0.151851841,-0.410185199,0,0,0,1,49,109,27,1,43,67684,blockT,180,2022-02-15_12h08.40.047,orientation adjustment block,2021.2.3,Win32,59.17159763,,,,,,,
,,,,,,,,,,,,,,,,,,,,,,-51.11111111,63,20,75,46.88888889,16.11111111,16.11111111,-0.160185118,-0.387962976,1,0,0,1.272,submitButton,13.6712963,-0.160185118,-0.387962976,0,0,0,1,50,110,47,1,63,67684,blockT,180,2022-02-15_12h08.40.047,orientation adjustment block,2021.2.3,Win32,59.17159763,,,,,,,
,,,,,,,,,,,,,,,,,,,,,,-20.55555556,19,20,75,19.44444444,0.444444444,0.444444444,-0.250925916,-0.420370384,1,0,0,0.9839,submitButton,13.534937,-0.250925916,-0.420370384,0,0,0,1,51,111,3,1,19,67684,blockT,180,2022-02-15_12h08.40.047,orientation adjustment block,2021.2.3,Win32,59.17159763,,,,,,,
,,,,,,,,,,,,,,,,,,,,,,-61.11111111,69,20,75,34.88888889,34.11111111,34.11111111,-0.19999999,-0.39166668,1,0,0,1.0618,submitButton,13.74489796,-0.19999999,-0.39166668,0,0,0,1,52,112,53,1,69,67684,blockT,180,2022-02-15_12h08.40.047,orientation adjustment block,2021.2.3,Win32,59.17159763,,,,,,,
,,,,,,,,,,,,,,,,,,,,,,-33.88888889,44,20,75,30.11111111,13.88888889,13.88888889,-0.221296286,-0.411111125,1,0,0,0.8114,submitButton,13.74635241,-0.221296286,-0.411111125,0,0,0,1,53,113,28,1,44,67684,blockT,180,2022-02-15_12h08.40.047,orientation adjustment block,2021.2.3,Win32,59.17159763,,,,,,,
,,,,,,,,,,,,,,,,,,,,,,31.11111111,56,20,75,55.11111111,0.888888889,0.888888889,0.389814834,-0.300000012,1,0,0,0.2843,submitButton,13.61777778,-0.144444433,-0.412037051,0,0,0,1,54,114,40,1,56,67684,blockT,180,2022-02-15_12h08.40.047,orientation adjustment block,2021.2.3,Win32,59.17159763,,,,,,,
,,,,,,,,,,,,,,,,,,,,,,51.11111111,-66,20,75,-49.88888889,16.11111111,16.11111111,0.39537039,-0.300000012,1,0,0,0.0167,submitButton,13.64246425,-0.149074063,-0.399074087,0,0,0,1,55,115,50,1,66,67684,blockT,180,2022-02-15_12h08.40.047,orientation adjustment block,2021.2.3,Win32,59.17159763,,,,,,,
,,,,,,,,,,,,,,,,,,,,,,-40,-52,20,75,-63,11,11,-0.120370359,-0.405555569,1,0,0,1.1667,submitButton,13.61655773,-0.120370359,-0.405555569,0,0,0,1,56,116,36,1,52,67684,blockT,180,2022-02-15_12h08.40.047,orientation adjustment block,2021.2.3,Win32,59.17159763,,,,,,,
,,,,,,,,,,,,,,,,,,,,,,-34.44444444,50,20,75,28.55555556,21.44444444,21.44444444,0.198148164,-0.297222234,1,0,0,0.1946,submitButton,13.69255663,-0.14074073,-0.386111181,0,0,0,1,57,117,34,1,50,67684,blockT,180,2022-02-15_12h08.40.047,orientation adjustment block,2021.2.3,Win32,59.17159763,,,,,,,
,,,,,,,,,,,,,,,,,,,,,,-68.33333333,-17,20,75,-48.33333333,31.33333333,31.33333333,0.220370387,-0.295370382,1,0,0,0.3493,submitButton,13.86217949,-0.200925916,-0.378703717,0,0,0,1,58,118,1,1,17,67684,blockT,180,2022-02-15_12h08.40.047,orientation adjustment block,2021.2.3,Win32,59.17159763,,,,,,,
,,,,,,,,,,,,,,,,,,,,,,-22.77777778,-57,20,75,-45.77777778,11.22222222,11.22222222,-0.219444434,-0.426851866,1,0,0,1.0118,submitButton,13.83703704,0.269444462,-0.393518532,1,0,0,1,59,119,41,1,57,67684,blockT,180,2022-02-15_12h08.40.047,orientation adjustment block,2021.2.3,Win32,59.17159763,continueButton,,,,,,
,,,,,,,,,,,,,,,,,,,,,,62.22222222,74,20,75,218.2222222,35.77777778,35.77777778,0.193518535,-0.284259327,1,0,0,1.1283,submitButton,14.04402516,-0.086111043,-0.335185254,0,0,0,2,0,120,58,1,74,67684,blockT,180,2022-02-15_12h08.40.047,orientation adjustment block,2021.2.3,Win32,59.17159763,,,,,,,
,,,,,,,,,,,,,,,,,,,,,,-52.22222222,-34,20,75,-52.22222222,18.22222222,18.22222222,-0.194444434,-0.411111125,1,0,0,1.377,submitButton,14.08307373,-0.194444434,-0.411111125,0,0,0,2,1,121,18,1,34,67684,blockT,180,2022-02-15_12h08.40.047,orientation adjustment block,2021.2.3,Win32,59.17159763,,,,,,,
,,,,,,,,,,,,,,,,,,,,,,-67.22222222,36,20,75,34.77777778,1.222222222,1.222222222,-0.153703693,-0.39537044,1,0,0,1.4278,submitButton,13.96399177,-0.153703693,-0.39537044,0,0,0,2,2,122,20,1,36,67684,blockT,180,2022-02-15_12h08.40.047,orientation adjustment block,2021.2.3,Win32,59.17159763,,,,,,,
,,,,,,,,,,,,,,,,,,,,,,-45.55555556,-30,20,75,-40.55555556,10.55555556,10.55555556,0.181481497,-0.300000012,1,0,0,0.1387,submitButton,13.93272171,-0.174999989,-0.4046297,0,0,0,2,3,123,14,1,30,67684,blockT,180,2022-02-15_12h08.40.047,orientation adjustment block,2021.2.3,Win32,59.17159763,,,,,,,
,,,,,,,,,,,,,,,,,,,,,,27.22222222,70,20,75,219.2222222,30.77777778,30.77777778,0.195370387,-0.26851853,1,0,0,0.6006,submitButton,14.08585859,-0.178703637,-0.39166668,0,0,0,2,4,124,54,1,70,67684,blockT,180,2022-02-15_12h08.40.047,orientation adjustment block,2021.2.3,Win32,59.17159763,,,,,,,
,,,,,,,,,,,,,,,,,,,,,,-38.88888889,37,20,75,34.11111111,2.888888889,2.888888889,-0.142592581,-0.402777791,1,0,0,1.3278,submitButton,13.98498498,-0.142592581,-0.402777791,0,0,0,2,5,125,21,1,37,67684,blockT,180,2022-02-15_12h08.40.047,orientation adjustment block,2021.2.3,Win32,59.17159763,,,,,,,
,,,,,,,,,,,,,,,,,,,,,,-30.55555556,67,20,75,67.44444444,0.444444444,0.444444444,0.191666683,-0.292592604,1,0,0,0.2334,submitButton,13.8640873,-0.13148147,-0.374074087,0,0,0,2,6,126,51,1,67,67684,blockT,180,2022-02-15_12h08.40.047,orientation adjustment block,2021.2.3,Win32,59.17159763,,,,,,,
,,,,,,,,,,,,,,,,,,,,,,32.77777778,-46,20,75,-34.22222222,11.77777778,11.77777778,0.393518538,-0.26851853,1,0,0,0.1335,submitButton,13.84562439,-0.176851841,-0.411111125,0,0,0,2,7,127,30,1,46,67684,blockT,180,2022-02-15_12h08.40.047,orientation adjustment block,2021.2.3,Win32,59.17159763,,,,,,,
,,,,,,,,,,,,,,,,,,,,,,38.33333333,16,20,75,41.33333333,25.33333333,25.33333333,0.363888908,-0.308333345,1,0,0,0.0834,submitButton,13.94639376,-0.1361111,-0.408333347,0,0,0,2,8,128,0,1,16,67684,blockT,180,2022-02-15_12h08.40.047,orientation adjustment block,2021.2.3,Win32,59.17159763,,,,,,,
,,,,,,,,,,,,,,,,,,,,,,-53.88888889,-24,20,75,-43.88888889,19.88888889,19.88888889,0.188888905,-0.296296308,1,0,0,0.0335,submitButton,13.99806763,-0.197222155,-0.401851865,0,0,0,2,9,129,8,1,24,67684,blockT,180,2022-02-15_12h08.40.047,orientation adjustment block,2021.2.3,Win32,59.17159763,,,,,,,
,,,,,,,,,,,,,,,,,,,,,,24.44444444,61,20,75,52.44444444,8.555555556,8.555555556,0.3564815,-0.289814827,1,0,0,0.3105,submitButton,13.95114943,-0.173148137,-0.412037051,0,0,0,2,10,130,45,1,61,67684,blockT,180,2022-02-15_12h08.40.047,orientation adjustment block,2021.2.3,Win32,59.17159763,,,,,,,
,,,,,,,,,,,,,,,,,,,,,,-34.44444444,-22,20,75,-28.44444444,6.444444444,6.444444444,0.335185203,-0.307407476,1,0,0,1.2005,submitButton,13.88698955,-0.151851841,-0.425000014,0,0,0,2,11,131,6,1,22,67684,blockT,180,2022-02-15_12h08.40.047,orientation adjustment block,2021.2.3,Win32,59.17159763,,,,,,,
,,,,,,,,,,,,,,,,,,,,,,31.11111111,-42,20,75,-30.88888889,11.11111111,11.11111111,0.38611113,-0.312037106,1,0,0,0.1225,submitButton,13.86346516,-0.156481471,-0.402777791,0,0,0,2,12,132,26,1,42,67684,blockT,180,2022-02-15_12h08.40.047,orientation adjustment block,2021.2.3,Win32,59.17159763,,,,,,,
,,,,,,,,,,,,,,,,,,,,,,-45,18,20,75,17,1,1,0.225925943,-0.325925995,1,0,0,0.0222,submitButton,13.75536881,-0.265740731,-0.409259329,0,0,0,2,13,133,2,1,18,67684,blockT,180,2022-02-15_12h08.40.047,orientation adjustment block,2021.2.3,Win32,59.17159763,,,,,,,
,,,,,,,,,,,,,,,,,,,,,,-37.22222222,69,20,75,53.77777778,15.22222222,15.22222222,-0.183333266,-0.379629643,1,0,0,1.0842,submitButton,13.76759259,0.349074093,-0.397222236,1,0,0,2,14,134,53,1,69,67684,blockT,180,2022-02-15_12h08.40.047,orientation adjustment block,2021.2.3,Win32,59.17159763,continueButton,,,,,,
,,,,,,,,,,,,,,,,,,,,,,60.55555556,-41,20,75,-40.44444444,0.555555556,0.555555556,0.378703836,-0.293518587,1,0,0,0.1618,submitButton,13.6584022,-0.225925916,-0.375000013,0,0,0,2,15,135,25,1,41,67684,blockT,180,2022-02-15_12h08.40.047,orientation adjustment block,2021.2.3,Win32,59.17159763,,,,,,,
,,,,,,,,,,,,,,,,,,,,,,48.33333333,25,20,75,52.33333333,27.33333333,27.33333333,0.371296315,-0.294444456,1,0,0,0.3173,submitButton,13.7704918,-0.228703694,-0.413888959,0,0,0,2,16,136,9,1,25,67684,blockT,180,2022-02-15_12h08.40.047,orientation adjustment block,2021.2.3,Win32,59.17159763,,,,,,,
,,,,,,,,,,,,,,,,,,,,,,29.44444444,-38,20,75,-36.55555556,1.444444444,1.444444444,0.374074206,-0.305555568,1,0,0,0.1398,submitButton,13.67028004,-0.211111044,-0.406481495,0,0,0,2,17,137,22,1,38,67684,blockT,180,2022-02-15_12h08.40.047,orientation adjustment block,2021.2.3,Win32,59.17159763,,,,,,,
,,,,,,,,,,,,,,,,,,,,,,21.66666667,-45,20,75,-35.33333333,9.666666667,9.666666667,-0.191666656,-0.39537044,1,0,0,0.8446,submitButton,13.63799283,-0.191666656,-0.39537044,0,0,0,2,18,138,29,1,45,67684,blockT,180,2022-02-15_12h08.40.047,orientation adjustment block,2021.2.3,Win32,59.17159763,,,,,,,
,,,,,,,,,,,,,,,,,,,,,,-59.44444444,71,20,75,38.55555556,32.44444444,32.44444444,-0.212962953,-0.382407421,1,0,0,1.0618,submitButton,13.78844444,-0.212962953,-0.382407421,0,0,0,2,19,139,55,1,71,67684,blockT,180,2022-02-15_12h08.40.047,orientation adjustment block,2021.2.3,Win32,59.17159763,,,,,,,
,,,,,,,,,,,,,,,,,,,,,,-52.77777778,53,20,75,35.22222222,17.77777778,17.77777778,-0.121296285,-0.399074087,1,0,0,1.2279,submitButton,13.82010582,-0.121296285,-0.399074087,0,0,0,2,20,140,37,1,53,67684,blockT,180,2022-02-15_12h08.40.047,orientation adjustment block,2021.2.3,Win32,59.17159763,,,,,,,
,,,,,,,,,,,,,,,,,,,,,,53.88888889,52,20,75,56.88888889,4.888888889,4.888888889,0.416666686,-0.279629698,1,0,0,0.0663,submitButton,13.74978128,-0.24999999,-0.403703717,0,0,0,2,21,141,36,1,52,67684,blockT,180,2022-02-15_12h08.40.047,orientation adjustment block,2021.2.3,Win32,59.17159763,,,,,,,
,,,,,,,,,,,,,,,,,,,,,,-20.55555556,-40,20,75,-47.55555556,7.555555556,7.555555556,0.182407423,-0.304629642,1,0,0,0.3603,submitButton,13.70138889,-0.148148137,-0.411111125,0,0,0,2,22,142,24,1,40,67684,blockT,180,2022-02-15_12h08.40.047,orientation adjustment block,2021.2.3,Win32,59.17159763,,,,,,,
,,,,,,,,,,,,,,,,,,,,,,-72.77777778,-57,20,75,-206.7777778,30.22222222,30.22222222,0.450925946,-0.285185197,1,0,0,0.0501,submitButton,13.82945736,-0.202777768,-0.379629643,0,0,0,2,23,143,41,1,57,67684,blockT,180,2022-02-15_12h08.40.047,orientation adjustment block,2021.2.3,Win32,59.17159763,,,,,,,
,,,,,,,,,,,,,,,,,,,,,,-37.22222222,49,20,75,33.77777778,15.22222222,15.22222222,-0.216666657,-0.399074087,1,0,0,1.1615,submitButton,13.84017094,-0.216666657,-0.399074087,0,0,0,2,24,144,33,1,49,67684,blockT,180,2022-02-15_12h08.40.047,orientation adjustment block,2021.2.3,Win32,59.17159763,,,,,,,
,,,,,,,,,,,,,,,,,,,,,,-61.11111111,-28,20,75,-53.11111111,25.11111111,25.11111111,-0.135185174,-0.380555569,1,0,0,1.5498,submitButton,13.92620865,-0.135185174,-0.380555569,0,0,0,2,25,145,12,1,28,67684,blockT,180,2022-02-15_12h08.40.047,orientation adjustment block,2021.2.3,Win32,59.17159763,,,,,,,
,,,,,,,,,,,,,,,,,,,,,,25,-64,20,75,-39,25,25,-0.262962954,-0.39166668,1,0,0,0.9114,submitButton,14.01010101,-0.262962954,-0.39166668,0,0,0,2,26,146,48,1,64,67684,blockT,180,2022-02-15_12h08.40.047,orientation adjustment block,2021.2.3,Win32,59.17159763,,,,,,,
,,,,,,,,,,,,,,,,,,,,,,63.33333333,23,20,75,59.33333333,36.33333333,36.33333333,0.379629649,-0.307407476,1,0,0,0.3616,submitButton,14.17794486,-0.209259249,-0.394444458,0,0,0,2,27,147,7,1,23,67684,blockT,180,2022-02-15_12h08.40.047,orientation adjustment block,2021.2.3,Win32,59.17159763,,,,,,,
,,,,,,,,,,,,,,,,,,,,,,54.44444444,-55,20,75,-20.55555556,34.44444444,34.44444444,0.387963095,-0.298148217,1,0,0,0.445,submitButton,14.3291874,-0.237962953,-0.405555569,0,0,0,2,28,148,39,1,55,67684,blockT,180,2022-02-15_12h08.40.047,orientation adjustment block,2021.2.3,Win32,59.17159763,,,,,,,
,,,,,,,,,,,,,,,,,,,,,,-27.77777778,-19,20,75,-34.77777778,15.77777778,15.77777778,-0.231481472,-0.4046297,1,0,0,0.895,submitButton,14.3399177,0.295370388,-0.381481551,1,0,0,2,29,149,3,1,19,67684,blockT,180,2022-02-15_12h08.40.047,orientation adjustment block,2021.2.3,Win32,59.17159763,continueButton,,,,,,
,,,,,,,,,,,,,,,,,,,,,,-33.33333333,-32,20,75,-45.33333333,13.33333333,13.33333333,-0.163888878,-0.39537044,1,0,0,0.9609,submitButton,14.33251634,-0.163888878,-0.39537044,0,0,0,2,30,150,16,1,32,67684,blockT,180,2022-02-15_12h08.40.047,orientation adjustment block,2021.2.3,Win32,59.17159763,,,,,,,
,,,,,,,,,,,,,,,,,,,,,,-70.55555556,60,20,75,32.44444444,27.55555556,27.55555556,-0.162037026,-0.399074087,1,0,0,1.2505,submitButton,14.42903487,-0.162037026,-0.399074087,0,0,0,2,31,151,44,1,60,67684,blockT,180,2022-02-15_12h08.40.047,orientation adjustment block,2021.2.3,Win32,59.17159763,,,,,,,
,,,,,,,,,,,,,,,,,,,,,,33.33333333,20,20,75,27.33333333,7.333333333,7.333333333,0.422222242,-0.260185197,1,0,0,0.568,submitButton,14.37761675,-0.137962952,-0.40000007,0,0,0,2,32,152,4,1,20,67684,blockT,180,2022-02-15_12h08.40.047,orientation adjustment block,2021.2.3,Win32,59.17159763,,,,,,,
,,,,,,,,,,,,,,,,,,,,,,25,-47,20,75,-38,9,9,0.401851984,-0.299074086,1,0,0,0.8945,submitButton,14.33892886,-0.188888878,-0.415740754,0,0,0,2,33,153,31,1,47,67684,blockT,180,2022-02-15_12h08.40.047,orientation adjustment block,2021.2.3,Win32,59.17159763,,,,,,,
,,,,,,,,,,,,,,,,,,,,,,57.22222222,62,20,75,223.2222222,18.77777778,18.77777778,-0.137962952,-0.4046297,1,0,0,2.4112,submitButton,14.37063492,-0.137962952,-0.4046297,0,0,0,2,34,154,46,1,62,67684,blockT,180,2022-02-15_12h08.40.047,orientation adjustment block,2021.2.3,Win32,59.17159763,,,,,,,
,,,,,,,,,,,,,,,,,,,,,,42.22222222,-21,20,75,-29.77777778,8.777777778,8.777777778,0.370370389,-0.259259271,1,0,0,0.5061,submitButton,14.33096927,-0.099999932,-0.397222236,0,0,0,2,35,155,5,1,21,67684,blockT,180,2022-02-15_12h08.40.047,orientation adjustment block,2021.2.3,Win32,59.17159763,,,,,,,
,,,,,,,,,,,,,,,,,,,,,,-37.77777778,43,20,75,26.22222222,16.77777778,16.77777778,-0.234259193,-0.375000013,1,0,0,1.0897,submitButton,14.34820031,-0.234259193,-0.375000013,0,0,0,2,36,156,27,1,43,67684,blockT,180,2022-02-15_12h08.40.047,orientation adjustment block,2021.2.3,Win32,59.17159763,,,,,,,
,,,,,,,,,,,,,,,,,,,,,,-38.88888889,-59,20,75,-59.88888889,0.888888889,0.888888889,0.175925942,-0.303703716,1,0,0,0.1841,submitButton,14.25407925,-0.144444433,-0.399074087,0,0,0,2,37,157,43,1,59,67684,blockT,180,2022-02-15_12h08.40.047,orientation adjustment block,2021.2.3,Win32,59.17159763,,,,,,,
,,,,,,,,,,,,,,,,,,,,,,-30,-26,20,75,-28,2,2,-0.205555545,-0.408333347,1,0,0,1.1167,submitButton,14.16898148,-0.205555545,-0.408333347,0,0,0,2,38,158,10,1,26,67684,blockT,180,2022-02-15_12h08.40.047,orientation adjustment block,2021.2.3,Win32,59.17159763,,,,,,,
,,,,,,,,,,,,,,,,,,,,,,66.11111111,-50,20,75,-28.88888889,21.11111111,21.11111111,0.393518538,-0.289814827,1,0,0,0.8449,submitButton,14.21685824,-0.249074065,-0.414814828,0,0,0,2,39,159,34,1,50,67684,blockT,180,2022-02-15_12h08.40.047,orientation adjustment block,2021.2.3,Win32,59.17159763,,,,,,,
,,,,,,,,,,,,,,,,,,,,,,68.88888889,73,20,75,211.8888889,41.11111111,41.11111111,0.191666683,-0.301851864,1,0,0,0.2783,submitButton,14.40106545,-0.189814804,-0.406481495,0,0,0,2,40,160,57,1,73,67684,blockT,180,2022-02-15_12h08.40.047,orientation adjustment block,2021.2.3,Win32,59.17159763,,,,,,,
,,,,,,,,,,,,,,,,,,,,,,-23.33333333,35,20,75,41.66666667,6.666666667,6.666666667,-0.205555545,-0.408333347,1,0,0,1.0159,submitButton,14.34845049,-0.205555545,-0.408333347,0,0,0,2,41,161,19,1,35,67684,blockT,180,2022-02-15_12h08.40.047,orientation adjustment block,2021.2.3,Win32,59.17159763,,,,,,,
,,,,,,,,,,,,,,,,,,,,,,-72.77777778,-17,20,75,-37.77777778,20.77777778,20.77777778,0.210185202,-0.304629642,1,0,0,0.1065,submitButton,14.39189189,-0.205555545,-0.414814828,0,0,0,2,42,162,1,1,17,67684,blockT,180,2022-02-15_12h08.40.047,orientation adjustment block,2021.2.3,Win32,59.17159763,,,,,,,
,,,,,,,,,,,,,,,,,,,,,,-35,48,20,75,32,16,16,0.210185202,-0.296296308,1,0,0,0.823,submitButton,14.40268456,-0.119444433,-0.407407421,0,0,0,2,43,163,32,1,48,67684,blockT,180,2022-02-15_12h08.40.047,orientation adjustment block,2021.2.3,Win32,59.17159763,,,,,,,
,,,,,,,,,,,,,,,,,,,,,,66.66666667,51,20,75,62.66666667,11.66666667,11.66666667,0.401851984,-0.281481493,1,0,0,0.1951,submitButton,14.38444444,0.26296298,-0.38703705,1,0,0,2,44,164,35,1,51,67684,blockT,180,2022-02-15_12h08.40.047,orientation adjustment block,2021.2.3,Win32,59.17159763,continueButton,,,,,,
,,,,,,,,,,,,,,,,,,,,,,-34.44444444,27,20,75,27.55555556,0.555555556,0.555555556,-0.211111044,-0.428703718,1,0,0,1.1447,submitButton,14.2928624,-0.185185175,-0.398148162,0,0,0,2,45,165,11,1,27,67684,blockT,180,2022-02-15_12h08.40.047,orientation adjustment block,2021.2.3,Win32,59.17159763,,,,,,,
,,,,,,,,,,,,,,,,,,,,,,-72.22222222,33,20,75,28.77777778,4.222222222,4.222222222,-0.16574073,-0.414814828,1,0,0,1.544,submitButton,14.22660819,-0.16574073,-0.414814828,0,0,0,2,46,166,17,1,33,67684,blockT,180,2022-02-15_12h08.40.047,orientation adjustment block,2021.2.3,Win32,59.17159763,,,,,,,
,,,,,,,,,,,,,,,,,,,,,,-36.11111111,44,20,75,46.88888889,2.888888889,2.888888889,0.187962979,-0.306481493,1,0,0,0.4338,submitButton,14.15250545,-0.178703637,-0.407407421,0,0,0,2,47,167,28,1,44,67684,blockT,180,2022-02-15_12h08.40.047,orientation adjustment block,2021.2.3,Win32,59.17159763,,,,,,,
,,,,,,,,,,,,,,,,,,,,,,-74.44444444,29,20,75,19.55555556,9.444444444,9.444444444,-0.144444433,-0.415740754,1,0,0,1.7271,submitButton,14.12193362,-0.144444433,-0.415740754,0,0,0,2,48,168,13,1,29,67684,blockT,180,2022-02-15_12h08.40.047,orientation adjustment block,2021.2.3,Win32,59.17159763,,,,,,,
,,,,,,,,,,,,,,,,,,,,,,-35,58,20,75,43,15,15,-0.17037036,-0.385185198,1,0,0,1.1946,submitButton,14.12759857,-0.17037036,-0.385185198,0,0,0,2,49,169,42,1,58,67684,blockT,180,2022-02-15_12h08.40.047,orientation adjustment block,2021.2.3,Win32,59.17159763,,,,,,,
,,,,,,,,,,,,,,,,,,,,,,31.11111111,54,20,75,61.11111111,7.111111111,7.111111111,0.370370389,-0.271296308,1,0,0,0.4447,submitButton,14.08262108,-0.217592583,-0.407407421,0,0,0,2,50,170,38,1,54,67684,blockT,180,2022-02-15_12h08.40.047,orientation adjustment block,2021.2.3,Win32,59.17159763,,,,,,,
,,,,,,,,,,,,,,,,,,,,,,-57.22222222,-39,20,75,-52.22222222,13.22222222,13.22222222,0.217592609,-0.312037106,1,0,0,0.1168,submitButton,14.07714084,-0.17037036,-0.402777791,0,0,0,2,51,171,23,1,39,67684,blockT,180,2022-02-15_12h08.40.047,orientation adjustment block,2021.2.3,Win32,59.17159763,,,,,,,
,,,,,,,,,,,,,,,,,,,,,,-31.66666667,65,20,75,46.33333333,18.66666667,18.66666667,0.163888905,-0.301851864,1,0,0,0.1994,submitButton,14.10618847,-0.171296286,-0.397222236,0,0,0,2,52,172,49,1,65,67684,blockT,180,2022-02-15_12h08.40.047,orientation adjustment block,2021.2.3,Win32,59.17159763,,,,,,,
,,,,,,,,,,,,,,,,,,,,,,-56.11111111,-68,20,75,-58.11111111,9.888888889,9.888888889,0.221296313,-0.299074086,1,0,0,0.0222,submitButton,14.07966457,-0.175925915,-0.417592606,0,0,0,2,53,173,52,1,68,67684,blockT,180,2022-02-15_12h08.40.047,orientation adjustment block,2021.2.3,Win32,59.17159763,,,,,,,
,,,,,,,,,,,,,,,,,,,,,,55,-66,20,75,-35,31,31,0.214814831,-0.295370382,1,0,0,0.3668,submitButton,14.18541667,-0.229629563,-0.38703705,0,0,0,2,54,174,50,1,66,67684,blockT,180,2022-02-15_12h08.40.047,orientation adjustment block,2021.2.3,Win32,59.17159763,,,,,,,
,,,,,,,,,,,,,,,,,,,,,,63.88888889,56,20,75,209.8888889,26.11111111,26.11111111,0.204629646,-0.306481493,1,0,0,0.3776,submitButton,14.2594893,-0.171296286,-0.390740811,0,0,0,2,55,175,40,1,56,67684,blockT,180,2022-02-15_12h08.40.047,orientation adjustment block,2021.2.3,Win32,59.17159763,,,,,,,
,,,,,,,,,,,,,,,,,,,,,,39.44444444,-75,20,75,-43.55555556,31.44444444,31.44444444,0.229629646,-0.297222234,1,0,0,0.0501,submitButton,14.36556927,-0.166666656,-0.381481551,0,0,0,2,56,176,59,1,75,67684,blockT,180,2022-02-15_12h08.40.047,orientation adjustment block,2021.2.3,Win32,59.17159763,,,,,,,
,,,,,,,,,,,,,,,,,,,,,,32.77777778,63,20,75,201.7777778,41.22222222,41.22222222,0.214814831,-0.304629642,1,0,0,0.056,submitButton,14.53033401,-0.173148137,-0.414814828,0,0,0,2,57,177,47,1,63,67684,blockT,180,2022-02-15_12h08.40.047,orientation adjustment block,2021.2.3,Win32,59.17159763,,,,,,,
,,,,,,,,,,,,,,,,,,,,,,43.88888889,-72,20,75,-51.11111111,20.88888889,20.88888889,0.394444464,-0.282407419,1,0,0,0.4332,submitButton,14.56910569,-0.138888878,-0.388888902,0,0,0,2,58,178,56,1,72,67684,blockT,180,2022-02-15_12h08.40.047,orientation adjustment block,2021.2.3,Win32,59.17159763,,,,,,,
,,,,,,,,,,,,,,,,,,,,,,63.88888889,31,20,75,64.88888889,33.88888889,33.88888889,0.377777797,-0.266666678,1,0,0,0.189,submitButton,14.68619529,-0.158333322,-0.388888902,0,0,0,2,59,179,15,1,31,67684,blockT,180,2022-02-15_12h08.40.047,orientation adjustment block,2021.2.3,Win32,59.17159763,,,,,,,
,,,,,,,,,,,,,,,,,,,,,,,,,,,,,,,,,,,,,,,,,,,,,,,,67684,blockT,180,2022-02-15_12h08.40.047,orientation adjustment block,2021.2.3,Win32,59.17159763,,0.303703721,-0.406481495,1,0,0,EndButtonTxt
