consentMouse1.x,consentMouse1.y,consentMouse1.leftButton,consentMouse1.midButton,consentMouse1.rightButton,consentMouse1.clicked_name,consent_Mouse.x,consent_Mouse.y,consent_Mouse.leftButton,consent_Mouse.midButton,consent_Mouse.rightButton,consent_Mouse.clicked_name,startMouse.x,startMouse.y,startMouse.leftButton,startMouse.midButton,startMouse.rightButton,startMouse_2.x,startMouse_2.y,startMouse_2.leftButton,startMouse_2.midButton,startMouse_2.rightButton,start_distance,fixedOri,minimalDistance,maxOri,this_ori,accuracy,presented_accuracy,submitMouse.x,submitMouse.y,submitMouse.leftButton,submitMouse.midButton,submitMouse.rightButton,submitMouse.time,submitMouse.clicked_name,block_accuracy,continueMouse.x,continueMouse.y,continueMouse.leftButton,continueMouse.midButton,continueMouse.rightButton,trials.thisRepN,trials.thisTrialN,trials.thisN,trials.thisIndex,trials.ran,startOri,participant,condition,nTrials,date,expName,psychopyVersion,OS,frameRate,continueMouse.clicked_name,EndButtonMouse.x,EndButtonMouse.y,EndButtonMouse.leftButton,EndButtonMouse.midButton,EndButtonMouse.rightButton,EndButtonMouse.clicked_name
0.387139893,-0.408883384,1,0,0,consent_button1,0.382535242,-0.40397158,1,0,0,consent_button,0.384863281,-0.414765591,1,0,0,0.382784243,-0.388896066,1,0,0,-68.33333333,26,20,75,-20.33333333,46.33333333,46.33333333,0.190004702,-0.298877518,1,0,0,2.481,submitButton,46.33333333,-0.341639653,-0.416482318,0,0,0,0,0,0,10,1,26,67765,blockT,180,2022-02-11_10h46.13.057,orientation adjustment block,2021.2.3,MacIntel,29.97062878,,,,,,,
,,,,,,,,,,,,,,,,,,,,,,-73.88888889,29,20,75,7.111111111,21.88888889,21.88888889,0.178179367,-0.305970651,1,0,0,0.5744,submitButton,34.11111111,-0.24335395,-0.415834271,0,0,0,0,1,1,13,1,29,67765,blockT,180,2022-02-11_10h46.13.057,orientation adjustment block,2021.2.3,MacIntel,29.97062878,,,,,,,
,,,,,,,,,,,,,,,,,,,,,,21.66666667,66,20,75,57.66666667,8.333333333,8.333333333,0.429806971,-0.305950645,1,0,0,0.5522,submitButton,25.51851852,0.065819973,-0.115511407,0,0,0,0,2,2,50,1,66,67765,blockT,180,2022-02-11_10h46.13.057,orientation adjustment block,2021.2.3,MacIntel,29.97062878,,,,,,,
,,,,,,,,,,,,,,,,,,,,,,-23.88888889,58,20,75,42.11111111,15.88888889,15.88888889,0.219898365,-0.30064539,1,0,0,0.2579,submitButton,15.88888889,-0.213132392,-0.374628477,0,0,0,0,3,3,42,1,58,67765,blockT,180,2022-02-11_10h46.13.057,orientation adjustment block,2021.2.3,MacIntel,29.97062878,,,,,,,
,,,,,,,,,,,,,,,,,,,,,,22.77777778,-48,20,75,33.77777778,81.77777778,81.77777778,0.187896276,-0.300247136,1,0,0,0.5678,submitButton,48.83333333,-0.147197073,-0.240515702,0,0,0,0,4,4,32,1,48,67765,blockT,180,2022-02-11_10h46.13.057,orientation adjustment block,2021.2.3,MacIntel,29.97062878,,,,,,,
,,,,,,,,,,,,,,,,,,,,,,-60,-27,20,75,-200,7,7,0.402853733,-0.308594202,1,0,0,0.4756,submitButton,34.88888889,-0.128919022,-0.245111988,0,0,0,0,5,5,11,1,27,67765,blockT,180,2022-02-11_10h46.13.057,orientation adjustment block,2021.2.3,MacIntel,29.97062878,,,,,,,
,,,,,,,,,,,,,,,,,,,,,,-67.77777778,-36,20,75,-37.77777778,1.777777778,1.777777778,0.182028537,-0.297344971,1,0,0,1.1951,submitButton,1.777777778,-0.257609954,-0.39737221,0,0,0,0,6,6,20,1,36,67765,blockT,180,2022-02-11_10h46.13.057,orientation adjustment block,2021.2.3,MacIntel,29.97062878,,,,,,,
,,,,,,,,,,,,,,,,,,,,,,44.44444444,30,20,75,33.44444444,3.444444444,3.444444444,0.398966584,-0.293187572,1,0,0,0.8386,submitButton,2.611111111,-0.375969385,-0.418575598,0,0,0,0,7,7,14,1,30,67765,blockT,180,2022-02-11_10h46.13.057,orientation adjustment block,2021.2.3,MacIntel,29.97062878,,,,,,,
,,,,,,,,,,,,,,,,,,,,,,39.44444444,-23,20,75,-26.55555556,3.555555556,3.555555556,-0.179306087,-0.408641504,1,0,0,2.5623,submitButton,2.925925926,-0.179306087,-0.408641504,0,0,0,0,8,8,7,1,23,67765,blockT,180,2022-02-11_10h46.13.057,orientation adjustment block,2021.2.3,MacIntel,29.97062878,,,,,,,
,,,,,,,,,,,,,,,,,,,,,,-47.22222222,20,20,75,17.77777778,2.222222222,2.222222222,0.199739131,-0.298071006,1,0,0,0.8359,submitButton,2.222222222,-0.320747884,-0.408539157,0,0,0,0,9,9,4,1,20,67765,blockT,180,2022-02-11_10h46.13.057,orientation adjustment block,2021.2.3,MacIntel,29.97062878,,,,,,,
,,,,,,,,,,,,,,,,,,,,,,-66.66666667,-68,20,75,-82.66666667,14.66666667,14.66666667,0.391870908,-0.312909049,1,0,0,0.1798,submitButton,8.444444444,-0.299543988,-0.420286504,0,0,0,0,10,10,52,1,68,67765,blockT,180,2022-02-11_10h46.13.057,orientation adjustment block,2021.2.3,MacIntel,29.97062878,,,,,,,
,,,,,,,,,,,,,,,,,,,,,,-45.55555556,50,20,75,41.44444444,8.555555556,8.555555556,-0.161754297,-0.394630997,1,0,0,1.8554,submitButton,8.481481481,-0.155616478,-0.391456321,0,0,0,0,11,11,34,1,50,67765,blockT,180,2022-02-11_10h46.13.057,orientation adjustment block,2021.2.3,MacIntel,29.97062878,,,,,,,
,,,,,,,,,,,,,,,,,,,,,,-54.44444444,-40,20,75,-46.44444444,6.444444444,6.444444444,0.410009087,-0.290107275,1,0,0,0.1364,submitButton,6.444444444,-0.192805537,-0.401521923,0,0,0,0,12,12,24,1,40,67765,blockT,180,2022-02-11_10h46.13.057,orientation adjustment block,2021.2.3,MacIntel,29.97062878,,,,,,,
,,,,,,,,,,,,,,,,,,,,,,22.22222222,-25,20,75,-23.77777778,1.222222222,1.222222222,-0.172053076,-0.417110076,1,0,0,1.6549,submitButton,3.833333333,-0.175729992,-0.413337764,0,0,0,0,13,13,9,1,25,67765,blockT,180,2022-02-11_10h46.13.057,orientation adjustment block,2021.2.3,MacIntel,29.97062878,,,,,,,
,,,,,,,,,,,,,,,,,,,,,,-66.66666667,-75,20,75,-67.66666667,7.333333333,7.333333333,0.220763934,-0.308582956,1,0,0,0.4463,submitButton,5,0.463246437,-0.389190448,1,0,0,0,14,14,59,1,75,67765,blockT,180,2022-02-11_10h46.13.057,orientation adjustment block,2021.2.3,MacIntel,29.97062878,continueButton,,,,,,
,,,,,,,,,,,,,,,,,,,,,,24.44444444,-16,20,75,-8.555555556,7.444444444,7.444444444,0.421547671,-0.299507989,1,0,0,0.1322,submitButton,7.444444444,-0.137794212,-0.393306986,0,0,0,0,15,15,0,1,16,67765,blockT,180,2022-02-11_10h46.13.057,orientation adjustment block,2021.2.3,MacIntel,29.97062878,,,,,,,
,,,,,,,,,,,,,,,,,,,,,,27.77777778,-32,20,75,-24.22222222,7.777777778,7.777777778,0.37625382,-0.300902868,1,0,0,0.4509,submitButton,7.611111111,-0.182754178,-0.410263062,0,0,0,0,16,16,16,1,32,67765,blockT,180,2022-02-11_10h46.13.057,orientation adjustment block,2021.2.3,MacIntel,29.97062878,,,,,,,
,,,,,,,,,,,,,,,,,,,,,,-45.55555556,52,20,75,30.44444444,21.55555556,21.55555556,-0.248946465,-0.3946115,1,0,0,1.5248,submitButton,12.25925926,0.094552725,-0.248551319,0,0,0,0,17,17,36,1,52,67765,blockT,180,2022-02-11_10h46.13.057,orientation adjustment block,2021.2.3,MacIntel,29.97062878,,,,,,,
,,,,,,,,,,,,,,,,,,,,,,63.88888889,-74,20,75,-83.11111111,9.111111111,9.111111111,-0.201613871,-0.410622943,1,0,0,3.7107,submitButton,11.47222222,-0.209793543,-0.410834588,0,0,0,0,18,18,58,1,74,67765,blockT,180,2022-02-11_10h46.13.057,orientation adjustment block,2021.2.3,MacIntel,29.97062878,,,,,,,
,,,,,,,,,,,,,,,,,,,,,,30.55555556,-70,20,75,-75.44444444,5.444444444,5.444444444,0.396492626,-0.297450143,1,0,0,0.1365,submitButton,10.26666667,-0.133299142,-0.410594121,0,0,0,0,19,19,54,1,70,67765,blockT,180,2022-02-11_10h46.13.057,orientation adjustment block,2021.2.3,MacIntel,29.97062878,,,,,,,
,,,,,,,,,,,,,,,,,,,,,,-37.77777778,-57,20,75,-75.77777778,18.77777778,18.77777778,0.219227657,-0.313870409,1,0,0,0.0916,submitButton,11.68518519,0.025760679,-0.200905411,0,0,0,0,20,20,41,1,57,67765,blockT,180,2022-02-11_10h46.13.057,orientation adjustment block,2021.2.3,MacIntel,29.97062878,,,,,,,
,,,,,,,,,,,,,,,,,,,,,,-69.44444444,55,20,75,31.55555556,23.44444444,23.44444444,0.185309968,-0.322333329,1,0,0,0.0969,submitButton,13.36507937,-0.059109497,-0.297272407,0,0,0,0,21,21,39,1,55,67765,blockT,180,2022-02-11_10h46.13.057,orientation adjustment block,2021.2.3,MacIntel,29.97062878,,,,,,,
,,,,,,,,,,,,,,,,,,,,,,57.77777778,-31,20,75,-23.22222222,7.777777778,7.777777778,-0.130078238,-0.40955901,1,0,0,2.9157,submitButton,12.66666667,-0.122473314,-0.377840508,0,0,0,0,22,22,15,1,31,67765,blockT,180,2022-02-11_10h46.13.057,orientation adjustment block,2021.2.3,MacIntel,29.97062878,,,,,,,
,,,,,,,,,,,,,,,,,,,,,,27.77777778,-46,20,75,-29.22222222,16.77777778,16.77777778,0.408783411,-0.308663601,1,0,0,0.2477,submitButton,13.12345679,-0.151074106,-0.398225855,0,0,0,0,23,23,30,1,46,67765,blockT,180,2022-02-11_10h46.13.057,orientation adjustment block,2021.2.3,MacIntel,29.97062878,,,,,,,
,,,,,,,,,,,,,,,,,,,,,,-63.33333333,64,20,75,34.66666667,29.33333333,29.33333333,-0.236622789,-0.383799518,1,0,0,1.5711,submitButton,14.74444444,-0.237257724,-0.377114247,0,0,0,0,24,24,48,1,64,67765,blockT,180,2022-02-11_10h46.13.057,orientation adjustment block,2021.2.3,MacIntel,29.97062878,,,,,,,
,,,,,,,,,,,,,,,,,,,,,,-50.55555556,-19,20,75,-98.55555556,79.55555556,79.55555556,0.418524283,-0.313486622,1,0,0,0.3867,submitButton,20.63636364,-0.213771057,-0.417499457,0,0,0,0,25,25,3,1,19,67765,blockT,180,2022-02-11_10h46.13.057,orientation adjustment block,2021.2.3,MacIntel,29.97062878,,,,,,,
,,,,,,,,,,,,,,,,,,,,,,-47.77777778,28,20,75,26.22222222,1.777777778,1.777777778,0.216751777,-0.328835664,1,0,0,0.4425,submitButton,19.06481481,-0.251150174,-0.407724169,0,0,0,0,26,26,12,1,28,67765,blockT,180,2022-02-11_10h46.13.057,orientation adjustment block,2021.2.3,MacIntel,29.97062878,,,,,,,
,,,,,,,,,,,,,,,,,,,,,,70.55555556,37,20,75,199.5555556,17.44444444,17.44444444,0.197415161,-0.294103778,1,0,0,0.3139,submitButton,18.94017094,-0.287766407,-0.401000242,0,0,0,0,27,27,21,1,37,67765,blockT,180,2022-02-11_10h46.13.057,orientation adjustment block,2021.2.3,MacIntel,29.97062878,,,,,,,
,,,,,,,,,,,,,,,,,,,,,,-22.77777778,-38,20,75,-42.77777778,4.777777778,4.777777778,0.180545044,-0.323659713,1,0,0,0.2905,submitButton,17.92857143,-0.207064367,-0.418936157,0,0,0,0,28,28,22,1,38,67765,blockT,180,2022-02-11_10h46.13.057,orientation adjustment block,2021.2.3,MacIntel,29.97062878,,,,,,,
,,,,,,,,,,,,,,,,,,,,,,-68.33333333,-45,20,75,-208.3333333,16.66666667,16.66666667,-0.190476481,-0.414921965,1,0,0,4.5875,submitButton,17.84444444,0.346114547,-0.419207594,1,0,0,0,29,29,29,1,45,67765,blockT,180,2022-02-11_10h46.13.057,orientation adjustment block,2021.2.3,MacIntel,29.97062878,continueButton,,,,,,
,,,,,,,,,,,,,,,,,,,,,,-45.55555556,-33,20,75,-51.55555556,18.55555556,18.55555556,0.228469283,-0.290110383,1,0,0,5.3121,submitButton,17.88888889,-0.213259775,-0.385285159,0,0,0,0,30,30,17,1,33,67765,blockT,180,2022-02-11_10h46.13.057,orientation adjustment block,2021.2.3,MacIntel,29.97062878,,,,,,,
,,,,,,,,,,,,,,,,,,,,,,43.88888889,-44,20,75,-27.11111111,16.88888889,16.88888889,-0.266909847,-0.456417395,1,0,0,1.7681,submitButton,17.83006536,-0.248730525,-0.402677635,0,0,0,0,31,31,28,1,44,67765,blockT,180,2022-02-11_10h46.13.057,orientation adjustment block,2021.2.3,MacIntel,29.97062878,,,,,,,
,,,,,,,,,,,,,,,,,,,,,,22.77777778,-65,20,75,-57.22222222,7.777777778,7.777777778,0.36787019,-0.29367981,1,0,0,0.1435,submitButton,17.27160494,-0.125578252,-0.389323256,0,0,0,0,32,32,49,1,65,67765,blockT,180,2022-02-11_10h46.13.057,orientation adjustment block,2021.2.3,MacIntel,29.97062878,,,,,,,
,,,,,,,,,,,,,,,,,,,,,,70.55555556,39,20,75,53.55555556,14.55555556,14.55555556,0.46650142,-0.277447058,1,0,0,1.8124,submitButton,17.12865497,-0.089303815,-0.360029546,0,0,0,0,33,33,23,1,39,67765,blockT,180,2022-02-11_10h46.13.057,orientation adjustment block,2021.2.3,MacIntel,29.97062878,,,,,,,
,,,,,,,,,,,,,,,,,,,,,,-74.44444444,17,20,75,8.555555556,8.444444444,8.444444444,0.194603362,-0.30000243,1,0,0,1.1313,submitButton,16.69444444,-0.266106613,-0.408471849,0,0,0,0,34,34,1,1,17,67765,blockT,180,2022-02-11_10h46.13.057,orientation adjustment block,2021.2.3,MacIntel,29.97062878,,,,,,,
,,,,,,,,,,,,,,,,,,,,,,-60,-49,20,75,-47,2,2,0.17207133,-0.312182391,1,0,0,0.7618,submitButton,15.99470899,-0.196663807,-0.393904848,0,0,0,0,35,35,33,1,49,67765,blockT,180,2022-02-11_10h46.13.057,orientation adjustment block,2021.2.3,MacIntel,29.97062878,,,,,,,
,,,,,,,,,,,,,,,,,,,,,,65.55555556,62,20,75,58.55555556,3.444444444,3.444444444,0.417007785,-0.292225308,1,0,0,0.1392,submitButton,15.42424242,-0.185067297,-0.38963154,0,0,0,0,36,36,46,1,62,67765,blockT,180,2022-02-11_10h46.13.057,orientation adjustment block,2021.2.3,MacIntel,29.97062878,,,,,,,
,,,,,,,,,,,,,,,,,,,,,,54.44444444,-69,20,75,-70.55555556,1.555555556,1.555555556,0.42849788,-0.296188015,1,0,0,0.0462,submitButton,14.82125604,-0.137883278,-0.422066696,0,0,0,0,37,37,53,1,69,67765,blockT,180,2022-02-11_10h46.13.057,orientation adjustment block,2021.2.3,MacIntel,29.97062878,,,,,,,
,,,,,,,,,,,,,,,,,,,,,,-31.66666667,72,20,75,63.33333333,8.666666667,8.666666667,-0.259590205,-0.398496727,1,0,0,1.3182,submitButton,14.56481481,-0.259590205,-0.398496727,0,0,0,0,38,38,56,1,72,67765,blockT,180,2022-02-11_10h46.13.057,orientation adjustment block,2021.2.3,MacIntel,29.97062878,,,,,,,
,,,,,,,,,,,,,,,,,,,,,,58.33333333,56,20,75,62.33333333,6.333333333,6.333333333,0.205797662,-0.308441219,1,0,0,0.3585,submitButton,14.23555556,-0.185262044,-0.396660586,0,0,0,0,39,39,40,1,56,67765,blockT,180,2022-02-11_10h46.13.057,orientation adjustment block,2021.2.3,MacIntel,29.97062878,,,,,,,
,,,,,,,,,,,,,,,,,,,,,,58.33333333,61,20,75,60.33333333,0.666666667,0.666666667,0.224547549,-0.310286684,1,0,0,0.4254,submitButton,13.71367521,-0.190315981,-0.374164101,0,0,0,0,40,40,45,1,61,67765,blockT,180,2022-02-11_10h46.13.057,orientation adjustment block,2021.2.3,MacIntel,29.97062878,,,,,,,
,,,,,,,,,,,,,,,,,,,,,,-33.33333333,34,20,75,46.66666667,12.66666667,12.66666667,0.185973782,-0.317491828,1,0,0,0.3336,submitButton,13.67489712,-0.241677517,-0.413964844,0,0,0,0,41,41,18,1,34,67765,blockT,180,2022-02-11_10h46.13.057,orientation adjustment block,2021.2.3,MacIntel,29.97062878,,,,,,,
,,,,,,,,,,,,,,,,,,,,,,-61.66666667,-24,20,75,-30.66666667,6.666666667,6.666666667,0.201276652,-0.296456966,1,0,0,0.252,submitButton,13.42460317,-0.209249991,-0.408701183,0,0,0,0,42,42,8,1,24,67765,blockT,180,2022-02-11_10h46.13.057,orientation adjustment block,2021.2.3,MacIntel,29.97062878,,,,,,,
,,,,,,,,,,,,,,,,,,,,,,-39.44444444,-60,20,75,-57.44444444,2.555555556,2.555555556,0.204075001,-0.337701981,1,0,0,0.3023,submitButton,13.04980843,-0.148405513,-0.410450971,0,0,0,0,43,43,44,1,60,67765,blockT,180,2022-02-11_10h46.13.057,orientation adjustment block,2021.2.3,MacIntel,29.97062878,,,,,,,
,,,,,,,,,,,,,,,,,,,,,,-48.33333333,22,20,75,18.66666667,3.333333333,3.333333333,-0.204673711,-0.410677592,1,0,0,2.3726,submitButton,12.72592593,0.506659162,-0.404203288,1,0,0,0,44,44,6,1,22,67765,blockT,180,2022-02-11_10h46.13.057,orientation adjustment block,2021.2.3,MacIntel,29.97062878,continueButton,,,,,,
,,,,,,,,,,,,,,,,,,,,,,22.77777778,-63,20,75,-50.22222222,12.77777778,12.77777778,-0.213867018,-0.40148841,1,0,0,1.0776,submitButton,12.72759857,-0.071570446,-0.072812116,0,0,0,0,45,45,47,1,63,67765,blockT,180,2022-02-11_10h46.13.057,orientation adjustment block,2021.2.3,MacIntel,29.97062878,,,,,,,
,,,,,,,,,,,,,,,,,,,,,,-73.33333333,21,20,75,12.66666667,8.333333333,8.333333333,-0.245573877,-0.4487212,1,0,0,3.1204,submitButton,12.59027778,-0.210515227,-0.339044585,0,0,0,0,46,46,5,1,21,67765,blockT,180,2022-02-11_10h46.13.057,orientation adjustment block,2021.2.3,MacIntel,29.97062878,,,,,,,
,,,,,,,,,,,,,,,,,,,,,,-21.66666667,-35,20,75,-39.66666667,4.666666667,4.666666667,0.213514201,-0.319073543,1,0,0,0.0944,submitButton,12.35016835,-0.222321913,-0.40958591,0,0,0,0,47,47,19,1,35,67765,blockT,180,2022-02-11_10h46.13.057,orientation adjustment block,2021.2.3,MacIntel,29.97062878,,,,,,,
,,,,,,,,,,,,,,,,,,,,,,40.55555556,47,20,75,46.55555556,0.444444444,0.444444444,0.382051595,-0.304126316,1,0,0,0.4494,submitButton,12,-0.174681769,-0.410297874,0,0,0,0,48,48,31,1,47,67765,blockT,180,2022-02-11_10h46.13.057,orientation adjustment block,2021.2.3,MacIntel,29.97062878,,,,,,,
,,,,,,,,,,,,,,,,,,,,,,65.55555556,51,20,75,49.55555556,1.444444444,1.444444444,0.352316623,-0.323053092,1,0,0,0.4016,submitButton,11.6984127,-0.204268957,-0.404087377,0,0,0,0,49,49,35,1,51,67765,blockT,180,2022-02-11_10h46.13.057,orientation adjustment block,2021.2.3,MacIntel,29.97062878,,,,,,,
,,,,,,,,,,,,,,,,,,,,,,67.22222222,-53,20,75,68.22222222,58.77777778,58.77777778,0.203972145,-0.303951574,1,0,0,0.5096,submitButton,13.00617284,-0.184740533,-0.40838753,0,0,0,0,50,50,37,1,53,67765,blockT,180,2022-02-11_10h46.13.057,orientation adjustment block,2021.2.3,MacIntel,29.97062878,,,,,,,
,,,,,,,,,,,,,,,,,,,,,,-47.77777778,-43,20,75,-52.77777778,9.777777778,9.777777778,-0.217230168,-0.418907166,1,0,0,2.3109,submitButton,12.91891892,-0.217230168,-0.418907166,0,0,0,0,51,51,27,1,43,67765,blockT,180,2022-02-11_10h46.13.057,orientation adjustment block,2021.2.3,MacIntel,29.97062878,,,,,,,
,,,,,,,,,,,,,,,,,,,,,,-27.77777778,42,20,75,29.22222222,12.77777778,12.77777778,-0.240462579,-0.395772976,1,0,0,1.3667,submitButton,12.91520468,-0.240462579,-0.395772976,0,0,0,0,52,52,26,1,42,67765,blockT,180,2022-02-11_10h46.13.057,orientation adjustment block,2021.2.3,MacIntel,29.97062878,,,,,,,
,,,,,,,,,,,,,,,,,,,,,,-51.66666667,-67,20,75,-65.66666667,1.333333333,1.333333333,0.235199314,-0.330874125,1,0,0,0.0547,submitButton,12.61823362,-0.171903257,-0.400836747,0,0,0,0,53,53,51,1,67,67765,blockT,180,2022-02-11_10h46.13.057,orientation adjustment block,2021.2.3,MacIntel,29.97062878,,,,,,,
,,,,,,,,,,,,,,,,,,,,,,63.33333333,41,20,75,46.33333333,5.333333333,5.333333333,0.440445624,-0.301481741,1,0,0,0.9073,submitButton,12.43611111,-0.168839292,-0.420545846,0,0,0,0,54,54,25,1,41,67765,blockT,180,2022-02-11_10h46.13.057,orientation adjustment block,2021.2.3,MacIntel,29.97062878,,,,,,,
,,,,,,,,,,,,,,,,,,,,,,-63.88888889,-59,20,75,-63.88888889,4.888888889,4.888888889,0.216957375,-0.307538746,1,0,0,0.7373,submitButton,12.25203252,-0.206032138,-0.379713666,0,0,0,0,55,55,43,1,59,67765,blockT,180,2022-02-11_10h46.13.057,orientation adjustment block,2021.2.3,MacIntel,29.97062878,,,,,,,
,,,,,,,,,,,,,,,,,,,,,,48.88888889,71,20,75,66.88888889,4.111111111,4.111111111,0.400234533,-0.306845714,1,0,0,1.3482,submitButton,12.05820106,-0.139541852,-0.389356882,0,0,0,0,56,56,55,1,71,67765,blockT,180,2022-02-11_10h46.13.057,orientation adjustment block,2021.2.3,MacIntel,29.97062878,,,,,,,
,,,,,,,,,,,,,,,,,,,,,,-35.55555556,54,20,75,54.44444444,0.444444444,0.444444444,-0.113899909,-0.401030816,1,0,0,2.1406,submitButton,11.7881137,-0.113899909,-0.401030816,0,0,0,0,57,57,38,1,54,67765,blockT,180,2022-02-11_10h46.13.057,orientation adjustment block,2021.2.3,MacIntel,29.97062878,,,,,,,
,,,,,,,,,,,,,,,,,,,,,,62.22222222,-18,20,75,-5.777777778,12.22222222,12.22222222,-0.133500163,-0.419203356,1,0,0,2.9794,submitButton,11.7979798,-0.131271249,-0.395026313,0,0,0,0,58,58,2,1,18,67765,blockT,180,2022-02-11_10h46.13.057,orientation adjustment block,2021.2.3,MacIntel,29.97062878,,,,,,,
,,,,,,,,,,,,,,,,,,,,,,-21.11111111,-73,20,75,-79.11111111,6.111111111,6.111111111,0.179356441,-0.308902882,1,0,0,0.1036,submitButton,11.67160494,0.381247626,-0.415447829,1,0,0,0,59,59,57,1,73,67765,blockT,180,2022-02-11_10h46.13.057,orientation adjustment block,2021.2.3,MacIntel,29.97062878,continueButton,,,,,,
,,,,,,,,,,,,,,,,,,,,,,57.22222222,45,20,75,62.22222222,17.22222222,17.22222222,0.391806143,-0.320811858,1,0,0,0.3852,submitButton,11.79227053,0.016995465,-0.326162833,0,0,0,1,0,60,29,1,45,67765,blockT,180,2022-02-11_10h46.13.057,orientation adjustment block,2021.2.3,MacIntel,29.97062878,,,,,,,
,,,,,,,,,,,,,,,,,,,,,,57.77777778,41,20,75,42.77777778,1.777777778,1.777777778,-0.121955306,-0.402086668,1,0,0,3.1564,submitButton,11.57919622,-0.120473735,-0.402086668,0,0,0,1,1,61,25,1,41,67765,blockT,180,2022-02-11_10h46.13.057,orientation adjustment block,2021.2.3,MacIntel,29.97062878,,,,,,,
,,,,,,,,,,,,,,,,,,,,,,22.77777778,-17,20,75,-16.22222222,0.777777778,0.777777778,-0.045386646,-0.409222582,1,0,0,1.3094,submitButton,11.35416667,-0.232914734,-0.386068669,0,0,0,1,2,62,1,1,17,67765,blockT,180,2022-02-11_10h46.13.057,orientation adjustment block,2021.2.3,MacIntel,29.97062878,,,,,,,
,,,,,,,,,,,,,,,,,,,,,,-60.55555556,-75,20,75,-76.55555556,1.555555556,1.555555556,0.155686555,-0.331850857,1,0,0,0.2563,submitButton,11.15419501,-0.226831111,-0.389447248,0,0,0,1,3,63,59,1,75,67765,blockT,180,2022-02-11_10h46.13.057,orientation adjustment block,2021.2.3,MacIntel,29.97062878,,,,,,,
,,,,,,,,,,,,,,,,,,,,,,56.66666667,70,20,75,65.66666667,4.333333333,4.333333333,0.413693124,-0.298098642,1,0,0,0.0941,submitButton,11.01777778,-0.142502735,-0.390888581,0,0,0,1,4,64,54,1,70,67765,blockT,180,2022-02-11_10h46.13.057,orientation adjustment block,2021.2.3,MacIntel,29.97062878,,,,,,,
,,,,,,,,,,,,,,,,,,,,,,67.22222222,30,20,75,46.22222222,16.22222222,16.22222222,0.415047427,-0.301670498,1,0,0,0.2007,submitButton,11.11982571,-0.185753095,-0.397749046,0,0,0,1,5,65,14,1,30,67765,blockT,180,2022-02-11_10h46.13.057,orientation adjustment block,2021.2.3,MacIntel,29.97062878,,,,,,,
,,,,,,,,,,,,,,,,,,,,,,45.55555556,40,20,75,51.55555556,11.55555556,11.55555556,0.40180212,-0.29911985,1,0,0,0.2507,submitButton,11.12820513,-0.210239269,-0.408444157,0,0,0,1,6,66,24,1,40,67765,blockT,180,2022-02-11_10h46.13.057,orientation adjustment block,2021.2.3,MacIntel,29.97062878,,,,,,,
,,,,,,,,,,,,,,,,,,,,,,-62.22222222,-23,20,75,-40.22222222,17.22222222,17.22222222,0.223674294,-0.321488614,1,0,0,0.0452,submitButton,11.24318658,-0.135937613,-0.370436718,0,0,0,1,7,67,7,1,23,67765,blockT,180,2022-02-11_10h46.13.057,orientation adjustment block,2021.2.3,MacIntel,29.97062878,,,,,,,
,,,,,,,,,,,,,,,,,,,,,,-57.22222222,-26,20,75,-25.22222222,0.777777778,0.777777778,-0.230819533,-0.392892287,1,0,0,3.1068,submitButton,11.04938272,-0.235284932,-0.40291878,0,0,0,1,8,68,10,1,26,67765,blockT,180,2022-02-11_10h46.13.057,orientation adjustment block,2021.2.3,MacIntel,29.97062878,,,,,,,
,,,,,,,,,,,,,,,,,,,,,,58.33333333,-68,20,75,-50.66666667,17.33333333,17.33333333,-0.164357277,-0.398384603,1,0,0,2.3445,submitButton,11.16363636,-0.164568866,-0.398596248,0,0,0,1,9,69,52,1,68,67765,blockT,180,2022-02-11_10h46.13.057,orientation adjustment block,2021.2.3,MacIntel,29.97062878,,,,,,,
,,,,,,,,,,,,,,,,,,,,,,72.77777778,-59,20,75,-44.22222222,14.77777778,14.77777778,-0.117471087,-0.41507574,1,0,0,3.1645,submitButton,11.2281746,0.097221883,-0.251297958,0,0,0,1,10,70,43,1,59,67765,blockT,180,2022-02-11_10h46.13.057,orientation adjustment block,2021.2.3,MacIntel,29.97062878,,,,,,,
,,,,,,,,,,,,,,,,,,,,,,52.77777778,35,20,75,45.77777778,10.77777778,10.77777778,0.375575313,-0.291082481,1,0,0,0.4322,submitButton,11.2202729,-0.015604824,-0.299799206,0,0,0,1,11,71,19,1,35,67765,blockT,180,2022-02-11_10h46.13.057,orientation adjustment block,2021.2.3,MacIntel,29.97062878,,,,,,,
,,,,,,,,,,,,,,,,,,,,,,-23.88888889,-74,20,75,-74.88888889,0.888888889,0.888888889,0.212581154,-0.313208629,1,0,0,0.098,submitButton,11.04214559,-0.236241941,-0.404624882,0,0,0,1,12,72,58,1,74,67765,blockT,180,2022-02-11_10h46.13.057,orientation adjustment block,2021.2.3,MacIntel,29.97062878,,,,,,,
,,,,,,,,,,,,,,,,,,,,,,-59.44444444,55,20,75,46.55555556,8.444444444,8.444444444,0.205230713,-0.299656282,1,0,0,0.1468,submitButton,10.99811676,-0.201743119,-0.41695421,0,0,0,1,13,73,39,1,55,67765,blockT,180,2022-02-11_10h46.13.057,orientation adjustment block,2021.2.3,MacIntel,29.97062878,,,,,,,
,,,,,,,,,,,,,,,,,,,,,,-71.11111111,-51,20,75,-51.11111111,0.111111111,0.111111111,0.215641163,-0.318354119,1,0,0,0.6079,submitButton,10.81666667,0.413108995,-0.406623671,1,0,0,1,14,74,35,1,51,67765,blockT,180,2022-02-11_10h46.13.057,orientation adjustment block,2021.2.3,MacIntel,29.97062878,continueButton,,,,,,
,,,,,,,,,,,,,,,,,,,,,,72.77777778,-38,20,75,-20.22222222,17.77777778,17.77777778,0.40861093,-0.29514974,1,0,0,0.2284,submitButton,10.93078324,-0.137438061,-0.428225538,0,0,0,1,15,75,22,1,38,67765,blockT,180,2022-02-11_10h46.13.057,orientation adjustment block,2021.2.3,MacIntel,29.97062878,,,,,,,
,,,,,,,,,,,,,,,,,,,,,,30,-39,20,75,-30,9,9,-0.1729573,-0.422510218,1,0,0,1.4049,submitButton,10.89964158,-0.205400707,-0.427741665,0,0,0,1,16,76,23,1,39,67765,blockT,180,2022-02-11_10h46.13.057,orientation adjustment block,2021.2.3,MacIntel,29.97062878,,,,,,,
,,,,,,,,,,,,,,,,,,,,,,-31.66666667,-20,20,75,-32.66666667,12.66666667,12.66666667,0.167627744,-0.316517809,1,0,0,0.7902,submitButton,10.92768959,-0.342669113,-0.390980191,0,0,0,1,17,77,4,1,20,67765,blockT,180,2022-02-11_10h46.13.057,orientation adjustment block,2021.2.3,MacIntel,29.97062878,,,,,,,
,,,,,,,,,,,,,,,,,,,,,,48.88888889,-73,20,75,-47.11111111,25.88888889,25.88888889,-0.158930461,-0.400711173,1,0,0,1.3071,submitButton,11.16145833,-0.158930461,-0.400711173,0,0,0,1,18,78,57,1,73,67765,blockT,180,2022-02-11_10h46.13.057,orientation adjustment block,2021.2.3,MacIntel,29.97062878,,,,,,,
,,,,,,,,,,,,,,,,,,,,,,-24.44444444,-34,20,75,-46.44444444,12.44444444,12.44444444,-0.232049674,-0.35338406,1,0,0,0.885,submitButton,11.18119658,-0.250473588,-0.391196131,0,0,0,1,19,79,18,1,34,67765,blockT,180,2022-02-11_10h46.13.057,orientation adjustment block,2021.2.3,MacIntel,29.97062878,,,,,,,
,,,,,,,,,,,,,,,,,,,,,,-57.22222222,54,20,75,44.77777778,9.222222222,9.222222222,-0.214604074,-0.441593764,1,0,0,2.5574,submitButton,11.15151515,-0.224308946,-0.401495757,0,0,0,1,20,80,38,1,54,67765,blockT,180,2022-02-11_10h46.13.057,orientation adjustment block,2021.2.3,MacIntel,29.97062878,,,,,,,
,,,,,,,,,,,,,,,,,,,,,,33.33333333,62,20,75,59.33333333,2.666666667,2.666666667,0.435115447,-0.291643383,1,0,0,0.5879,submitButton,11.02487562,-0.211723271,-0.395087235,0,0,0,1,21,81,46,1,62,67765,blockT,180,2022-02-11_10h46.13.057,orientation adjustment block,2021.2.3,MacIntel,29.97062878,,,,,,,
,,,,,,,,,,,,,,,,,,,,,,-28.33333333,-67,20,75,-71.33333333,4.333333333,4.333333333,0.210042318,-0.310700254,1,0,0,0.4116,submitButton,10.92647059,-0.236647486,-0.387252242,0,0,0,1,22,82,51,1,67,67765,blockT,180,2022-02-11_10h46.13.057,orientation adjustment block,2021.2.3,MacIntel,29.97062878,,,,,,,
,,,,,,,,,,,,,,,,,,,,,,-58.33333333,46,20,75,35.66666667,10.33333333,10.33333333,0.213594451,-0.309356916,1,0,0,0.0453,submitButton,10.9178744,0.256302784,-0.157036901,0,0,0,1,23,83,30,1,46,67765,blockT,180,2022-02-11_10h46.13.057,orientation adjustment block,2021.2.3,MacIntel,29.97062878,,,,,,,
,,,,,,,,,,,,,,,,,,,,,,-67.77777778,27,20,75,24.22222222,2.777777778,2.777777778,-0.148949574,-0.42163538,1,0,0,3.5161,submitButton,10.8015873,-0.131414964,-0.372408832,0,0,0,1,24,84,11,1,27,67765,blockT,180,2022-02-11_10h46.13.057,orientation adjustment block,2021.2.3,MacIntel,29.97062878,,,,,,,
,,,,,,,,,,,,,,,,,,,,,,39.44444444,22,20,75,19.44444444,2.555555556,2.555555556,0.411924348,-0.288326631,1,0,0,0.095,submitButton,10.68544601,-0.054117952,-0.272207416,0,0,0,1,25,85,6,1,22,67765,blockT,180,2022-02-11_10h46.13.057,orientation adjustment block,2021.2.3,MacIntel,29.97062878,,,,,,,
,,,,,,,,,,,,,,,,,,,,,,-55.55555556,60,20,75,44.44444444,15.55555556,15.55555556,-0.216668023,-0.400809959,1,0,0,2.177,submitButton,10.75308642,-0.216668023,-0.400809959,0,0,0,1,26,86,44,1,60,67765,blockT,180,2022-02-11_10h46.13.057,orientation adjustment block,2021.2.3,MacIntel,29.97062878,,,,,,,
,,,,,,,,,,,,,,,,,,,,,,-26.11111111,-31,20,75,-32.11111111,1.111111111,1.111111111,0.167954395,-0.312269762,1,0,0,0.094,submitButton,10.62100457,-0.18001822,-0.278235315,0,0,0,1,27,87,15,1,31,67765,blockT,180,2022-02-11_10h46.13.057,orientation adjustment block,2021.2.3,MacIntel,29.97062878,,,,,,,
,,,,,,,,,,,,,,,,,,,,,,49.44444444,57,20,75,63.44444444,6.444444444,6.444444444,0.42961957,-0.292137655,1,0,0,0.5348,submitButton,10.56456456,-0.162270214,-0.404907566,0,0,0,1,28,88,41,1,57,67765,blockT,180,2022-02-11_10h46.13.057,orientation adjustment block,2021.2.3,MacIntel,29.97062878,,,,,,,
,,,,,,,,,,,,,,,,,,,,,,31.11111111,72,20,75,65.11111111,6.888888889,6.888888889,0.329464835,-0.300660649,1,0,0,0.184,submitButton,10.51555556,0.341771444,-0.41435886,1,0,0,1,29,89,56,1,72,67765,blockT,180,2022-02-11_10h46.13.057,orientation adjustment block,2021.2.3,MacIntel,29.97062878,continueButton,,,,,,
,,,,,,,,,,,,,,,,,,,,,,55,25,20,75,66,41,41,0.421259788,-0.295408122,1,0,0,0.3631,submitButton,10.91666667,-0.280207486,-0.404236122,0,0,0,1,30,90,9,1,25,67765,blockT,180,2022-02-11_10h46.13.057,orientation adjustment block,2021.2.3,MacIntel,29.97062878,,,,,,,
,,,,,,,,,,,,,,,,,,,,,,-25,50,20,75,39,11,11,0.197572722,-0.300314331,1,0,0,1.3508,submitButton,10.91774892,0.045386985,-0.105255353,0,0,0,1,31,91,34,1,50,67765,blockT,180,2022-02-11_10h46.13.057,orientation adjustment block,2021.2.3,MacIntel,29.97062878,,,,,,,
,,,,,,,,,,,,,,,,,,,,,,62.22222222,37,20,75,209.2222222,7.777777778,7.777777778,0.175884332,-0.301675754,1,0,0,1.4376,submitButton,10.87749288,-0.168817591,-0.410665894,0,0,0,1,32,92,21,1,37,67765,blockT,180,2022-02-11_10h46.13.057,orientation adjustment block,2021.2.3,MacIntel,29.97062878,,,,,,,
,,,,,,,,,,,,,,,,,,,,,,-61.66666667,21,20,75,16.33333333,4.666666667,4.666666667,0.209413882,-0.292924443,1,0,0,0.0925,submitButton,10.79887482,-0.167407283,-0.41675432,0,0,0,1,33,93,5,1,21,67765,blockT,180,2022-02-11_10h46.13.057,orientation adjustment block,2021.2.3,MacIntel,29.97062878,,,,,,,
,,,,,,,,,,,,,,,,,,,,,,-42.22222222,66,20,75,46.77777778,19.22222222,19.22222222,-0.229645341,-0.395702447,1,0,0,1.6066,submitButton,10.90416667,-0.221391183,-0.377500633,0,0,0,1,34,94,50,1,66,67765,blockT,180,2022-02-11_10h46.13.057,orientation adjustment block,2021.2.3,MacIntel,29.97062878,,,,,,,
,,,,,,,,,,,,,,,,,,,,,,-41.11111111,-65,20,75,-65.11111111,0.111111111,0.111111111,0.20277936,-0.295626944,1,0,0,0.3107,submitButton,10.77091907,-0.143806458,-0.382526765,0,0,0,1,35,95,49,1,65,67765,blockT,180,2022-02-11_10h46.13.057,orientation adjustment block,2021.2.3,MacIntel,29.97062878,,,,,,,
,,,,,,,,,,,,,,,,,,,,,,-25,-36,20,75,-43,7,7,-0.177738048,-0.393772606,1,0,0,1.1181,submitButton,10.72493225,-0.177738048,-0.393772606,0,0,0,1,36,96,20,1,36,67765,blockT,180,2022-02-11_10h46.13.057,orientation adjustment block,2021.2.3,MacIntel,29.97062878,,,,,,,
,,,,,,,,,,,,,,,,,,,,,,-23.33333333,32,20,75,21.66666667,10.33333333,10.33333333,-0.227900922,-0.402916237,1,0,0,1.0851,submitButton,10.72021419,-0.227900922,-0.402916237,0,0,0,1,37,97,16,1,32,67765,blockT,180,2022-02-11_10h46.13.057,orientation adjustment block,2021.2.3,MacIntel,29.97062878,,,,,,,
,,,,,,,,,,,,,,,,,,,,,,-65.55555556,29,20,75,17.44444444,11.55555556,11.55555556,0.193641719,-0.287722326,1,0,0,0.0466,submitButton,10.73015873,-0.235499064,-0.394096601,0,0,0,1,38,98,13,1,29,67765,blockT,180,2022-02-11_10h46.13.057,orientation adjustment block,2021.2.3,MacIntel,29.97062878,,,,,,,
,,,,,,,,,,,,,,,,,,,,,,-30.55555556,-44,20,75,-47.55555556,3.555555556,3.555555556,0.193449345,-0.322374132,1,0,0,0.3906,submitButton,10.64575163,-0.19499783,-0.413517366,0,0,0,1,39,99,28,1,44,67765,blockT,180,2022-02-11_10h46.13.057,orientation adjustment block,2021.2.3,MacIntel,29.97062878,,,,,,,
,,,,,,,,,,,,,,,,,,,,,,-40.55555556,-42,20,75,-53.55555556,11.55555556,11.55555556,0.200993969,-0.300048772,1,0,0,1.4631,submitButton,10.65633075,-0.046234922,-0.415439408,0,0,0,1,40,100,26,1,42,67765,blockT,180,2022-02-11_10h46.13.057,orientation adjustment block,2021.2.3,MacIntel,29.97062878,,,,,,,
,,,,,,,,,,,,,,,,,,,,,,71.11111111,-69,20,75,-52.88888889,16.11111111,16.11111111,0.441705435,-0.312292876,1,0,0,0.5822,submitButton,10.71902937,0.133608331,-0.340414598,0,0,0,1,41,101,53,1,69,67765,blockT,180,2022-02-11_10h46.13.057,orientation adjustment block,2021.2.3,MacIntel,29.97062878,,,,,,,
,,,,,,,,,,,,,,,,,,,,,,61.11111111,-16,20,75,37.11111111,53.11111111,53.11111111,0.413262035,-0.310709975,1,0,0,0.7546,submitButton,11.20075758,0.040836476,-0.179991206,0,0,0,1,42,102,0,1,16,67765,blockT,180,2022-02-11_10h46.13.057,orientation adjustment block,2021.2.3,MacIntel,29.97062878,,,,,,,
,,,,,,,,,,,,,,,,,,,,,,-53.88888889,-19,20,75,-28.88888889,9.888888889,9.888888889,0.204953229,-0.304668342,1,0,0,0.1476,submitButton,11.18601748,-0.334589414,-0.405980937,0,0,0,1,43,103,3,1,19,67765,blockT,180,2022-02-11_10h46.13.057,orientation adjustment block,2021.2.3,MacIntel,29.97062878,,,,,,,
,,,,,,,,,,,,,,,,,,,,,,-73.33333333,47,20,75,31.66666667,15.33333333,15.33333333,0.185286684,-0.303105672,1,0,0,0.186,submitButton,11.23209877,0.4062205,-0.409634625,1,0,0,1,44,104,31,1,47,67765,blockT,180,2022-02-11_10h46.13.057,orientation adjustment block,2021.2.3,MacIntel,29.97062878,continueButton,,,,,,
,,,,,,,,,,,,,,,,,,,,,,74.44444444,53,20,75,49.44444444,3.555555556,3.555555556,0.381025074,-0.303849623,1,0,0,1.3013,submitButton,11.14774115,0.076814779,-0.302510749,0,0,0,1,45,105,37,1,53,67765,blockT,180,2022-02-11_10h46.13.057,orientation adjustment block,2021.2.3,MacIntel,29.97062878,,,,,,,
,,,,,,,,,,,,,,,,,,,,,,44.44444444,-33,20,75,-29.55555556,3.444444444,3.444444444,0.42897158,-0.308884063,1,0,0,0.0979,submitButton,11.06400966,0.032977973,-0.345637343,0,0,0,1,46,106,17,1,33,67765,blockT,180,2022-02-11_10h46.13.057,orientation adjustment block,2021.2.3,MacIntel,29.97062878,,,,,,,
,,,,,,,,,,,,,,,,,,,,,,60.55555556,-24,20,75,-21.44444444,2.555555556,2.555555556,0.395308431,-0.31108941,1,0,0,0.8515,submitButton,10.97252091,-0.195759017,-0.3962022,0,0,0,1,47,107,8,1,24,67765,blockT,180,2022-02-11_10h46.13.057,orientation adjustment block,2021.2.3,MacIntel,29.97062878,,,,,,,
,,,,,,,,,,,,,,,,,,,,,,-31.11111111,63,20,75,46.88888889,16.11111111,16.11111111,0.191143347,-0.301998901,1,0,0,0.0461,submitButton,11.02718676,-0.230907864,-0.393869019,0,0,0,1,48,108,47,1,63,67765,blockT,180,2022-02-11_10h46.13.057,orientation adjustment block,2021.2.3,MacIntel,29.97062878,,,,,,,
,,,,,,,,,,,,,,,,,,,,,,43.88888889,48,20,75,62.88888889,14.88888889,14.88888889,0.419833035,-0.301576798,1,0,0,0.3426,submitButton,11.06783626,-0.17885454,-0.398282539,0,0,0,1,49,109,32,1,48,67765,blockT,180,2022-02-11_10h46.13.057,orientation adjustment block,2021.2.3,MacIntel,29.97062878,,,,,,,
,,,,,,,,,,,,,,,,,,,,,,-57.77777778,61,20,75,50.22222222,10.77777778,10.77777778,-0.282087425,-0.394249301,1,0,0,3.0687,submitButton,11.06481481,-0.171580449,-0.322767244,0,0,0,1,50,110,45,1,61,67765,blockT,180,2022-02-11_10h46.13.057,orientation adjustment block,2021.2.3,MacIntel,29.97062878,,,,,,,
,,,,,,,,,,,,,,,,,,,,,,-66.11111111,64,20,75,56.88888889,7.111111111,7.111111111,-0.212940131,-0.418069288,1,0,0,3.2056,submitButton,11.02405498,-0.156882392,-0.213725224,0,0,0,1,51,111,48,1,64,67765,blockT,180,2022-02-11_10h46.13.057,orientation adjustment block,2021.2.3,MacIntel,29.97062878,,,,,,,
,,,,,,,,,,,,,,,,,,,,,,73.33333333,28,20,75,60.33333333,32.33333333,32.33333333,0.440174244,-0.308579961,1,0,0,0.3741,submitButton,11.2414966,-0.130663893,-0.360358909,0,0,0,1,52,112,12,1,28,67765,blockT,180,2022-02-11_10h46.13.057,orientation adjustment block,2021.2.3,MacIntel,29.97062878,,,,,,,
,,,,,,,,,,,,,,,,,,,,,,-42.22222222,58,20,75,46.77777778,11.22222222,11.22222222,-0.236200516,-0.403718397,1,0,0,1.8463,submitButton,11.24130191,-0.111709369,-0.308951597,0,0,0,1,53,113,42,1,58,67765,blockT,180,2022-02-11_10h46.13.057,orientation adjustment block,2021.2.3,MacIntel,29.97062878,,,,,,,
,,,,,,,,,,,,,,,,,,,,,,-63.33333333,52,20,75,41.66666667,10.33333333,10.33333333,-0.258183006,-0.415570294,1,0,0,2.8001,submitButton,11.23222222,-0.003854935,-0.143199497,0,0,0,1,54,114,36,1,52,67765,blockT,180,2022-02-11_10h46.13.057,orientation adjustment block,2021.2.3,MacIntel,29.97062878,,,,,,,
,,,,,,,,,,,,,,,,,,,,,,53.33333333,-56,20,75,-57.66666667,1.666666667,1.666666667,0.399894206,-0.300288448,1,0,0,0.4109,submitButton,11.13751375,-0.028730265,-0.157377455,0,0,0,1,55,115,40,1,56,67765,blockT,180,2022-02-11_10h46.13.057,orientation adjustment block,2021.2.3,MacIntel,29.97062878,,,,,,,
,,,,,,,,,,,,,,,,,,,,,,51.66666667,18,20,75,21.66666667,3.666666667,3.666666667,0.393247703,-0.305978167,1,0,0,0.1868,submitButton,11.06427015,-0.211740282,-0.3109028,0,0,0,1,56,116,2,1,18,67765,blockT,180,2022-02-11_10h46.13.057,orientation adjustment block,2021.2.3,MacIntel,29.97062878,,,,,,,
,,,,,,,,,,,,,,,,,,,,,,-43.88888889,71,20,75,18.11111111,52.88888889,52.88888889,0.388384897,-0.28939062,1,0,0,0.3067,submitButton,11.47033441,-0.121954685,-0.201488128,0,0,0,1,57,117,55,1,71,67765,blockT,180,2022-02-11_10h46.13.057,orientation adjustment block,2021.2.3,MacIntel,29.97062878,,,,,,,
,,,,,,,,,,,,,,,,,,,,,,-64.44444444,43,20,75,9.555555556,33.44444444,33.44444444,0.189950901,-0.306140306,1,0,0,0.3582,submitButton,11.68162393,0.082272226,-0.138782982,0,0,0,1,58,118,27,1,43,67765,blockT,180,2022-02-11_10h46.13.057,orientation adjustment block,2021.2.3,MacIntel,29.97062878,,,,,,,
,,,,,,,,,,,,,,,,,,,,,,-70.55555556,-49,20,75,-188.5555556,40.44444444,40.44444444,0.394239977,-0.29165915,1,0,0,0.2355,submitButton,11.95555556,0.477885833,-0.399454074,1,0,0,1,59,119,33,1,49,67765,blockT,180,2022-02-11_10h46.13.057,orientation adjustment block,2021.2.3,MacIntel,29.97062878,continueButton,,,,,,
,,,,,,,,,,,,,,,,,,,,,,73.88888889,56,20,75,156.8888889,79.11111111,79.11111111,0.227338777,-0.301699773,1,0,0,0.5723,submitButton,12.58909853,-0.167869398,-0.175273358,0,0,0,2,0,120,40,1,56,67765,blockT,180,2022-02-11_10h46.13.057,orientation adjustment block,2021.2.3,MacIntel,29.97062878,,,,,,,
,,,,,,,,,,,,,,,,,,,,,,-23.88888889,45,20,75,39.11111111,5.888888889,5.888888889,-0.207747735,-0.395060786,1,0,0,1.1542,submitButton,12.52647975,-0.056446499,-0.20507513,0,0,0,2,1,121,29,1,45,67765,blockT,180,2022-02-11_10h46.13.057,orientation adjustment block,2021.2.3,MacIntel,29.97062878,,,,,,,
,,,,,,,,,,,,,,,,,,,,,,-35.55555556,48,20,75,38.44444444,9.555555556,9.555555556,-0.180849033,-0.408677165,1,0,0,1.6361,submitButton,12.49897119,-0.009214444,-0.204598095,0,0,0,2,2,122,32,1,48,67765,blockT,180,2022-02-11_10h46.13.057,orientation adjustment block,2021.2.3,MacIntel,29.97062878,,,,,,,
,,,,,,,,,,,,,,,,,,,,,,60.55555556,59,20,75,67.55555556,8.555555556,8.555555556,0.405868417,-0.299620621,1,0,0,0.302,submitButton,12.46279307,-0.073519671,-0.319056758,0,0,0,2,3,123,43,1,59,67765,blockT,180,2022-02-11_10h46.13.057,orientation adjustment block,2021.2.3,MacIntel,29.97062878,,,,,,,
,,,,,,,,,,,,,,,,,,,,,,51.66666667,-33,20,75,-23.33333333,9.666666667,9.666666667,-0.183641561,-0.404061268,1,0,0,2.4452,submitButton,12.43737374,-0.092328672,-0.285671828,0,0,0,2,4,124,17,1,33,67765,blockT,180,2022-02-11_10h46.13.057,orientation adjustment block,2021.2.3,MacIntel,29.97062878,,,,,,,
,,,,,,,,,,,,,,,,,,,,,,70,-47,20,75,-26,21,21,0.403131669,-0.297899486,1,0,0,0.2882,submitButton,12.51451451,-0.220660457,-0.35960699,0,0,0,2,5,125,31,1,47,67765,blockT,180,2022-02-11_10h46.13.057,orientation adjustment block,2021.2.3,MacIntel,29.97062878,,,,,,,
,,,,,,,,,,,,,,,,,,,,,,-31.66666667,-44,20,75,-41.66666667,2.333333333,2.333333333,0.166396869,-0.309418742,1,0,0,0.2004,submitButton,12.42361111,-0.2061524,-0.385739701,0,0,0,2,6,126,28,1,44,67765,blockT,180,2022-02-11_10h46.13.057,orientation adjustment block,2021.2.3,MacIntel,29.97062878,,,,,,,
,,,,,,,,,,,,,,,,,,,,,,-57.22222222,63,20,75,49.77777778,13.22222222,13.22222222,-0.224769818,-0.401556736,1,0,0,2.4001,submitButton,12.43067847,-0.215349212,-0.353724783,0,0,0,2,7,127,47,1,63,67765,blockT,180,2022-02-11_10h46.13.057,orientation adjustment block,2021.2.3,MacIntel,29.97062878,,,,,,,
,,,,,,,,,,,,,,,,,,,,,,63.33333333,-26,20,75,-23.66666667,2.333333333,2.333333333,0.412033872,-0.297867726,1,0,0,0.0936,submitButton,12.34210526,-0.158125249,-0.407410742,0,0,0,2,8,128,10,1,26,67765,blockT,180,2022-02-11_10h46.13.057,orientation adjustment block,2021.2.3,MacIntel,29.97062878,,,,,,,
,,,,,,,,,,,,,,,,,,,,,,20,-74,20,75,-70,4,4,0.405547418,-0.299458539,1,0,0,0.1841,submitButton,12.26956522,-0.14897444,-0.273138597,0,0,0,2,9,129,58,1,74,67765,blockT,180,2022-02-11_10h46.13.057,orientation adjustment block,2021.2.3,MacIntel,29.97062878,,,,,,,
,,,,,,,,,,,,,,,,,,,,,,-23.33333333,32,20,75,28.66666667,3.333333333,3.333333333,-0.238167996,-0.414322352,1,0,0,1.2965,submitButton,12.19252874,-0.239923548,-0.390318581,0,0,0,2,10,130,16,1,32,67765,blockT,180,2022-02-11_10h46.13.057,orientation adjustment block,2021.2.3,MacIntel,29.97062878,,,,,,,
,,,,,,,,,,,,,,,,,,,,,,-38.88888889,-71,20,75,-78.88888889,7.888888889,7.888888889,-0.278602431,-0.397769674,1,0,0,1.8415,submitButton,12.15574549,-0.278602431,-0.397134738,0,0,0,2,11,131,55,1,71,67765,blockT,180,2022-02-11_10h46.13.057,orientation adjustment block,2021.2.3,MacIntel,29.97062878,,,,,,,
,,,,,,,,,,,,,,,,,,,,,,-20.55555556,17,20,75,18.44444444,1.444444444,1.444444444,-0.219395955,-0.388175851,1,0,0,1.3991,submitButton,12.06497175,-0.381474361,-0.218137557,0,0,0,2,12,132,1,1,17,67765,blockT,180,2022-02-11_10h46.13.057,orientation adjustment block,2021.2.3,MacIntel,29.97062878,,,,,,,
,,,,,,,,,,,,,,,,,,,,,,-75,60,20,75,23,37,37,-0.223648862,-0.391683903,1,0,0,2.3893,submitButton,12.2745098,-0.217125165,-0.385853294,0,0,0,2,13,133,44,1,60,67765,blockT,180,2022-02-11_10h46.13.057,orientation adjustment block,2021.2.3,MacIntel,29.97062878,,,,,,,
,,,,,,,,,,,,,,,,,,,,,,-27.22222222,-29,20,75,-30.22222222,1.222222222,1.222222222,-0.246663864,-0.433352435,1,0,0,1.7809,submitButton,12.18240741,0.495990894,-0.417972028,1,0,0,2,14,134,13,1,29,67765,blockT,180,2022-02-11_10h46.13.057,orientation adjustment block,2021.2.3,MacIntel,29.97062878,continueButton,,,,,,
,,,,,,,,,,,,,,,,,,,,,,-45.55555556,28,20,75,24.44444444,3.555555556,3.555555556,0.223721313,-0.300454825,1,0,0,0.155,submitButton,12.11111111,0.243184181,-0.066037383,0,0,0,2,15,135,12,1,28,67765,blockT,180,2022-02-11_10h46.13.057,orientation adjustment block,2021.2.3,MacIntel,29.97062878,,,,,,,
,,,,,,,,,,,,,,,,,,,,,,56.11111111,22,20,75,31.11111111,9.111111111,9.111111111,0.422675013,-0.314646177,1,0,0,0.048,submitButton,12.08652095,-0.114636061,-0.220851361,0,0,0,2,16,136,6,1,22,67765,blockT,180,2022-02-11_10h46.13.057,orientation adjustment block,2021.2.3,MacIntel,29.97062878,,,,,,,
,,,,,,,,,,,,,,,,,,,,,,-73.33333333,-46,20,75,-55.33333333,9.333333333,9.333333333,0.181254295,-0.305196748,1,0,0,0.7779,submitButton,12.06413731,-0.251404713,-0.376601947,0,0,0,2,17,137,30,1,46,67765,blockT,180,2022-02-11_10h46.13.057,orientation adjustment block,2021.2.3,MacIntel,29.97062878,,,,,,,
,,,,,,,,,,,,,,,,,,,,,,-71.66666667,65,20,75,47.33333333,17.66666667,17.66666667,-0.303422377,-0.430531368,1,0,0,2.8877,submitButton,12.109319,-0.134880575,-0.347008373,0,0,0,2,18,138,49,1,65,67765,blockT,180,2022-02-11_10h46.13.057,orientation adjustment block,2021.2.3,MacIntel,29.97062878,,,,,,,
,,,,,,,,,,,,,,,,,,,,,,55.55555556,43,20,75,53.55555556,10.55555556,10.55555556,0.357265331,-0.294122088,1,0,0,0.7285,submitButton,12.09688889,-0.114868842,-0.308475353,0,0,0,2,19,139,27,1,43,67765,blockT,180,2022-02-11_10h46.13.057,orientation adjustment block,2021.2.3,MacIntel,29.97062878,,,,,,,
,,,,,,,,,,,,,,,,,,,,,,28.33333333,-73,20,75,-57.66666667,15.33333333,15.33333333,-0.097128013,-0.367512117,1,0,0,0.9618,submitButton,12.12257496,-0.344826931,-0.403378465,0,0,0,2,20,140,57,1,73,67765,blockT,180,2022-02-11_10h46.13.057,orientation adjustment block,2021.2.3,MacIntel,29.97062878,,,,,,,
,,,,,,,,,,,,,,,,,,,,,,-31.66666667,64,20,75,50.33333333,13.66666667,13.66666667,-0.255337411,-0.381429941,1,0,0,1.5638,submitButton,12.13473316,0.048575733,-0.340942326,0,0,0,2,21,141,48,1,64,67765,blockT,180,2022-02-11_10h46.13.057,orientation adjustment block,2021.2.3,MacIntel,29.97062878,,,,,,,
,,,,,,,,,,,,,,,,,,,,,,-70,-23,20,75,-64,41,41,0.182087425,-0.321516249,1,0,0,1.9745,submitButton,12.36024306,-0.137236419,-0.317982709,0,0,0,2,22,142,7,1,23,67765,blockT,180,2022-02-11_10h46.13.057,orientation adjustment block,2021.2.3,MacIntel,29.97062878,,,,,,,
,,,,,,,,,,,,,,,,,,,,,,-73.33333333,-68,20,75,-204.3333333,43.66666667,43.66666667,0.415420645,-0.286399954,1,0,0,0.4642,submitButton,12.60292851,-0.223524193,-0.393315238,0,0,0,2,23,143,52,1,68,67765,blockT,180,2022-02-11_10h46.13.057,orientation adjustment block,2021.2.3,MacIntel,29.97062878,,,,,,,
,,,,,,,,,,,,,,,,,,,,,,-53.33333333,61,20,75,43.66666667,17.33333333,17.33333333,-0.220685493,-0.414039216,1,0,0,2.1647,submitButton,12.63931624,-0.140252912,-0.35213883,0,0,0,2,24,144,45,1,61,67765,blockT,180,2022-02-11_10h46.13.057,orientation adjustment block,2021.2.3,MacIntel,29.97062878,,,,,,,
,,,,,,,,,,,,,,,,,,,,,,60,-38,20,75,-29,9,9,0.411195543,-0.301521132,1,0,0,0.2371,submitButton,12.6115352,-0.124005183,-0.413201283,0,0,0,2,25,145,22,1,38,67765,blockT,180,2022-02-11_10h46.13.057,orientation adjustment block,2021.2.3,MacIntel,29.97062878,,,,,,,
,,,,,,,,,,,,,,,,,,,,,,45.55555556,70,20,75,70.55555556,0.555555556,0.555555556,0.39890295,-0.312882317,1,0,0,0.1861,submitButton,12.52020202,-0.2676009,-0.425635783,0,0,0,2,26,146,54,1,70,67765,blockT,180,2022-02-11_10h46.13.057,orientation adjustment block,2021.2.3,MacIntel,29.97062878,,,,,,,
,,,,,,,,,,,,,,,,,,,,,,-48.88888889,-27,20,75,-37.88888889,10.88888889,10.88888889,0.196660021,-0.298190025,1,0,0,0.7514,submitButton,12.50793651,-0.339049163,-0.379882247,0,0,0,2,27,147,11,1,27,67765,blockT,180,2022-02-11_10h46.13.057,orientation adjustment block,2021.2.3,MacIntel,29.97062878,,,,,,,
,,,,,,,,,,,,,,,,,,,,,,27.77777778,52,20,75,66.77777778,14.77777778,14.77777778,0.386719993,-0.301015388,1,0,0,0.1451,submitButton,12.52487562,-0.174905113,-0.390886208,0,0,0,2,28,148,36,1,52,67765,blockT,180,2022-02-11_10h46.13.057,orientation adjustment block,2021.2.3,MacIntel,29.97062878,,,,,,,
,,,,,,,,,,,,,,,,,,,,,,38.33333333,-31,20,75,-25.66666667,5.333333333,5.333333333,-0.215189559,-0.418892867,1,0,0,2.4517,submitButton,12.47160494,0.325297716,-0.419493216,1,0,0,2,29,149,15,1,31,67765,blockT,180,2022-02-11_10h46.13.057,orientation adjustment block,2021.2.3,MacIntel,29.97062878,continueButton,,,,,,
,,,,,,,,,,,,,,,,,,,,,,-57.22222222,-72,20,75,-79.22222222,7.222222222,7.222222222,0.211301676,-0.304404308,1,0,0,0.5551,submitButton,12.43300654,-0.222074947,-0.376883613,0,0,0,2,30,150,56,1,72,67765,blockT,180,2022-02-11_10h46.13.057,orientation adjustment block,2021.2.3,MacIntel,29.97062878,,,,,,,
,,,,,,,,,,,,,,,,,,,,,,21.66666667,36,20,75,74.66666667,38.66666667,38.66666667,0.232894219,-0.314551968,1,0,0,1.2622,submitButton,12.62449311,-0.163378341,-0.423352729,0,0,0,2,31,151,20,1,36,67765,blockT,180,2022-02-11_10h46.13.057,orientation adjustment block,2021.2.3,MacIntel,29.97062878,,,,,,,
,,,,,,,,,,,,,,,,,,,,,,69.44444444,-51,20,75,105.4444444,23.55555556,23.55555556,0.176433535,-0.299033384,1,0,0,0.6477,submitButton,12.7037037,-0.193475963,-0.162531139,0,0,0,2,32,152,35,1,51,67765,blockT,180,2022-02-11_10h46.13.057,orientation adjustment block,2021.2.3,MacIntel,29.97062878,,,,,,,
,,,,,,,,,,,,,,,,,,,,,,-40.55555556,62,20,75,66.44444444,4.444444444,4.444444444,0.171837136,-0.290962106,1,0,0,0.1475,submitButton,12.64428457,0.013863627,-0.153531731,0,0,0,2,33,153,46,1,62,67765,blockT,180,2022-02-11_10h46.13.057,orientation adjustment block,2021.2.3,MacIntel,29.97062878,,,,,,,
,,,,,,,,,,,,,,,,,,,,,,41.11111111,19,20,75,22.11111111,3.111111111,3.111111111,0.432058829,-0.3037015,1,0,0,0.094,submitButton,12.57619048,-0.154298514,-0.399274981,0,0,0,2,34,154,3,1,19,67765,blockT,180,2022-02-11_10h46.13.057,orientation adjustment block,2021.2.3,MacIntel,29.97062878,,,,,,,
,,,,,,,,,,,,,,,,,,,,,,-41.11111111,49,20,75,33.88888889,15.11111111,15.11111111,-0.220840793,-0.411595606,1,0,0,1.8497,submitButton,12.59416864,-0.220840793,-0.411595606,0,0,0,2,35,155,33,1,49,67765,blockT,180,2022-02-11_10h46.13.057,orientation adjustment block,2021.2.3,MacIntel,29.97062878,,,,,,,
,,,,,,,,,,,,,,,,,,,,,,32.22222222,20,20,75,23.22222222,3.222222222,3.222222222,0.393868001,-0.293343042,1,0,0,0.145,submitButton,12.52816901,0.011262625,-0.203155518,0,0,0,2,36,156,4,1,20,67765,blockT,180,2022-02-11_10h46.13.057,orientation adjustment block,2021.2.3,MacIntel,29.97062878,,,,,,,
,,,,,,,,,,,,,,,,,,,,,,-43.88888889,-58,20,75,-201.8888889,36.11111111,36.11111111,0.384456041,-0.292956995,1,0,0,0.6707,submitButton,12.69308469,0.063047734,-0.145757378,0,0,0,2,37,157,42,1,58,67765,blockT,180,2022-02-11_10h46.13.057,orientation adjustment block,2021.2.3,MacIntel,29.97062878,,,,,,,
,,,,,,,,,,,,,,,,,,,,,,-25,54,20,75,44,10,10,-0.256796095,-0.368449967,1,0,0,0.9234,submitButton,12.67438272,-0.096541454,-0.268697159,0,0,0,2,38,158,38,1,54,67765,blockT,180,2022-02-11_10h46.13.057,orientation adjustment block,2021.2.3,MacIntel,29.97062878,,,,,,,
,,,,,,,,,,,,,,,,,,,,,,75,50,20,75,61,11,11,0.419796075,-0.292318726,1,0,0,0.4382,submitButton,12.66283525,-0.120766082,-0.382720439,0,0,0,2,39,159,34,1,50,67765,blockT,180,2022-02-11_10h46.13.057,orientation adjustment block,2021.2.3,MacIntel,29.97062878,,,,,,,
,,,,,,,,,,,,,,,,,,,,,,67.77777778,39,20,75,49.77777778,10.77777778,10.77777778,0.389670252,-0.2838345,1,0,0,0.5671,submitButton,12.6499239,-0.012217317,-0.34245888,0,0,0,2,40,160,23,1,39,67765,blockT,180,2022-02-11_10h46.13.057,orientation adjustment block,2021.2.3,MacIntel,29.97062878,,,,,,,
,,,,,,,,,,,,,,,,,,,,,,-74.44444444,-24,20,75,-163.4444444,40.55555556,40.55555556,0.39016588,-0.303521163,1,0,0,0.1023,submitButton,12.83975813,-0.295472943,-0.392004395,0,0,0,2,41,161,8,1,24,67765,blockT,180,2022-02-11_10h46.13.057,orientation adjustment block,2021.2.3,MacIntel,29.97062878,,,,,,,
,,,,,,,,,,,,,,,,,,,,,,47.77777778,55,20,75,44.77777778,10.22222222,10.22222222,0.368061433,-0.285342125,1,0,0,0.474,submitButton,12.82207207,-0.250156092,-0.429944017,0,0,0,2,42,162,39,1,55,67765,blockT,180,2022-02-11_10h46.13.057,orientation adjustment block,2021.2.3,MacIntel,29.97062878,,,,,,,
,,,,,,,,,,,,,,,,,,,,,,-25.55555556,21,20,75,23.44444444,2.444444444,2.444444444,-0.339281322,-0.40183778,1,0,0,1.7766,submitButton,12.75242356,-0.040890107,-0.290992511,0,0,0,2,43,163,5,1,21,67765,blockT,180,2022-02-11_10h46.13.057,orientation adjustment block,2021.2.3,MacIntel,29.97062878,,,,,,,
,,,,,,,,,,,,,,,,,,,,,,57.77777778,42,20,75,48.77777778,6.777777778,6.777777778,0.435989154,-0.301808675,1,0,0,1.353,submitButton,12.71259259,0.353654084,-0.41745046,1,0,0,2,44,164,26,1,42,67765,blockT,180,2022-02-11_10h46.13.057,orientation adjustment block,2021.2.3,MacIntel,29.97062878,continueButton,,,,,,
,,,,,,,,,,,,,,,,,,,,,,33.88888889,-57,20,75,-9.111111111,47.88888889,47.88888889,0.209198224,-0.307928071,1,0,0,0.7898,submitButton,12.9455482,0.115449806,-0.2728341,0,0,0,2,45,165,41,1,57,67765,blockT,180,2022-02-11_10h46.13.057,orientation adjustment block,2021.2.3,MacIntel,29.97062878,,,,,,,
,,,,,,,,,,,,,,,,,,,,,,66.11111111,-40,20,75,-33.88888889,6.111111111,6.111111111,0.425952148,-0.306350482,1,0,0,0.3961,submitButton,12.9005848,-0.030546796,-0.324103235,0,0,0,2,46,166,24,1,40,67765,blockT,180,2022-02-11_10h46.13.057,orientation adjustment block,2021.2.3,MacIntel,29.97062878,,,,,,,
,,,,,,,,,,,,,,,,,,,,,,66.66666667,-66,20,75,-45.33333333,20.66666667,20.66666667,-0.161496593,-0.408661397,1,0,0,3.0349,submitButton,12.9513435,0.044410875,-0.298680341,0,0,0,2,47,167,50,1,66,67765,blockT,180,2022-02-11_10h46.13.057,orientation adjustment block,2021.2.3,MacIntel,29.97062878,,,,,,,
,,,,,,,,,,,,,,,,,,,,,,-28.88888889,-75,20,75,-74.88888889,0.111111111,0.111111111,0.177968908,-0.308686659,1,0,0,0.4644,submitButton,12.86796537,0.029829633,-0.311426629,0,0,0,2,48,168,59,1,75,67765,blockT,180,2022-02-11_10h46.13.057,orientation adjustment block,2021.2.3,MacIntel,29.97062878,,,,,,,
,,,,,,,,,,,,,,,,,,,,,,67.22222222,-67,20,75,-59.77777778,7.222222222,7.222222222,0.416666328,-0.291742791,1,0,0,0.1599,submitButton,12.83154122,0.061669018,-0.288493969,0,0,0,2,49,169,51,1,67,67765,blockT,180,2022-02-11_10h46.13.057,orientation adjustment block,2021.2.3,MacIntel,29.97062878,,,,,,,
,,,,,,,,,,,,,,,,,,,,,,74.44444444,-41,20,75,-34.55555556,6.444444444,6.444444444,0.422535536,-0.30663147,1,0,0,0.2779,submitButton,12.79059829,0.042125278,-0.294306211,0,0,0,2,50,170,25,1,41,67765,blockT,180,2022-02-11_10h46.13.057,orientation adjustment block,2021.2.3,MacIntel,29.97062878,,,,,,,
,,,,,,,,,,,,,,,,,,,,,,-61.66666667,-30,20,75,-30.66666667,0.666666667,0.666666667,0.160451818,-0.301423136,1,0,0,0.2567,submitButton,12.7133758,-0.013954163,-0.326135876,0,0,0,2,51,171,14,1,30,67765,blockT,180,2022-02-11_10h46.13.057,orientation adjustment block,2021.2.3,MacIntel,29.97062878,,,,,,,
,,,,,,,,,,,,,,,,,,,,,,32.77777778,-18,20,75,-22.22222222,4.222222222,4.222222222,0.424959536,-0.293855342,1,0,0,0.1109,submitButton,12.65963432,0.019756515,-0.301059469,0,0,0,2,52,172,2,1,18,67765,blockT,180,2022-02-11_10h46.13.057,orientation adjustment block,2021.2.3,MacIntel,29.97062878,,,,,,,
,,,,,,,,,,,,,,,,,,,,,,31.11111111,-34,20,75,-24.88888889,9.111111111,9.111111111,0.426906783,-0.290307052,1,0,0,0.0498,submitButton,12.63731656,0.019318814,-0.284256434,0,0,0,2,53,173,18,1,34,67765,blockT,180,2022-02-11_10h46.13.057,orientation adjustment block,2021.2.3,MacIntel,29.97062878,,,,,,,
,,,,,,,,,,,,,,,,,,,,,,58.88888889,-35,20,75,-23.11111111,11.88888889,11.88888889,0.409225464,-0.291240607,1,0,0,2.3749,submitButton,12.63263889,0.026959794,-0.192036042,0,0,0,2,54,174,19,1,35,67765,blockT,180,2022-02-11_10h46.13.057,orientation adjustment block,2021.2.3,MacIntel,29.97062878,,,,,,,
,,,,,,,,,,,,,,,,,,,,,,-75,16,20,75,29,13,13,0.174076787,-0.303346196,1,0,0,1.2661,submitButton,12.63492063,-0.08491324,-0.227473732,0,0,0,2,55,175,0,1,16,67765,blockT,180,2022-02-11_10h46.13.057,orientation adjustment block,2021.2.3,MacIntel,29.97062878,,,,,,,
,,,,,,,,,,,,,,,,,,,,,,73.88888889,25,20,75,29.88888889,4.888888889,4.888888889,0.380178042,-0.305970538,1,0,0,1.4851,submitButton,12.58710562,-0.079580462,-0.253160943,0,0,0,2,56,176,9,1,25,67765,blockT,180,2022-02-11_10h46.13.057,orientation adjustment block,2021.2.3,MacIntel,29.97062878,,,,,,,
,,,,,,,,,,,,,,,,,,,,,,38.88888889,53,20,75,35.88888889,17.11111111,17.11111111,0.422625732,-0.306122561,1,0,0,0.4303,submitButton,12.61486026,-0.031377326,-0.009663109,0,0,0,2,57,177,37,1,53,67765,blockT,180,2022-02-11_10h46.13.057,orientation adjustment block,2021.2.3,MacIntel,29.97062878,,,,,,,
,,,,,,,,,,,,,,,,,,,,,,-40,-37,20,75,-23,14,14,0.189096861,-0.320541721,1,0,0,0.0485,submitButton,12.62330623,-0.143125859,-0.399993783,0,0,0,2,58,178,21,1,37,67765,blockT,180,2022-02-11_10h46.13.057,orientation adjustment block,2021.2.3,MacIntel,29.97062878,,,,,,,
,,,,,,,,,,,,,,,,,,,,,,72.77777778,69,20,75,206.7777778,42.22222222,42.22222222,0.179468904,-0.310045482,1,0,0,0.1981,submitButton,12.8026936,-0.138842886,-0.382503255,0,0,0,2,59,179,53,1,69,67765,blockT,180,2022-02-11_10h46.13.057,orientation adjustment block,2021.2.3,MacIntel,29.97062878,,,,,,,
,,,,,,,,,,,,,,,,,,,,,,,,,,,,,,,,,,,,,,,,,,,,,,,,67765,blockT,180,2022-02-11_10h46.13.057,orientation adjustment block,2021.2.3,MacIntel,29.97062878,,0.391207321,-0.413558621,1,0,0,EndButtonTxt
