consentMouse1.x,consentMouse1.y,consentMouse1.leftButton,consentMouse1.midButton,consentMouse1.rightButton,consentMouse1.clicked_name,consent_Mouse.x,consent_Mouse.y,consent_Mouse.leftButton,consent_Mouse.midButton,consent_Mouse.rightButton,consent_Mouse.clicked_name,startMouse.x,startMouse.y,startMouse.leftButton,startMouse.midButton,startMouse.rightButton,startMouse_2.x,startMouse_2.y,startMouse_2.leftButton,startMouse_2.midButton,startMouse_2.rightButton,start_distance,fixedOri,minimalDistance,maxOri,this_ori,accuracy,presented_accuracy,submitMouse.x,submitMouse.y,submitMouse.leftButton,submitMouse.midButton,submitMouse.rightButton,submitMouse.time,submitMouse.clicked_name,block_accuracy,continueMouse.x,continueMouse.y,continueMouse.leftButton,continueMouse.midButton,continueMouse.rightButton,trials.thisRepN,trials.thisTrialN,trials.thisN,trials.thisIndex,trials.ran,startOri,participant,condition,nTrials,date,expName,psychopyVersion,OS,frameRate,continueMouse.clicked_name,EndButtonMouse.x,EndButtonMouse.y,EndButtonMouse.leftButton,EndButtonMouse.midButton,EndButtonMouse.rightButton,EndButtonMouse.clicked_name
0.423027344,-0.407773438,1,0,0,consent_button1,0.376201172,-0.416132813,1,0,0,consent_button,-0.036479492,-0.134765625,1,0,0,-0.123549805,0.023154297,1,0,0,51.66666667,-73,20,75,-32.33333333,40.66666667,40.66666667,0.395292969,-0.314799805,1,0,0,2.1496,submitButton,40.66666667,-0.274648438,-0.418564453,0,0,0,0,0,0,57,1,73,68812,blockT,180,2022-02-15_10h08.49.228,orientation adjustment block,2021.2.3,MacIntel,59.97720866,,,,,,,
,,,,,,,,,,,,,,,,,,,,,,-60.55555556,-60,20,75,-222.5555556,17.44444444,17.44444444,0.385595703,-0.239599609,1,0,0,0.534,submitButton,29.05555556,0.123774414,0.035693359,0,0,0,0,1,1,44,1,60,68812,blockT,180,2022-02-15_10h08.49.228,orientation adjustment block,2021.2.3,MacIntel,59.97720866,,,,,,,
,,,,,,,,,,,,,,,,,,,,,,-73.33333333,-48,20,75,-250.3333333,22.33333333,22.33333333,0.349775391,-0.269448242,1,0,0,0.2171,submitButton,26.81481481,0.520634766,-0.353666992,0,0,0,0,2,2,32,1,48,68812,blockT,180,2022-02-15_10h08.49.228,orientation adjustment block,2021.2.3,MacIntel,59.97720866,,,,,,,
,,,,,,,,,,,,,,,,,,,,,,43.88888889,52,20,75,211.8888889,20.11111111,20.11111111,0.187558594,-0.274047852,1,0,0,0.1165,submitButton,20.11111111,-0.200449219,-0.378022461,0,0,0,0,3,3,36,1,52,68812,blockT,180,2022-02-15_10h08.49.228,orientation adjustment block,2021.2.3,MacIntel,59.97720866,,,,,,,
,,,,,,,,,,,,,,,,,,,,,,-48.33333333,62,20,75,56.66666667,5.333333333,5.333333333,-0.342705078,-0.407822266,1,0,0,0.8505,submitButton,12.72222222,-0.342705078,-0.407529297,0,0,0,0,4,4,46,1,62,68812,blockT,180,2022-02-15_10h08.49.228,orientation adjustment block,2021.2.3,MacIntel,59.97720866,,,,,,,
,,,,,,,,,,,,,,,,,,,,,,48.88888889,-30,20,75,-21.11111111,8.888888889,8.888888889,-0.152675781,-0.410185547,1,0,0,1.2347,submitButton,11.44444444,0.350307617,-0.337070313,0,0,0,0,5,5,14,1,30,68812,blockT,180,2022-02-15_10h08.49.228,orientation adjustment block,2021.2.3,MacIntel,59.97720866,,,,,,,
,,,,,,,,,,,,,,,,,,,,,,-65.55555556,36,20,75,36.44444444,0.444444444,0.444444444,0.240356445,-0.290947266,1,0,0,0.134,submitButton,0.444444444,-0.130576172,-0.266748047,0,0,0,0,6,6,20,1,36,68812,blockT,180,2022-02-15_10h08.49.228,orientation adjustment block,2021.2.3,MacIntel,59.97720866,,,,,,,
,,,,,,,,,,,,,,,,,,,,,,46.66666667,-33,20,75,-41.33333333,8.333333333,8.333333333,0.443398438,-0.282480469,1,0,0,0.0829,submitButton,4.388888889,0.171953125,-0.238789063,0,0,0,0,7,7,17,1,33,68812,blockT,180,2022-02-15_10h08.49.228,orientation adjustment block,2021.2.3,MacIntel,59.97720866,,,,,,,
,,,,,,,,,,,,,,,,,,,,,,50.55555556,-18,20,75,-12.44444444,5.555555556,5.555555556,0.357573242,-0.306464844,1,0,0,0.065,submitButton,4.777777778,-0.012314453,-0.054882813,0,0,0,0,8,8,2,1,18,68812,blockT,180,2022-02-15_10h08.49.228,orientation adjustment block,2021.2.3,MacIntel,59.97720866,,,,,,,
,,,,,,,,,,,,,,,,,,,,,,55.55555556,-74,20,75,-81.44444444,7.444444444,7.444444444,0.366025391,-0.298442383,1,0,0,0.6827,submitButton,7.444444444,-0.143808594,-0.24230957,0,0,0,0,9,9,58,1,74,68812,blockT,180,2022-02-15_10h08.49.228,orientation adjustment block,2021.2.3,MacIntel,59.97720866,,,,,,,
,,,,,,,,,,,,,,,,,,,,,,29.44444444,-25,20,75,-36.55555556,11.55555556,11.55555556,0.358735352,-0.289648438,1,0,0,0.0671,submitButton,9.5,0.033779297,-0.277841797,0,0,0,0,10,10,9,1,25,68812,blockT,180,2022-02-15_10h08.49.228,orientation adjustment block,2021.2.3,MacIntel,59.97720866,,,,,,,
,,,,,,,,,,,,,,,,,,,,,,-49.44444444,-28,20,75,-39.44444444,11.44444444,11.44444444,0.215214844,-0.284399414,1,0,0,0.4488,submitButton,10.14814815,0.138129883,-0.330131836,0,0,0,0,11,11,12,1,28,68812,blockT,180,2022-02-15_10h08.49.228,orientation adjustment block,2021.2.3,MacIntel,59.97720866,,,,,,,
,,,,,,,,,,,,,,,,,,,,,,-23.88888889,17,20,75,33.11111111,16.11111111,16.11111111,-0.193125,-0.397265625,1,0,0,1.0183,submitButton,16.11111111,0.244633789,-0.202426758,0,0,0,0,12,12,1,1,17,68812,blockT,180,2022-02-15_10h08.49.228,orientation adjustment block,2021.2.3,MacIntel,59.97720866,,,,,,,
,,,,,,,,,,,,,,,,,,,,,,52.22222222,27,20,75,46.22222222,19.22222222,19.22222222,0.384780273,-0.29703125,1,0,0,1.068,submitButton,17.66666667,-0.34793457,-0.422016602,0,0,0,0,13,13,11,1,27,68812,blockT,180,2022-02-15_10h08.49.228,orientation adjustment block,2021.2.3,MacIntel,59.97720866,,,,,,,
,,,,,,,,,,,,,,,,,,,,,,54.44444444,-42,20,75,57.44444444,80.55555556,80.55555556,0.351645508,-0.287739258,1,0,0,0.1502,submitButton,38.62962963,0.332402344,-0.392158203,1,0,0,0,14,14,26,1,42,68812,blockT,180,2022-02-15_10h08.49.228,orientation adjustment block,2021.2.3,MacIntel,59.97720866,continueButton,,,,,,
,,,,,,,,,,,,,,,,,,,,,,-59.44444444,-54,20,75,-40.44444444,13.55555556,13.55555556,0.247705078,-0.297734375,1,0,0,0.0676,submitButton,13.55555556,-0.397568359,-0.499702148,0,0,0,0,15,15,38,1,54,68812,blockT,180,2022-02-15_10h08.49.228,orientation adjustment block,2021.2.3,MacIntel,59.97720866,,,,,,,
,,,,,,,,,,,,,,,,,,,,,,-75,-23,20,75,-51,28,28,0.191787109,-0.282729492,1,0,0,0.8502,submitButton,20.77777778,-0.183549805,-0.407182617,0,0,0,0,16,16,7,1,23,68812,blockT,180,2022-02-15_10h08.49.228,orientation adjustment block,2021.2.3,MacIntel,59.97720866,,,,,,,
,,,,,,,,,,,,,,,,,,,,,,56.11111111,-65,20,75,-53.88888889,11.11111111,11.11111111,0.386293945,-0.268452148,1,0,0,0.4978,submitButton,17.55555556,0.212543945,-0.294931641,0,0,0,0,17,17,49,1,65,68812,blockT,180,2022-02-15_10h08.49.228,orientation adjustment block,2021.2.3,MacIntel,59.97720866,,,,,,,
,,,,,,,,,,,,,,,,,,,,,,51.11111111,-41,20,75,-42.88888889,1.888888889,1.888888889,0.396298828,-0.297680664,1,0,0,0.1678,submitButton,13.63888889,0.260595703,-0.240629883,0,0,0,0,18,18,25,1,41,68812,blockT,180,2022-02-15_10h08.49.228,orientation adjustment block,2021.2.3,MacIntel,59.97720866,,,,,,,
,,,,,,,,,,,,,,,,,,,,,,-22.22222222,19,20,75,32.77777778,13.77777778,13.77777778,-0.172963867,-0.387480469,1,0,0,1.0996,submitButton,13.66666667,-0.178115234,-0.384243164,0,0,0,0,19,19,3,1,19,68812,blockT,180,2022-02-15_10h08.49.228,orientation adjustment block,2021.2.3,MacIntel,59.97720866,,,,,,,
,,,,,,,,,,,,,,,,,,,,,,-40.55555556,-57,20,75,-226.5555556,10.44444444,10.44444444,0.421147461,-0.309672852,1,0,0,1.9351,submitButton,13.12962963,-0.118925781,-0.417543945,0,0,0,0,20,20,41,1,57,68812,blockT,180,2022-02-15_10h08.49.228,orientation adjustment block,2021.2.3,MacIntel,59.97720866,,,,,,,
,,,,,,,,,,,,,,,,,,,,,,-25,-55,20,75,-43,12,12,0.222841797,-0.295219727,1,0,0,0.414,submitButton,12.96825397,-0.126420898,-0.41171875,0,0,0,0,21,21,39,1,55,68812,blockT,180,2022-02-15_10h08.49.228,orientation adjustment block,2021.2.3,MacIntel,59.97720866,,,,,,,
,,,,,,,,,,,,,,,,,,,,,,-36.66666667,-20,20,75,-21.66666667,1.666666667,1.666666667,-0.212939453,-0.398300781,1,0,0,1.185,submitButton,11.55555556,0.072558594,-0.303793945,0,0,0,0,22,22,4,1,20,68812,blockT,180,2022-02-15_10h08.49.228,orientation adjustment block,2021.2.3,MacIntel,59.97720866,,,,,,,
,,,,,,,,,,,,,,,,,,,,,,45,35,20,75,206,9,9,-0.150541992,-0.400263672,1,0,0,2.4998,submitButton,11.27160494,-0.150541992,-0.400263672,0,0,0,0,23,23,19,1,35,68812,blockT,180,2022-02-15_10h08.49.228,orientation adjustment block,2021.2.3,MacIntel,59.97720866,,,,,,,
,,,,,,,,,,,,,,,,,,,,,,-43.88888889,69,20,75,57.11111111,11.88888889,11.88888889,0.204008789,-0.321044922,1,0,0,0.0178,submitButton,11.33333333,-0.28050293,-0.397895508,0,0,0,0,24,24,53,1,69,68812,blockT,180,2022-02-15_10h08.49.228,orientation adjustment block,2021.2.3,MacIntel,59.97720866,,,,,,,
,,,,,,,,,,,,,,,,,,,,,,67.77777778,31,20,75,202.7777778,8.222222222,8.222222222,0.208256836,-0.284624023,1,0,0,1.7836,submitButton,11.05050505,0.134946289,-0.037329102,0,0,0,0,25,25,15,1,31,68812,blockT,180,2022-02-15_10h08.49.228,orientation adjustment block,2021.2.3,MacIntel,59.97720866,,,,,,,
,,,,,,,,,,,,,,,,,,,,,,56.11111111,46,20,75,220.1111111,5.888888889,5.888888889,0.196484375,-0.284672852,1,0,0,0.0828,submitButton,10.62037037,-0.194477539,-0.423696289,0,0,0,0,26,26,30,1,46,68812,blockT,180,2022-02-15_10h08.49.228,orientation adjustment block,2021.2.3,MacIntel,59.97720866,,,,,,,
,,,,,,,,,,,,,,,,,,,,,,-58.88888889,53,20,75,49.11111111,3.888888889,3.888888889,0.162714844,-0.309794922,1,0,0,1.4996,submitButton,10.1025641,-0.117836914,-0.405932617,0,0,0,0,27,27,37,1,53,68812,blockT,180,2022-02-15_10h08.49.228,orientation adjustment block,2021.2.3,MacIntel,59.97720866,,,,,,,
,,,,,,,,,,,,,,,,,,,,,,39.44444444,43,20,75,54.44444444,11.44444444,11.44444444,0.388149414,-0.281889648,1,0,0,3.0476,submitButton,10.1984127,0.264711914,-0.294082031,0,0,0,0,28,28,27,1,43,68812,blockT,180,2022-02-15_10h08.49.228,orientation adjustment block,2021.2.3,MacIntel,59.97720866,,,,,,,
,,,,,,,,,,,,,,,,,,,,,,47.77777778,24,20,75,42.77777778,18.77777778,18.77777778,-0.11987793,-0.412373047,1,0,0,1.3338,submitButton,10.77037037,0.305229492,-0.387900391,1,0,0,0,29,29,8,1,24,68812,blockT,180,2022-02-15_10h08.49.228,orientation adjustment block,2021.2.3,MacIntel,59.97720866,continueButton,,,,,,
,,,,,,,,,,,,,,,,,,,,,,62.77777778,37,20,75,64.77777778,27.77777778,27.77777778,0.383505859,-0.282963867,1,0,0,0.2158,submitButton,11.83333333,-0.192666016,-0.400517578,0,0,0,0,30,30,21,1,37,68812,blockT,180,2022-02-15_10h08.49.228,orientation adjustment block,2021.2.3,MacIntel,59.97720866,,,,,,,
,,,,,,,,,,,,,,,,,,,,,,-57.22222222,-50,20,75,-206.2222222,23.77777778,23.77777778,0.384150391,-0.303647461,1,0,0,0.2991,submitButton,12.53594771,0.008950195,-0.269755859,0,0,0,0,31,31,34,1,50,68812,blockT,180,2022-02-15_10h08.49.228,orientation adjustment block,2021.2.3,MacIntel,59.97720866,,,,,,,
,,,,,,,,,,,,,,,,,,,,,,69.44444444,-21,20,75,-15.55555556,5.444444444,5.444444444,-0.244326172,-0.449277344,1,0,0,1.5843,submitButton,12.14197531,0.374404297,-0.312880859,0,0,0,0,32,32,5,1,21,68812,blockT,180,2022-02-15_10h08.49.228,orientation adjustment block,2021.2.3,MacIntel,59.97720866,,,,,,,
,,,,,,,,,,,,,,,,,,,,,,55,45,20,75,224,1,1,-0.137451172,-0.400805664,1,0,0,2.5327,submitButton,11.55555556,-0.137451172,-0.400805664,0,0,0,0,33,33,29,1,45,68812,blockT,180,2022-02-15_10h08.49.228,orientation adjustment block,2021.2.3,MacIntel,59.97720866,,,,,,,
,,,,,,,,,,,,,,,,,,,,,,72.22222222,-68,20,75,-45.77777778,22.22222222,22.22222222,0.374609375,-0.299692383,1,0,0,0.153,submitButton,12.08888889,0.369433594,-0.246108398,0,0,0,0,34,34,52,1,68,68812,blockT,180,2022-02-15_10h08.49.228,orientation adjustment block,2021.2.3,MacIntel,59.97720866,,,,,,,
,,,,,,,,,,,,,,,,,,,,,,-23.33333333,56,20,75,1.666666667,54.33333333,54.33333333,0.398588867,-0.300888672,1,0,0,0.903,submitButton,14.1005291,0.468852539,-0.241464844,0,0,0,0,35,35,40,1,56,68812,blockT,180,2022-02-15_10h08.49.228,orientation adjustment block,2021.2.3,MacIntel,59.97720866,,,,,,,
,,,,,,,,,,,,,,,,,,,,,,38.88888889,40,20,75,143.8888889,76.11111111,76.11111111,0.211977539,-0.27706543,1,0,0,1.0336,submitButton,16.91919192,-0.190332031,-0.385424805,0,0,0,0,36,36,24,1,40,68812,blockT,180,2022-02-15_10h08.49.228,orientation adjustment block,2021.2.3,MacIntel,59.97720866,,,,,,,
,,,,,,,,,,,,,,,,,,,,,,66.11111111,16,20,75,176.1111111,19.88888889,19.88888889,0.233349609,-0.306459961,1,0,0,0.1832,submitButton,17.04830918,0.268413086,-0.262700195,0,0,0,0,37,37,0,1,16,68812,blockT,180,2022-02-15_10h08.49.228,orientation adjustment block,2021.2.3,MacIntel,59.97720866,,,,,,,
,,,,,,,,,,,,,,,,,,,,,,41.11111111,22,20,75,166.1111111,35.88888889,35.88888889,0.24394043,-0.309453125,1,0,0,0.2498,submitButton,17.83333333,-0.149155273,-0.416420898,0,0,0,0,38,38,6,1,22,68812,blockT,180,2022-02-15_10h08.49.228,orientation adjustment block,2021.2.3,MacIntel,59.97720866,,,,,,,
,,,,,,,,,,,,,,,,,,,,,,32.77777778,32,20,75,37.77777778,5.777777778,5.777777778,0.373920898,-0.262924805,1,0,0,0.25,submitButton,17.35111111,-0.189316406,-0.42262207,0,0,0,0,39,39,16,1,32,68812,blockT,180,2022-02-15_10h08.49.228,orientation adjustment block,2021.2.3,MacIntel,59.97720866,,,,,,,
,,,,,,,,,,,,,,,,,,,,,,48.88888889,67,20,75,224.8888889,22.11111111,22.11111111,0.202319336,-0.282910156,1,0,0,0.0341,submitButton,17.53418803,0.282695313,-0.382885742,0,0,0,0,40,40,51,1,67,68812,blockT,180,2022-02-15_10h08.49.228,orientation adjustment block,2021.2.3,MacIntel,59.97720866,,,,,,,
,,,,,,,,,,,,,,,,,,,,,,23.88888889,-39,20,75,-43.11111111,4.111111111,4.111111111,-0.098994141,-0.405712891,1,0,0,0.8167,submitButton,17.03703704,0.330883789,-0.299658203,0,0,0,0,41,41,23,1,39,68812,blockT,180,2022-02-15_10h08.49.228,orientation adjustment block,2021.2.3,MacIntel,59.97720866,,,,,,,
,,,,,,,,,,,,,,,,,,,,,,29.44444444,-44,20,75,-50.55555556,6.555555556,6.555555556,-0.092617188,-0.398286133,1,0,0,0.8681,submitButton,16.66269841,0.265087891,-0.301635742,0,0,0,0,42,42,28,1,44,68812,blockT,180,2022-02-15_10h08.49.228,orientation adjustment block,2021.2.3,MacIntel,59.97720866,,,,,,,
,,,,,,,,,,,,,,,,,,,,,,42.77777778,-63,20,75,-67.22222222,4.222222222,4.222222222,-0.13902832,-0.400449219,1,0,0,1.084,submitButton,16.23371648,-0.136264648,-0.400751953,0,0,0,0,43,43,47,1,63,68812,blockT,180,2022-02-15_10h08.49.228,orientation adjustment block,2021.2.3,MacIntel,59.97720866,,,,,,,
,,,,,,,,,,,,,,,,,,,,,,-43.88888889,-64,20,75,-240.8888889,3.111111111,3.111111111,-0.167421875,-0.41347168,1,0,0,2.6342,submitButton,15.7962963,0.334995117,-0.421850586,1,0,0,0,44,44,48,1,64,68812,blockT,180,2022-02-15_10h08.49.228,orientation adjustment block,2021.2.3,MacIntel,59.97720866,continueButton,,,,,,
,,,,,,,,,,,,,,,,,,,,,,51.11111111,71,20,75,216.1111111,34.88888889,34.88888889,-0.243808594,-0.390107422,1,0,0,2.0515,submitButton,16.41218638,0.300913086,-0.313886719,0,0,0,0,45,45,55,1,71,68812,blockT,180,2022-02-15_10h08.49.228,orientation adjustment block,2021.2.3,MacIntel,59.97720866,,,,,,,
,,,,,,,,,,,,,,,,,,,,,,-70,-59,20,75,-221,18,18,-0.152714844,-0.419746094,1,0,0,1.5841,submitButton,16.46180556,0.217177734,-0.345996094,0,0,0,0,46,46,43,1,59,68812,blockT,180,2022-02-15_10h08.49.228,orientation adjustment block,2021.2.3,MacIntel,59.97720866,,,,,,,
,,,,,,,,,,,,,,,,,,,,,,73.88888889,-72,20,75,-52.11111111,19.88888889,19.88888889,0.392944336,-0.289619141,1,0,0,0.5669,submitButton,16.56565657,0.240170898,-0.307905273,0,0,0,0,47,47,56,1,72,68812,blockT,180,2022-02-15_10h08.49.228,orientation adjustment block,2021.2.3,MacIntel,59.97720866,,,,,,,
,,,,,,,,,,,,,,,,,,,,,,54.44444444,-49,20,75,-50.55555556,1.555555556,1.555555556,-0.246572266,-0.423989258,1,0,0,1.3336,submitButton,16.12418301,0.376323242,-0.36027832,0,0,0,0,48,48,33,1,49,68812,blockT,180,2022-02-15_10h08.49.228,orientation adjustment block,2021.2.3,MacIntel,59.97720866,,,,,,,
,,,,,,,,,,,,,,,,,,,,,,-21.11111111,51,20,75,64.88888889,13.88888889,13.88888889,-0.174921875,-0.411855469,1,0,0,0.9995,submitButton,16.06031746,0.320649414,-0.291918945,0,0,0,0,49,49,35,1,51,68812,blockT,180,2022-02-15_10h08.49.228,orientation adjustment block,2021.2.3,MacIntel,59.97720866,,,,,,,
,,,,,,,,,,,,,,,,,,,,,,-60,29,20,75,43,14,14,-0.157890625,-0.4225,1,0,0,1.9001,submitButton,16.00308642,0.143686523,-0.345668945,0,0,0,0,50,50,13,1,29,68812,blockT,180,2022-02-15_10h08.49.228,orientation adjustment block,2021.2.3,MacIntel,59.97720866,,,,,,,
,,,,,,,,,,,,,,,,,,,,,,23.33333333,-38,20,75,-46.66666667,8.666666667,8.666666667,-0.165053711,-0.398066406,1,0,0,0.9684,submitButton,15.8048048,0.338686523,-0.278442383,0,0,0,0,51,51,22,1,38,68812,blockT,180,2022-02-15_10h08.49.228,orientation adjustment block,2021.2.3,MacIntel,59.97720866,,,,,,,
,,,,,,,,,,,,,,,,,,,,,,39.44444444,-26,20,75,70.44444444,83.55555556,83.55555556,0.234697266,-0.286811523,1,0,0,0.4176,submitButton,17.5877193,0.497089844,-0.333066406,0,0,0,0,52,52,10,1,26,68812,blockT,180,2022-02-15_10h08.49.228,orientation adjustment block,2021.2.3,MacIntel,59.97720866,,,,,,,
,,,,,,,,,,,,,,,,,,,,,,62.22222222,66,20,75,229.2222222,16.77777778,16.77777778,-0.18284668,-0.429648437,1,0,0,2.234,submitButton,17.56695157,0.157456055,-0.254946289,0,0,0,0,53,53,50,1,66,68812,blockT,180,2022-02-15_10h08.49.228,orientation adjustment block,2021.2.3,MacIntel,59.97720866,,,,,,,
,,,,,,,,,,,,,,,,,,,,,,72.22222222,70,20,75,234.2222222,15.77777778,15.77777778,-0.254755859,-0.430722656,1,0,0,1.7004,submitButton,17.52222222,0.500932617,-0.326923828,0,0,0,0,54,54,54,1,70,68812,blockT,180,2022-02-15_10h08.49.228,orientation adjustment block,2021.2.3,MacIntel,59.97720866,,,,,,,
,,,,,,,,,,,,,,,,,,,,,,75,-75,20,75,-55,20,20,-0.247939453,-0.384916992,1,0,0,1.0988,submitButton,17.58265583,0.402241211,-0.196640625,0,0,0,0,55,55,59,1,75,68812,blockT,180,2022-02-15_10h08.49.228,orientation adjustment block,2021.2.3,MacIntel,59.97720866,,,,,,,
,,,,,,,,,,,,,,,,,,,,,,-39.44444444,-47,20,75,-50.44444444,3.444444444,3.444444444,-0.178491211,-0.390092773,1,0,0,1.018,submitButton,17.24603175,-0.178491211,-0.390092773,0,0,0,0,56,56,31,1,47,68812,blockT,180,2022-02-15_10h08.49.228,orientation adjustment block,2021.2.3,MacIntel,59.97720866,,,,,,,
,,,,,,,,,,,,,,,,,,,,,,-27.77777778,34,20,75,42.22222222,8.222222222,8.222222222,-0.227929688,-0.375302734,1,0,0,1.0509,submitButton,17.03617571,0.199682617,-0.253662109,0,0,0,0,57,57,18,1,34,68812,blockT,180,2022-02-15_10h08.49.228,orientation adjustment block,2021.2.3,MacIntel,59.97720866,,,,,,,
,,,,,,,,,,,,,,,,,,,,,,50,58,20,75,239,1,1,0.2071875,-0.314555664,1,0,0,2.0351,submitButton,16.67171717,0.401513672,-0.321342773,0,0,0,0,58,58,42,1,58,68812,blockT,180,2022-02-15_10h08.49.228,orientation adjustment block,2021.2.3,MacIntel,59.97720866,,,,,,,
,,,,,,,,,,,,,,,,,,,,,,-22.77777778,-61,20,75,-229.7777778,11.22222222,11.22222222,-0.176928711,-0.40831543,1,0,0,2.6497,submitButton,16.55061728,0.496650391,-0.402856445,1,0,0,0,59,59,45,1,61,68812,blockT,180,2022-02-15_10h08.49.228,orientation adjustment block,2021.2.3,MacIntel,59.97720866,continueButton,,,,,,
,,,,,,,,,,,,,,,,,,,,,,-61.11111111,37,20,75,33.88888889,3.111111111,3.111111111,-0.153818359,-0.3934375,1,0,0,0.9517,submitButton,16.25845411,0.233979492,-0.31871582,0,0,0,1,0,60,21,1,37,68812,blockT,180,2022-02-15_10h08.49.228,orientation adjustment block,2021.2.3,MacIntel,59.97720866,,,,,,,
,,,,,,,,,,,,,,,,,,,,,,-60,-28,20,75,-219,11,11,0.405322266,-0.276699219,1,0,0,0.1507,submitButton,16.1465721,0.430532227,-0.266020508,0,0,0,1,1,61,12,1,28,68812,blockT,180,2022-02-15_10h08.49.228,orientation adjustment block,2021.2.3,MacIntel,59.97720866,,,,,,,
,,,,,,,,,,,,,,,,,,,,,,-58.88888889,23,20,75,29.11111111,6.111111111,6.111111111,-0.269296875,-0.421079102,1,0,0,1.3354,submitButton,15.9375,0.415786133,-0.195742187,0,0,0,1,2,62,7,1,23,68812,blockT,180,2022-02-15_10h08.49.228,orientation adjustment block,2021.2.3,MacIntel,59.97720866,,,,,,,
,,,,,,,,,,,,,,,,,,,,,,33.33333333,61,20,75,236.3333333,4.666666667,4.666666667,-0.119775391,-0.359750977,1,0,0,2.5008,submitButton,15.70748299,0.215058594,-0.281538086,0,0,0,1,3,63,45,1,61,68812,blockT,180,2022-02-15_10h08.49.228,orientation adjustment block,2021.2.3,MacIntel,59.97720866,,,,,,,
,,,,,,,,,,,,,,,,,,,,,,42.22222222,-72,20,75,-65.77777778,6.222222222,6.222222222,-0.16112793,-0.38878418,1,0,0,0.6488,submitButton,15.51777778,0.211655273,-0.311416016,0,0,0,1,4,64,56,1,72,68812,blockT,180,2022-02-15_10h08.49.228,orientation adjustment block,2021.2.3,MacIntel,59.97720866,,,,,,,
,,,,,,,,,,,,,,,,,,,,,,-38.33333333,62,20,75,66.66666667,4.666666667,4.666666667,-0.158935547,-0.385849609,1,0,0,0.734,submitButton,15.30501089,0.156777344,-0.265703125,0,0,0,1,5,65,46,1,62,68812,blockT,180,2022-02-15_10h08.49.228,orientation adjustment block,2021.2.3,MacIntel,59.97720866,,,,,,,
,,,,,,,,,,,,,,,,,,,,,,48.33333333,-18,20,75,-23.66666667,5.666666667,5.666666667,-0.2171875,-0.408095703,1,0,0,1.0168,submitButton,15.11965812,0.279956055,-0.339794922,0,0,0,1,6,66,2,1,18,68812,blockT,180,2022-02-15_10h08.49.228,orientation adjustment block,2021.2.3,MacIntel,59.97720866,,,,,,,
,,,,,,,,,,,,,,,,,,,,,,-21.11111111,65,20,75,76.88888889,11.88888889,11.88888889,-0.142104492,-0.409956055,1,0,0,0.5663,submitButton,15.05870021,0.301967773,-0.370683594,0,0,0,1,7,67,49,1,65,68812,blockT,180,2022-02-15_10h08.49.228,orientation adjustment block,2021.2.3,MacIntel,59.97720866,,,,,,,
,,,,,,,,,,,,,,,,,,,,,,33.33333333,-55,20,75,-40.66666667,14.33333333,14.33333333,-0.215239258,-0.417504883,1,0,0,0.4174,submitButton,15.04526749,0.361049805,-0.40409668,0,0,0,1,8,68,39,1,55,68812,blockT,180,2022-02-15_10h08.49.228,orientation adjustment block,2021.2.3,MacIntel,59.97720866,,,,,,,
,,,,,,,,,,,,,,,,,,,,,,-37.77777778,29,20,75,32.22222222,3.222222222,3.222222222,-0.146030273,-0.381987305,1,0,0,0.6005,submitButton,14.83030303,0.25003418,-0.302856445,0,0,0,1,9,69,13,1,29,68812,blockT,180,2022-02-15_10h08.49.228,orientation adjustment block,2021.2.3,MacIntel,59.97720866,,,,,,,
,,,,,,,,,,,,,,,,,,,,,,22.77777778,34,20,75,69.77777778,35.77777778,35.77777778,0.380288086,-0.288808594,1,0,0,0.3344,submitButton,15.20436508,0.305600586,-0.301826172,0,0,0,1,10,70,18,1,34,68812,blockT,180,2022-02-15_10h08.49.228,orientation adjustment block,2021.2.3,MacIntel,59.97720866,,,,,,,
,,,,,,,,,,,,,,,,,,,,,,23.33333333,44,20,75,67.33333333,23.33333333,23.33333333,-0.166489258,-0.378461914,1,0,0,0.5329,submitButton,15.34697856,0.238842773,-0.266064453,0,0,0,1,11,71,28,1,44,68812,blockT,180,2022-02-15_10h08.49.228,orientation adjustment block,2021.2.3,MacIntel,59.97720866,,,,,,,
,,,,,,,,,,,,,,,,,,,,,,-42.77777778,70,20,75,49.22222222,20.77777778,20.77777778,-0.116445312,-0.385766602,1,0,0,0.8001,submitButton,15.44061303,0.26472168,-0.290043945,0,0,0,1,12,72,54,1,70,68812,blockT,180,2022-02-15_10h08.49.228,orientation adjustment block,2021.2.3,MacIntel,59.97720866,,,,,,,
,,,,,,,,,,,,,,,,,,,,,,21.11111111,17,20,75,15.11111111,1.888888889,1.888888889,-0.151704102,-0.420385742,1,0,0,0.8681,submitButton,15.21092279,0.202148438,-0.325361328,0,0,0,1,13,73,1,1,17,68812,blockT,180,2022-02-15_10h08.49.228,orientation adjustment block,2021.2.3,MacIntel,59.97720866,,,,,,,
,,,,,,,,,,,,,,,,,,,,,,-56.11111111,41,20,75,47.88888889,6.888888889,6.888888889,-0.117167969,-0.383330078,1,0,0,1.552,submitButton,15.07222222,0.43621582,-0.379550781,1,0,0,1,14,74,25,1,41,68812,blockT,180,2022-02-15_10h08.49.228,orientation adjustment block,2021.2.3,MacIntel,59.97720866,continueButton,,,,,,
,,,,,,,,,,,,,,,,,,,,,,-26.11111111,-63,20,75,-216.1111111,26.88888889,26.88888889,-0.12121582,-0.421933594,1,0,0,2.4511,submitButton,15.26593807,0.208188477,-0.337226562,0,0,0,1,15,75,47,1,63,68812,blockT,180,2022-02-15_10h08.49.228,orientation adjustment block,2021.2.3,MacIntel,59.97720866,,,,,,,
,,,,,,,,,,,,,,,,,,,,,,-38.88888889,57,20,75,61.11111111,4.111111111,4.111111111,-0.182944336,-0.424438477,1,0,0,0.7843,submitButton,15.08602151,0.254443359,-0.325249023,0,0,0,1,16,76,41,1,57,68812,blockT,180,2022-02-15_10h08.49.228,orientation adjustment block,2021.2.3,MacIntel,59.97720866,,,,,,,
,,,,,,,,,,,,,,,,,,,,,,-43.88888889,40,20,75,47.11111111,7.111111111,7.111111111,-0.180454102,-0.402832031,1,0,0,0.7854,submitButton,14.95943563,0.224150391,-0.324726562,0,0,0,1,17,77,24,1,40,68812,blockT,180,2022-02-15_10h08.49.228,orientation adjustment block,2021.2.3,MacIntel,59.97720866,,,,,,,
,,,,,,,,,,,,,,,,,,,,,,-57.22222222,-75,20,75,-225.2222222,29.77777778,29.77777778,-0.509951172,-0.385029297,1,0,0,2.2013,submitButton,15.19097222,0.168911133,-0.411870117,0,0,0,1,18,78,59,1,75,68812,blockT,180,2022-02-15_10h08.49.228,orientation adjustment block,2021.2.3,MacIntel,59.97720866,,,,,,,
,,,,,,,,,,,,,,,,,,,,,,-60,-33,20,75,-221,8,8,0.364160156,-0.289208984,1,0,0,2.3175,submitButton,15.08034188,0.172177734,-0.224296875,0,0,0,1,19,79,17,1,33,68812,blockT,180,2022-02-15_10h08.49.228,orientation adjustment block,2021.2.3,MacIntel,59.97720866,,,,,,,
,,,,,,,,,,,,,,,,,,,,,,-49.44444444,59,20,75,67.55555556,8.555555556,8.555555556,-0.126337891,-0.401855469,1,0,0,1.2332,submitButton,14.98148148,0.306181641,-0.363657227,0,0,0,1,20,80,43,1,59,68812,blockT,180,2022-02-15_10h08.49.228,orientation adjustment block,2021.2.3,MacIntel,59.97720866,,,,,,,
,,,,,,,,,,,,,,,,,,,,,,-51.66666667,30,20,75,27.33333333,2.666666667,2.666666667,-0.108173828,-0.40690918,1,0,0,0.9015,submitButton,14.79767828,0.235546875,-0.35171875,0,0,0,1,21,81,14,1,30,68812,blockT,180,2022-02-15_10h08.49.228,orientation adjustment block,2021.2.3,MacIntel,59.97720866,,,,,,,
,,,,,,,,,,,,,,,,,,,,,,-49.44444444,22,20,75,29.55555556,7.555555556,7.555555556,-0.231347656,-0.410454102,1,0,0,0.9672,submitButton,14.69117647,0.167817383,-0.301831055,0,0,0,1,22,82,6,1,22,68812,blockT,180,2022-02-15_10h08.49.228,orientation adjustment block,2021.2.3,MacIntel,59.97720866,,,,,,,
,,,,,,,,,,,,,,,,,,,,,,-30,66,20,75,83,17,17,-0.190864258,-0.398154297,1,0,0,0.9336,submitButton,14.72463768,0.236982422,-0.330688477,0,0,0,1,23,83,50,1,66,68812,blockT,180,2022-02-15_10h08.49.228,orientation adjustment block,2021.2.3,MacIntel,59.97720866,,,,,,,
,,,,,,,,,,,,,,,,,,,,,,23.88888889,35,20,75,46.88888889,11.88888889,11.88888889,0.390839844,-0.289506836,1,0,0,0.2178,submitButton,14.68412698,0.120444336,-0.349921875,0,0,0,1,24,84,19,1,35,68812,blockT,180,2022-02-15_10h08.49.228,orientation adjustment block,2021.2.3,MacIntel,59.97720866,,,,,,,
,,,,,,,,,,,,,,,,,,,,,,46.11111111,-26,20,75,-28.88888889,2.888888889,2.888888889,-0.166254883,-0.390522461,1,0,0,1.2002,submitButton,14.51799687,0.231274414,-0.343857422,0,0,0,1,25,85,10,1,26,68812,blockT,180,2022-02-15_10h08.49.228,orientation adjustment block,2021.2.3,MacIntel,59.97720866,,,,,,,
,,,,,,,,,,,,,,,,,,,,,,56.66666667,48,20,75,232.6666667,4.666666667,4.666666667,0.247124023,-0.283417969,1,0,0,0.2165,submitButton,14.38117284,0.276025391,-0.328046875,0,0,0,1,26,86,32,1,48,68812,blockT,180,2022-02-15_10h08.49.228,orientation adjustment block,2021.2.3,MacIntel,59.97720866,,,,,,,
,,,,,,,,,,,,,,,,,,,,,,-58.33333333,50,20,75,45.66666667,4.333333333,4.333333333,0.203642578,-0.290913086,1,0,0,0.4993,submitButton,14.2435312,0.047763672,-0.387070313,0,0,0,1,27,87,34,1,50,68812,blockT,180,2022-02-15_10h08.49.228,orientation adjustment block,2021.2.3,MacIntel,59.97720866,,,,,,,
,,,,,,,,,,,,,,,,,,,,,,-41.66666667,68,20,75,66.33333333,1.666666667,1.666666667,-0.195820313,-0.424995117,1,0,0,0.7674,submitButton,14.07357357,0.147680664,-0.383618164,0,0,0,1,28,88,52,1,68,68812,blockT,180,2022-02-15_10h08.49.228,orientation adjustment block,2021.2.3,MacIntel,59.97720866,,,,,,,
,,,,,,,,,,,,,,,,,,,,,,-50,-21,20,75,-14,7,7,0.205307617,-0.285244141,1,0,0,0.8851,submitButton,13.97925926,0.341308594,-0.401206055,1,0,0,1,29,89,5,1,21,68812,blockT,180,2022-02-15_10h08.49.228,orientation adjustment block,2021.2.3,MacIntel,59.97720866,continueButton,,,,,,
,,,,,,,,,,,,,,,,,,,,,,46.11111111,-36,20,75,44.11111111,80.11111111,80.11111111,0.185317383,-0.320644531,1,0,0,1.1676,submitButton,14.8494152,0.343925781,-0.283920898,0,0,0,1,30,90,20,1,36,68812,blockT,180,2022-02-15_10h08.49.228,orientation adjustment block,2021.2.3,MacIntel,59.97720866,,,,,,,
,,,,,,,,,,,,,,,,,,,,,,-53.33333333,39,20,75,43.66666667,4.666666667,4.666666667,-0.245898438,-0.381806641,1,0,0,1.2509,submitButton,14.71717172,0.230380859,-0.347158203,0,0,0,1,31,91,23,1,39,68812,blockT,180,2022-02-15_10h08.49.228,orientation adjustment block,2021.2.3,MacIntel,59.97720866,,,,,,,
,,,,,,,,,,,,,,,,,,,,,,50,69,20,75,252,3,3,0.218374023,-0.287480469,1,0,0,1.8325,submitButton,14.56695157,-0.124365234,-0.395063477,0,0,0,1,32,92,53,1,69,68812,blockT,180,2022-02-15_10h08.49.228,orientation adjustment block,2021.2.3,MacIntel,59.97720866,,,,,,,
,,,,,,,,,,,,,,,,,,,,,,65,-60,20,75,-43,17,17,0.401977539,-0.278862305,1,0,0,0.033,submitButton,14.59774965,0.035366211,-0.290341797,0,0,0,1,33,93,44,1,60,68812,blockT,180,2022-02-15_10h08.49.228,orientation adjustment block,2021.2.3,MacIntel,59.97720866,,,,,,,
,,,,,,,,,,,,,,,,,,,,,,38.88888889,-27,20,75,-33.11111111,6.111111111,6.111111111,0.418227539,-0.286455078,1,0,0,0.5677,submitButton,14.49166667,0.141381836,-0.271679687,0,0,0,1,34,94,11,1,27,68812,blockT,180,2022-02-15_10h08.49.228,orientation adjustment block,2021.2.3,MacIntel,59.97720866,,,,,,,
,,,,,,,,,,,,,,,,,,,,,,-52.22222222,38,20,75,41.77777778,3.777777778,3.777777778,-0.197910156,-0.433378906,1,0,0,0.7497,submitButton,14.35939643,0.227363281,-0.343564453,0,0,0,1,35,95,22,1,38,68812,blockT,180,2022-02-15_10h08.49.228,orientation adjustment block,2021.2.3,MacIntel,59.97720866,,,,,,,
,,,,,,,,,,,,,,,,,,,,,,-57.22222222,71,20,75,72.77777778,1.777777778,1.777777778,-0.224560547,-0.386025391,1,0,0,1.0361,submitButton,14.20596206,0.132304687,-0.280717773,0,0,0,1,36,96,55,1,71,68812,blockT,180,2022-02-15_10h08.49.228,orientation adjustment block,2021.2.3,MacIntel,59.97720866,,,,,,,
,,,,,,,,,,,,,,,,,,,,,,47.77777778,-67,20,75,-58.22222222,8.777777778,8.777777778,0.382700195,-0.265375977,1,0,0,0.0144,submitButton,14.14056225,-0.067470703,-0.370556641,0,0,0,1,37,97,51,1,67,68812,blockT,180,2022-02-15_10h08.49.228,orientation adjustment block,2021.2.3,MacIntel,59.97720866,,,,,,,
,,,,,,,,,,,,,,,,,,,,,,54.44444444,31,20,75,213.4444444,2.444444444,2.444444444,0.219770508,-0.290424805,1,0,0,0.2321,submitButton,14.00132275,-0.163154297,-0.37909668,0,0,0,1,38,98,15,1,31,68812,blockT,180,2022-02-15_10h08.49.228,orientation adjustment block,2021.2.3,MacIntel,59.97720866,,,,,,,
,,,,,,,,,,,,,,,,,,,,,,23.88888889,-25,20,75,-44.11111111,19.11111111,19.11111111,-0.304975586,-0.415268555,1,0,0,0.8496,submitButton,14.06143791,-0.303759766,-0.4115625,0,0,0,1,39,99,9,1,25,68812,blockT,180,2022-02-15_10h08.49.228,orientation adjustment block,2021.2.3,MacIntel,59.97720866,,,,,,,
,,,,,,,,,,,,,,,,,,,,,,48.33333333,19,20,75,167.3333333,31.66666667,31.66666667,-0.142568359,-0.407998047,1,0,0,2.2343,submitButton,14.26614987,-0.139145508,-0.406933594,0,0,0,1,40,100,3,1,19,68812,blockT,180,2022-02-15_10h08.49.228,orientation adjustment block,2021.2.3,MacIntel,59.97720866,,,,,,,
,,,,,,,,,,,,,,,,,,,,,,23.33333333,-53,20,75,-65.66666667,12.66666667,12.66666667,0.363110352,-0.291962891,1,0,0,0.1009,submitButton,14.24776501,-0.251625977,-0.396079102,0,0,0,1,41,101,37,1,53,68812,blockT,180,2022-02-15_10h08.49.228,orientation adjustment block,2021.2.3,MacIntel,59.97720866,,,,,,,
,,,,,,,,,,,,,,,,,,,,,,-58.88888889,49,20,75,55.11111111,6.111111111,6.111111111,-0.189272461,-0.43097168,1,0,0,1.1844,submitButton,14.15530303,0.283295898,-0.257319336,0,0,0,1,42,102,33,1,49,68812,blockT,180,2022-02-15_10h08.49.228,orientation adjustment block,2021.2.3,MacIntel,59.97720866,,,,,,,
,,,,,,,,,,,,,,,,,,,,,,21.11111111,-20,20,75,30.11111111,50.11111111,50.11111111,0.218032227,-0.29277832,1,0,0,0.0334,submitButton,14.55930087,0.217509766,-0.349936523,0,0,0,1,43,103,4,1,20,68812,blockT,180,2022-02-15_10h08.49.228,orientation adjustment block,2021.2.3,MacIntel,59.97720866,,,,,,,
,,,,,,,,,,,,,,,,,,,,,,41.11111111,24,20,75,89.11111111,65.11111111,65.11111111,0.216396484,-0.298950195,1,0,0,1.2696,submitButton,15.12098765,0.478422852,-0.404262695,1,0,0,1,44,104,8,1,24,68812,blockT,180,2022-02-15_10h08.49.228,orientation adjustment block,2021.2.3,MacIntel,59.97720866,continueButton,,,,,,
,,,,,,,,,,,,,,,,,,,,,,-40.55555556,-47,20,75,-44.55555556,2.444444444,2.444444444,-0.206420898,-0.411831055,1,0,0,1.0336,submitButton,14.98168498,0.253105469,-0.319887695,0,0,0,1,45,105,31,1,47,68812,blockT,180,2022-02-15_10h08.49.228,orientation adjustment block,2021.2.3,MacIntel,59.97720866,,,,,,,
,,,,,,,,,,,,,,,,,,,,,,53.33333333,51,20,75,199.3333333,31.66666667,31.66666667,-0.214399414,-0.391083984,1,0,0,1.9007,submitButton,15.16304348,0.241206055,-0.296279297,0,0,0,1,46,106,35,1,51,68812,blockT,180,2022-02-15_10h08.49.228,orientation adjustment block,2021.2.3,MacIntel,59.97720866,,,,,,,
,,,,,,,,,,,,,,,,,,,,,,-46.11111111,46,20,75,45.88888889,0.111111111,0.111111111,-0.119804688,-0.391474609,1,0,0,0.9506,submitButton,15.00119474,0.220766602,-0.307314453,0,0,0,1,47,107,30,1,46,68812,blockT,180,2022-02-15_10h08.49.228,orientation adjustment block,2021.2.3,MacIntel,59.97720866,,,,,,,
,,,,,,,,,,,,,,,,,,,,,,-53.88888889,74,20,75,68.11111111,5.888888889,5.888888889,0.108261719,-0.299794922,1,0,0,0.6334,submitButton,14.90425532,0.120966797,-0.311503906,0,0,0,1,48,108,58,1,74,68812,blockT,180,2022-02-15_10h08.49.228,orientation adjustment block,2021.2.3,MacIntel,59.97720866,,,,,,,
,,,,,,,,,,,,,,,,,,,,,,46.11111111,45,20,75,66.11111111,21.11111111,21.11111111,0.205522461,-0.29421875,1,0,0,0.1167,submitButton,14.96959064,0.391088867,-0.407817383,0,0,0,1,49,109,29,1,45,68812,blockT,180,2022-02-15_10h08.49.228,orientation adjustment block,2021.2.3,MacIntel,59.97720866,,,,,,,
,,,,,,,,,,,,,,,,,,,,,,58.88888889,58,20,75,234.8888889,3.111111111,3.111111111,-0.190336914,-0.38953125,1,0,0,2.5511,submitButton,14.84606481,0.166933594,-0.223901367,0,0,0,1,50,110,42,1,58,68812,blockT,180,2022-02-15_10h08.49.228,orientation adjustment block,2021.2.3,MacIntel,59.97720866,,,,,,,
,,,,,,,,,,,,,,,,,,,,,,-23.33333333,-16,20,75,6.666666667,22.66666667,22.66666667,-0.102402344,-0.42550293,1,0,0,1.385,submitButton,14.92668958,0.125600586,-0.304975586,0,0,0,1,51,111,0,1,16,68812,blockT,180,2022-02-15_10h08.49.228,orientation adjustment block,2021.2.3,MacIntel,59.97720866,,,,,,,
,,,,,,,,,,,,,,,,,,,,,,52.22222222,52,20,75,239.2222222,7.222222222,7.222222222,-0.238183594,-0.427670898,1,0,0,2.4854,submitButton,14.84807256,0.283984375,-0.39559082,0,0,0,1,52,112,36,1,52,68812,blockT,180,2022-02-15_10h08.49.228,orientation adjustment block,2021.2.3,MacIntel,59.97720866,,,,,,,
,,,,,,,,,,,,,,,,,,,,,,-25.55555556,-43,20,75,-39.55555556,3.444444444,3.444444444,0.239882812,-0.307475586,1,0,0,0.6485,submitButton,14.7328844,0.208046875,-0.253759766,0,0,0,1,53,113,27,1,43,68812,blockT,180,2022-02-15_10h08.49.228,orientation adjustment block,2021.2.3,MacIntel,59.97720866,,,,,,,
,,,,,,,,,,,,,,,,,,,,,,-38.88888889,-54,20,75,-47.88888889,6.111111111,6.111111111,-0.140371094,-0.399560547,1,0,0,1.4675,submitButton,14.64666667,0.14394043,-0.352802734,0,0,0,1,54,114,38,1,54,68812,blockT,180,2022-02-15_10h08.49.228,orientation adjustment block,2021.2.3,MacIntel,59.97720866,,,,,,,
,,,,,,,,,,,,,,,,,,,,,,52.77777778,-73,20,75,-51.22222222,21.77777778,21.77777778,0.357583008,-0.302329102,1,0,0,0.1832,submitButton,14.71727173,-0.188911133,-0.420571289,0,0,0,1,55,115,57,1,73,68812,blockT,180,2022-02-15_10h08.49.228,orientation adjustment block,2021.2.3,MacIntel,59.97720866,,,,,,,
,,,,,,,,,,,,,,,,,,,,,,66.66666667,56,20,75,226.6666667,9.333333333,9.333333333,-0.146586914,-0.394008789,1,0,0,2.0172,submitButton,14.66448802,0.043183594,-0.257773437,0,0,0,1,56,116,40,1,56,68812,blockT,180,2022-02-15_10h08.49.228,orientation adjustment block,2021.2.3,MacIntel,59.97720866,,,,,,,
,,,,,,,,,,,,,,,,,,,,,,-68.88888889,32,20,75,35.11111111,3.111111111,3.111111111,-0.199155273,-0.391186523,1,0,0,1.3171,submitButton,14.55231931,0.053803711,-0.269331055,0,0,0,1,57,117,16,1,32,68812,blockT,180,2022-02-15_10h08.49.228,orientation adjustment block,2021.2.3,MacIntel,59.97720866,,,,,,,
,,,,,,,,,,,,,,,,,,,,,,73.33333333,-64,20,75,-51.66666667,12.33333333,12.33333333,-0.173876953,-0.381865234,1,0,0,1.4662,submitButton,14.53098291,0.281469727,-0.353334961,0,0,0,1,58,118,48,1,64,68812,blockT,180,2022-02-15_10h08.49.228,orientation adjustment block,2021.2.3,MacIntel,59.97720866,,,,,,,
,,,,,,,,,,,,,,,,,,,,,,58.33333333,-42,20,75,-59.66666667,17.66666667,17.66666667,-0.147148438,-0.401337891,1,0,0,1.651,submitButton,14.56084656,0.53324707,-0.407373047,1,0,0,1,59,119,26,1,42,68812,blockT,180,2022-02-15_10h08.49.228,orientation adjustment block,2021.2.3,MacIntel,59.97720866,continueButton,,,,,,
,,,,,,,,,,,,,,,,,,,,,,-67.77777778,55,20,75,54.22222222,0.777777778,0.777777778,-0.187509766,-0.37512207,1,0,0,1.3508,submitButton,14.43081761,0.187651367,-0.367285156,0,0,0,2,0,120,39,1,55,68812,blockT,180,2022-02-15_10h08.49.228,orientation adjustment block,2021.2.3,MacIntel,59.97720866,,,,,,,
,,,,,,,,,,,,,,,,,,,,,,57.77777778,40,20,75,199.7777778,20.22222222,20.22222222,-0.220410156,-0.399316406,1,0,0,1.7495,submitButton,14.48494289,0.251079102,-0.353754883,0,0,0,2,1,121,24,1,40,68812,blockT,180,2022-02-15_10h08.49.228,orientation adjustment block,2021.2.3,MacIntel,59.97720866,,,,,,,
,,,,,,,,,,,,,,,,,,,,,,-36.66666667,-50,20,75,-45.66666667,4.333333333,4.333333333,-0.100712891,-0.394008789,1,0,0,1.1496,submitButton,14.3909465,0.177832031,-0.343759766,0,0,0,2,2,122,34,1,50,68812,blockT,180,2022-02-15_10h08.49.228,orientation adjustment block,2021.2.3,MacIntel,59.97720866,,,,,,,
,,,,,,,,,,,,,,,,,,,,,,-69.44444444,-25,20,75,-198.4444444,6.555555556,6.555555556,-0.105727539,-0.402749023,1,0,0,2.5191,submitButton,14.31906218,0.191787109,-0.377666016,0,0,0,2,3,123,9,1,25,68812,blockT,180,2022-02-15_10h08.49.228,orientation adjustment block,2021.2.3,MacIntel,59.97720866,,,,,,,
,,,,,,,,,,,,,,,,,,,,,,-29.44444444,-62,20,75,-51.44444444,10.55555556,10.55555556,-0.155405273,-0.388989258,1,0,0,1.1018,submitButton,14.28484848,0.018457031,-0.314257813,0,0,0,2,4,124,46,1,62,68812,blockT,180,2022-02-15_10h08.49.228,orientation adjustment block,2021.2.3,MacIntel,59.97720866,,,,,,,
,,,,,,,,,,,,,,,,,,,,,,29.44444444,70,20,75,235.4444444,14.55555556,14.55555556,-0.139501953,-0.39328125,1,0,0,2.385,submitButton,14.28728729,0.239648438,-0.319726562,0,0,0,2,5,125,54,1,70,68812,blockT,180,2022-02-15_10h08.49.228,orientation adjustment block,2021.2.3,MacIntel,59.97720866,,,,,,,
,,,,,,,,,,,,,,,,,,,,,,-37.77777778,75,20,75,62.22222222,12.77777778,12.77777778,0.183525391,-0.300454102,1,0,0,0.3839,submitButton,14.27380952,0.02324707,-0.30465332,0,0,0,2,6,126,59,1,75,68812,blockT,180,2022-02-15_10h08.49.228,orientation adjustment block,2021.2.3,MacIntel,59.97720866,,,,,,,
,,,,,,,,,,,,,,,,,,,,,,-71.11111111,-48,20,75,-233.1111111,5.111111111,5.111111111,0.415878906,-0.291411133,1,0,0,0.0671,submitButton,14.1927237,0.084941406,-0.395229492,0,0,0,2,7,127,32,1,48,68812,blockT,180,2022-02-15_10h08.49.228,orientation adjustment block,2021.2.3,MacIntel,59.97720866,,,,,,,
,,,,,,,,,,,,,,,,,,,,,,72.77777778,-45,20,75,-36.22222222,8.777777778,8.777777778,-0.254995117,-0.407094727,1,0,0,1.3689,submitButton,14.14522417,0.425966797,-0.357509766,0,0,0,2,8,128,29,1,45,68812,blockT,180,2022-02-15_10h08.49.228,orientation adjustment block,2021.2.3,MacIntel,59.97720866,,,,,,,
,,,,,,,,,,,,,,,,,,,,,,-63.88888889,-63,20,75,-241.8888889,1.111111111,1.111111111,-0.132626953,-0.425146484,1,0,0,2.5171,submitButton,14.03188406,0.459101563,-0.360361328,0,0,0,2,9,129,47,1,63,68812,blockT,180,2022-02-15_10h08.49.228,orientation adjustment block,2021.2.3,MacIntel,59.97720866,,,,,,,
,,,,,,,,,,,,,,,,,,,,,,50,22,20,75,213,11,11,-0.181708984,-0.410839844,1,0,0,2.4695,submitButton,14.00574713,0.268623047,-0.341171875,0,0,0,2,10,130,6,1,22,68812,blockT,180,2022-02-15_10h08.49.228,orientation adjustment block,2021.2.3,MacIntel,59.97720866,,,,,,,
,,,,,,,,,,,,,,,,,,,,,,-45,52,20,75,58,6,6,-0.186162109,-0.386474609,1,0,0,1.1837,submitButton,13.93732194,0.192416992,-0.329765625,0,0,0,2,11,131,36,1,52,68812,blockT,180,2022-02-15_10h08.49.228,orientation adjustment block,2021.2.3,MacIntel,59.97720866,,,,,,,
,,,,,,,,,,,,,,,,,,,,,,70.55555556,47,20,75,219.5555556,7.444444444,7.444444444,-0.289658203,-0.425541992,1,0,0,2.0174,submitButton,13.88229755,0.135239258,-0.396738281,0,0,0,2,12,132,31,1,47,68812,blockT,180,2022-02-15_10h08.49.228,orientation adjustment block,2021.2.3,MacIntel,59.97720866,,,,,,,
,,,,,,,,,,,,,,,,,,,,,,-32.22222222,-44,20,75,-157.2222222,66.77777778,66.77777778,0.353793945,-0.295332031,1,0,0,0.3358,submitButton,14.32679739,0.236337891,-0.35480957,0,0,0,2,13,133,28,1,44,68812,blockT,180,2022-02-15_10h08.49.228,orientation adjustment block,2021.2.3,MacIntel,59.97720866,,,,,,,
,,,,,,,,,,,,,,,,,,,,,,67.22222222,-66,20,75,115.2222222,1.222222222,1.222222222,-0.176391602,-0.418916016,1,0,0,1.7674,submitButton,14.21759259,0.392861328,-0.396474609,1,0,0,2,14,134,50,1,66,68812,blockT,180,2022-02-15_10h08.49.228,orientation adjustment block,2021.2.3,MacIntel,59.97720866,continueButton,,,,,,
,,,,,,,,,,,,,,,,,,,,,,-55.55555556,-36,20,75,-41.55555556,5.555555556,5.555555556,0.144584961,-0.281196289,1,0,0,0.3846,submitButton,14.14600551,0.307587891,-0.355400391,0,0,0,2,15,135,20,1,36,68812,blockT,180,2022-02-15_10h08.49.228,orientation adjustment block,2021.2.3,MacIntel,59.97720866,,,,,,,
,,,,,,,,,,,,,,,,,,,,,,49.44444444,-51,20,75,-42.55555556,8.444444444,8.444444444,-0.142729492,-0.433041992,1,0,0,1.2684,submitButton,14.0992714,0.306635742,-0.358334961,0,0,0,2,16,136,35,1,51,68812,blockT,180,2022-02-15_10h08.49.228,orientation adjustment block,2021.2.3,MacIntel,59.97720866,,,,,,,
,,,,,,,,,,,,,,,,,,,,,,41.66666667,18,20,75,32.66666667,14.66666667,14.66666667,0.406557617,-0.304575195,1,0,0,0.2842,submitButton,14.10388437,0.278261719,-0.349589844,0,0,0,2,17,137,2,1,18,68812,blockT,180,2022-02-15_10h08.49.228,orientation adjustment block,2021.2.3,MacIntel,59.97720866,,,,,,,
,,,,,,,,,,,,,,,,,,,,,,59.44444444,33,20,75,216.4444444,3.444444444,3.444444444,-0.172182617,-0.421542969,1,0,0,2.4506,submitButton,14.01792115,0.346171875,-0.340537109,0,0,0,2,18,138,17,1,33,68812,blockT,180,2022-02-15_10h08.49.228,orientation adjustment block,2021.2.3,MacIntel,59.97720866,,,,,,,
,,,,,,,,,,,,,,,,,,,,,,-55.55555556,69,20,75,57.44444444,11.55555556,11.55555556,0.230253906,-0.274975586,1,0,0,0.0502,submitButton,13.99822222,0.309233398,-0.034394531,0,0,0,2,19,139,53,1,69,68812,blockT,180,2022-02-15_10h08.49.228,orientation adjustment block,2021.2.3,MacIntel,59.97720866,,,,,,,
,,,,,,,,,,,,,,,,,,,,,,-75,-37,20,75,-214,3,3,0.385,-0.281845703,1,0,0,0.2674,submitButton,13.91093474,0.150922852,-0.235214844,0,0,0,2,20,140,21,1,37,68812,blockT,180,2022-02-15_10h08.49.228,orientation adjustment block,2021.2.3,MacIntel,59.97720866,,,,,,,
,,,,,,,,,,,,,,,,,,,,,,73.88888889,32,20,75,48.88888889,16.88888889,16.88888889,0.379770508,-0.29996582,1,0,0,0.1984,submitButton,13.9343832,0.242216797,-0.33918457,0,0,0,2,21,141,16,1,32,68812,blockT,180,2022-02-15_10h08.49.228,orientation adjustment block,2021.2.3,MacIntel,59.97720866,,,,,,,
,,,,,,,,,,,,,,,,,,,,,,62.22222222,-74,20,75,-66.77777778,7.222222222,7.222222222,0.358964844,-0.295400391,1,0,0,0.5681,submitButton,13.88194444,0.194453125,-0.35387207,0,0,0,2,22,142,58,1,74,68812,blockT,180,2022-02-15_10h08.49.228,orientation adjustment block,2021.2.3,MacIntel,59.97720866,,,,,,,
,,,,,,,,,,,,,,,,,,,,,,-62.77777778,-71,20,75,-228.7777778,22.22222222,22.22222222,-0.108632812,-0.419155273,1,0,0,1.852,submitButton,13.94659776,0.108823242,-0.333959961,0,0,0,2,23,143,55,1,71,68812,blockT,180,2022-02-15_10h08.49.228,orientation adjustment block,2021.2.3,MacIntel,59.97720866,,,,,,,
,,,,,,,,,,,,,,,,,,,,,,31.66666667,46,20,75,53.66666667,7.666666667,7.666666667,0.374086914,-0.294355469,1,0,0,0.5342,submitButton,13.8982906,0.240146484,-0.292353516,0,0,0,2,24,144,30,1,46,68812,blockT,180,2022-02-15_10h08.49.228,orientation adjustment block,2021.2.3,MacIntel,59.97720866,,,,,,,
,,,,,,,,,,,,,,,,,,,,,,-72.77777778,73,20,75,48.22222222,24.77777778,24.77777778,0.210473633,-0.306469727,1,0,0,0.2835,submitButton,13.98134012,0.41152832,-0.289458008,0,0,0,2,25,145,57,1,73,68812,blockT,180,2022-02-15_10h08.49.228,orientation adjustment block,2021.2.3,MacIntel,59.97720866,,,,,,,
,,,,,,,,,,,,,,,,,,,,,,-69.44444444,-43,20,75,-222.4444444,0.555555556,0.555555556,-0.124926758,-0.392592773,1,0,0,2.3691,submitButton,13.87962963,0.169057617,-0.303881836,0,0,0,2,26,146,27,1,43,68812,blockT,180,2022-02-15_10h08.49.228,orientation adjustment block,2021.2.3,MacIntel,59.97720866,,,,,,,
,,,,,,,,,,,,,,,,,,,,,,-26.66666667,34,20,75,45.33333333,11.33333333,11.33333333,-0.159584961,-0.383227539,1,0,0,0.6696,submitButton,13.86048454,0.181274414,-0.307905273,0,0,0,2,27,147,18,1,34,68812,blockT,180,2022-02-15_10h08.49.228,orientation adjustment block,2021.2.3,MacIntel,59.97720866,,,,,,,
,,,,,,,,,,,,,,,,,,,,,,71.11111111,30,20,75,162.1111111,47.88888889,47.88888889,-0.117910156,-0.392705078,1,0,0,1.2998,submitButton,14.11442786,0.194018555,-0.288310547,0,0,0,2,28,148,14,1,30,68812,blockT,180,2022-02-15_10h08.49.228,orientation adjustment block,2021.2.3,MacIntel,59.97720866,,,,,,,
,,,,,,,,,,,,,,,,,,,,,,31.11111111,67,20,75,188.1111111,58.88888889,58.88888889,-0.137197266,-0.411962891,1,0,0,1.7328,submitButton,14.44609053,0.416616211,-0.404711914,1,0,0,2,29,149,51,1,67,68812,blockT,180,2022-02-15_10h08.49.228,orientation adjustment block,2021.2.3,MacIntel,59.97720866,continueButton,,,,,,
,,,,,,,,,,,,,,,,,,,,,,-21.11111111,-27,20,75,-68.11111111,41.11111111,41.11111111,-0.152236328,-0.396357422,1,0,0,0.5201,submitButton,14.64215686,0.244233398,-0.321518555,0,0,0,2,30,150,11,1,27,68812,blockT,180,2022-02-15_10h08.49.228,orientation adjustment block,2021.2.3,MacIntel,59.97720866,,,,,,,
,,,,,,,,,,,,,,,,,,,,,,52.22222222,-57,20,75,-16.77777778,40.22222222,40.22222222,-0.240317383,-0.405224609,1,0,0,0.8332,submitButton,14.82887267,0.214638672,-0.383608398,0,0,0,2,31,151,41,1,57,68812,blockT,180,2022-02-15_10h08.49.228,orientation adjustment block,2021.2.3,MacIntel,59.97720866,,,,,,,
,,,,,,,,,,,,,,,,,,,,,,46.11111111,-59,20,75,-38.88888889,20.11111111,20.11111111,-0.163129883,-0.405043945,1,0,0,0.5492,submitButton,14.86714976,0.166904297,-0.362314453,0,0,0,2,32,152,43,1,59,68812,blockT,180,2022-02-15_10h08.49.228,orientation adjustment block,2021.2.3,MacIntel,59.97720866,,,,,,,
,,,,,,,,,,,,,,,,,,,,,,24.44444444,-49,20,75,-47.55555556,1.444444444,1.444444444,-0.11925293,-0.38934082,1,0,0,0.7671,submitButton,14.77058353,0.155014648,-0.291025391,0,0,0,2,33,153,33,1,49,68812,blockT,180,2022-02-15_10h08.49.228,orientation adjustment block,2021.2.3,MacIntel,59.97720866,,,,,,,
,,,,,,,,,,,,,,,,,,,,,,-30.55555556,-19,20,75,-26.55555556,7.555555556,7.555555556,-0.20855957,-0.379199219,1,0,0,0.6491,submitButton,14.71904762,0.045766602,-0.305195312,0,0,0,2,34,154,3,1,19,68812,blockT,180,2022-02-15_10h08.49.228,orientation adjustment block,2021.2.3,MacIntel,59.97720866,,,,,,,
,,,,,,,,,,,,,,,,,,,,,,-60.55555556,65,20,75,48.44444444,16.55555556,16.55555556,-0.20503418,-0.406660156,1,0,0,0.7178,submitButton,14.7320725,0.07331543,-0.322817383,0,0,0,2,35,155,49,1,65,68812,blockT,180,2022-02-15_10h08.49.228,orientation adjustment block,2021.2.3,MacIntel,59.97720866,,,,,,,
,,,,,,,,,,,,,,,,,,,,,,-52.22222222,-26,20,75,-213.2222222,7.222222222,7.222222222,-0.109038086,-0.400927734,1,0,0,2.4329,submitButton,14.67918623,0.169985352,-0.305908203,0,0,0,2,36,156,10,1,26,68812,blockT,180,2022-02-15_10h08.49.228,orientation adjustment block,2021.2.3,MacIntel,59.97720866,,,,,,,
,,,,,,,,,,,,,,,,,,,,,,-69.44444444,56,20,75,46.55555556,9.444444444,9.444444444,-0.214658203,-0.425317383,1,0,0,1.0998,submitButton,14.64257964,0.168413086,-0.357412109,0,0,0,2,37,157,40,1,56,68812,blockT,180,2022-02-15_10h08.49.228,orientation adjustment block,2021.2.3,MacIntel,59.97720866,,,,,,,
,,,,,,,,,,,,,,,,,,,,,,48.88888889,-64,20,75,-64.11111111,0.111111111,0.111111111,-0.221791992,-0.403916016,1,0,0,0.8171,submitButton,14.54166667,0.088969727,-0.342519531,0,0,0,2,38,158,48,1,64,68812,blockT,180,2022-02-15_10h08.49.228,orientation adjustment block,2021.2.3,MacIntel,59.97720866,,,,,,,
,,,,,,,,,,,,,,,,,,,,,,66.66666667,24,20,75,192.6666667,11.33333333,11.33333333,-0.184160156,-0.38168457,1,0,0,2.0182,submitButton,14.51954023,0.199750977,-0.291450195,0,0,0,2,39,159,8,1,24,68812,blockT,180,2022-02-15_10h08.49.228,orientation adjustment block,2021.2.3,MacIntel,59.97720866,,,,,,,
,,,,,,,,,,,,,,,,,,,,,,-35,35,20,75,37,2,2,0.215307617,-0.288823242,1,0,0,0.0993,submitButton,14.43378995,0.348666992,-0.336425781,0,0,0,2,40,160,19,1,35,68812,blockT,180,2022-02-15_10h08.49.228,orientation adjustment block,2021.2.3,MacIntel,59.97720866,,,,,,,
,,,,,,,,,,,,,,,,,,,,,,52.77777778,-21,20,75,-15.22222222,5.777777778,5.777777778,-0.166933594,-0.405854492,1,0,0,0.8505,submitButton,14.37490552,0.344379883,-0.29652832,0,0,0,2,41,161,5,1,21,68812,blockT,180,2022-02-15_10h08.49.228,orientation adjustment block,2021.2.3,MacIntel,59.97720866,,,,,,,
,,,,,,,,,,,,,,,,,,,,,,-72.77777778,-16,20,75,-26.77777778,10.77777778,10.77777778,-0.238217773,-0.408344727,1,0,0,1.4991,submitButton,14.3506006,0.223017578,-0.307861328,0,0,0,2,42,162,0,1,16,68812,blockT,180,2022-02-15_10h08.49.228,orientation adjustment block,2021.2.3,MacIntel,59.97720866,,,,,,,
,,,,,,,,,,,,,,,,,,,,,,-37.22222222,41,20,75,44.77777778,3.777777778,3.777777778,-0.118251953,-0.414291992,1,0,0,0.6694,submitButton,14.27964206,0.272265625,-0.351123047,0,0,0,2,43,163,25,1,41,68812,blockT,180,2022-02-15_10h08.49.228,orientation adjustment block,2021.2.3,MacIntel,59.97720866,,,,,,,
,,,,,,,,,,,,,,,,,,,,,,37.22222222,-72,20,75,-79.77777778,7.777777778,7.777777778,-0.112949219,-0.405214844,1,0,0,0.549,submitButton,14.2362963,0.473261719,-0.405869141,1,0,0,2,44,164,56,1,72,68812,blockT,180,2022-02-15_10h08.49.228,orientation adjustment block,2021.2.3,MacIntel,59.97720866,continueButton,,,,,,
,,,,,,,,,,,,,,,,,,,,,,-47.77777778,-61,20,75,-217.7777778,23.22222222,23.22222222,-0.223295898,-0.427768555,1,0,0,1.8164,submitButton,14.29580574,0.260585937,-0.263022461,0,0,0,2,45,165,45,1,61,68812,blockT,180,2022-02-15_10h08.49.228,orientation adjustment block,2021.2.3,MacIntel,59.97720866,,,,,,,
,,,,,,,,,,,,,,,,,,,,,,-23.88888889,20,20,75,40.11111111,20.11111111,20.11111111,-0.149580078,-0.400908203,1,0,0,0.8501,submitButton,14.33406433,0.232749023,-0.295214844,0,0,0,2,46,166,4,1,20,68812,blockT,180,2022-02-15_10h08.49.228,orientation adjustment block,2021.2.3,MacIntel,59.97720866,,,,,,,
,,,,,,,,,,,,,,,,,,,,,,-58.33333333,58,20,75,42.66666667,15.33333333,15.33333333,-0.117124023,-0.37309082,1,0,0,0.9669,submitButton,14.3405955,0.220161133,-0.252504883,0,0,0,2,47,167,42,1,58,68812,blockT,180,2022-02-15_10h08.49.228,orientation adjustment block,2021.2.3,MacIntel,59.97720866,,,,,,,
,,,,,,,,,,,,,,,,,,,,,,68.88888889,-38,20,75,-33.11111111,4.888888889,4.888888889,-0.208696289,-0.437368164,1,0,0,1.2509,submitButton,14.27922078,0.205493164,-0.382167969,0,0,0,2,48,168,22,1,38,68812,blockT,180,2022-02-15_10h08.49.228,orientation adjustment block,2021.2.3,MacIntel,59.97720866,,,,,,,
,,,,,,,,,,,,,,,,,,,,,,-26.66666667,23,20,75,37.33333333,14.33333333,14.33333333,-0.145390625,-0.399111328,1,0,0,0.7173,submitButton,14.27956989,0.050458984,-0.045820313,0,0,0,2,49,169,7,1,23,68812,blockT,180,2022-02-15_10h08.49.228,orientation adjustment block,2021.2.3,MacIntel,59.97720866,,,,,,,
,,,,,,,,,,,,,,,,,,,,,,53.33333333,17,20,75,43.33333333,26.33333333,26.33333333,0.378266602,-0.286245117,1,0,0,0.169,submitButton,14.35683761,0.167568359,-0.023530273,0,0,0,2,50,170,1,1,17,68812,blockT,180,2022-02-15_10h08.49.228,orientation adjustment block,2021.2.3,MacIntel,59.97720866,,,,,,,
,,,,,,,,,,,,,,,,,,,,,,-48.88888889,-60,20,75,-197.8888889,42.11111111,42.11111111,0.427788086,-0.285693359,1,0,0,0.2672,submitButton,14.53361642,0.105810547,-0.308974609,0,0,0,2,51,171,44,1,60,68812,blockT,180,2022-02-15_10h08.49.228,orientation adjustment block,2021.2.3,MacIntel,59.97720866,,,,,,,
,,,,,,,,,,,,,,,,,,,,,,-67.22222222,39,20,75,43.77777778,4.777777778,4.777777778,-0.31987793,-0.402172852,1,0,0,1.4176,submitButton,14.4718706,0.313745117,-0.274365234,0,0,0,2,52,172,23,1,39,68812,blockT,180,2022-02-15_10h08.49.228,orientation adjustment block,2021.2.3,MacIntel,59.97720866,,,,,,,
,,,,,,,,,,,,,,,,,,,,,,44.44444444,68,20,75,240.4444444,7.555555556,7.555555556,-0.304404297,-0.431835937,1,0,0,2.5169,submitButton,14.42837177,0.077827148,-0.403354492,0,0,0,2,53,173,52,1,68,68812,blockT,180,2022-02-15_10h08.49.228,orientation adjustment block,2021.2.3,MacIntel,59.97720866,,,,,,,
,,,,,,,,,,,,,,,,,,,,,,-26.11111111,-29,20,75,-17.11111111,11.88888889,11.88888889,-0.213476562,-0.423813477,1,0,0,1.0493,submitButton,14.4125,-0.03581543,-0.355253906,0,0,0,2,54,174,13,1,29,68812,blockT,180,2022-02-15_10h08.49.228,orientation adjustment block,2021.2.3,MacIntel,59.97720866,,,,,,,
,,,,,,,,,,,,,,,,,,,,,,63.88888889,42,20,75,206.8888889,15.11111111,15.11111111,0.206630859,-0.295083008,1,0,0,0.1983,submitButton,14.4168392,0.218710938,-0.319833984,0,0,0,2,55,175,26,1,42,68812,blockT,180,2022-02-15_10h08.49.228,orientation adjustment block,2021.2.3,MacIntel,59.97720866,,,,,,,
,,,,,,,,,,,,,,,,,,,,,,53.88888889,-54,20,75,59.88888889,66.11111111,66.11111111,-0.139116211,-0.398496094,1,0,0,0.8172,submitButton,14.73593964,0.109077148,-0.346801758,0,0,0,2,56,176,38,1,54,68812,blockT,180,2022-02-15_10h08.49.228,orientation adjustment block,2021.2.3,MacIntel,59.97720866,,,,,,,
,,,,,,,,,,,,,,,,,,,,,,-39.44444444,-31,20,75,-33.44444444,2.444444444,2.444444444,0.227114258,-0.292216797,1,0,0,0.0833,submitButton,14.6605317,-0.001806641,-0.368574219,0,0,0,2,57,177,15,1,31,68812,blockT,180,2022-02-15_10h08.49.228,orientation adjustment block,2021.2.3,MacIntel,59.97720866,,,,,,,
,,,,,,,,,,,,,,,,,,,,,,68.33333333,28,20,75,214.3333333,6.333333333,6.333333333,-0.266547852,-0.430444336,1,0,0,2.0161,submitButton,14.6097561,0.023911133,-0.383017578,0,0,0,2,58,178,12,1,28,68812,blockT,180,2022-02-15_10h08.49.228,orientation adjustment block,2021.2.3,MacIntel,59.97720866,,,,,,,
,,,,,,,,,,,,,,,,,,,,,,50,-53,20,75,-38,15,15,-0.290141602,-0.442075195,1,0,0,0.617,submitButton,14.61212121,0.281484375,-0.354833984,0,0,0,2,59,179,37,1,53,68812,blockT,180,2022-02-15_10h08.49.228,orientation adjustment block,2021.2.3,MacIntel,59.97720866,,,,,,,
,,,,,,,,,,,,,,,,,,,,,,,,,,,,,,,,,,,,,,,,,,,,,,,,68812,blockT,180,2022-02-15_10h08.49.228,orientation adjustment block,2021.2.3,MacIntel,59.97720866,,0.299291992,-0.410117187,1,0,0,EndButtonTxt
