consentMouse1.x,consentMouse1.y,consentMouse1.leftButton,consentMouse1.midButton,consentMouse1.rightButton,consentMouse1.clicked_name,consent_Mouse.x,consent_Mouse.y,consent_Mouse.leftButton,consent_Mouse.midButton,consent_Mouse.rightButton,consent_Mouse.clicked_name,startMouse.x,startMouse.y,startMouse.leftButton,startMouse.midButton,startMouse.rightButton,startMouse_2.x,startMouse_2.y,startMouse_2.leftButton,startMouse_2.midButton,startMouse_2.rightButton,start_distance,fixedOri,minimalDistance,maxOri,this_ori,accuracy,presented_accuracy,submitMouse.x,submitMouse.y,submitMouse.leftButton,submitMouse.midButton,submitMouse.rightButton,submitMouse.time,submitMouse.clicked_name,block_accuracy,continueMouse.x,continueMouse.y,continueMouse.leftButton,continueMouse.midButton,continueMouse.rightButton,trials.thisRepN,trials.thisTrialN,trials.thisN,trials.thisIndex,trials.ran,startOri,participant,condition,nTrials,date,expName,psychopyVersion,OS,frameRate,continueMouse.clicked_name,EndButtonMouse.x,EndButtonMouse.y,EndButtonMouse.leftButton,EndButtonMouse.midButton,EndButtonMouse.rightButton,EndButtonMouse.clicked_name
0.373148186,-0.402777805,1,0,0,consent_button1,0.384259297,-0.393518602,1,0,0,consent_button,0.384259297,-0.393518602,1,0,0,0.384259297,-0.393518602,1,0,0,-27.77777778,-61,20,75,-87.77777778,26.77777778,26.77777778,0.179629661,-0.281481505,1,0,0,8.1736,submitButton,26.77777778,-0.424074032,-0.404629713,0,0,0,0,0,0,45,1,61,68818,blockT,180,2022-02-12_19h23.50.289,orientation adjustment block,2021.2.3,Win32,60.11783095,,,,,,,
,,,,,,,,,,,,,,,,,,,,,,-40,-58,20,75,-63,5,5,0.227777811,-0.301851932,1,0,0,1.8458,submitButton,15.88888889,-0.323148131,-0.416666694,0,0,0,0,1,1,42,1,58,68818,blockT,180,2022-02-12_19h23.50.289,orientation adjustment block,2021.2.3,Win32,60.11783095,,,,,,,
,,,,,,,,,,,,,,,,,,,,,,-64.44444444,41,20,75,-121.4444444,17.55555556,17.55555556,0.390740779,-0.312963044,1,0,0,0.6826,submitButton,16.44444444,-0.249074055,-0.399074157,0,0,0,0,2,2,25,1,41,68818,blockT,180,2022-02-12_19h23.50.289,orientation adjustment block,2021.2.3,Win32,60.11783095,,,,,,,
,,,,,,,,,,,,,,,,,,,,,,64.44444444,-19,20,75,114.4444444,46.55555556,46.55555556,0.190740773,-0.300000024,1,0,0,0.6849,submitButton,46.55555556,-0.311111094,-0.419444472,0,0,0,0,3,3,3,1,19,68818,blockT,180,2022-02-12_19h23.50.289,orientation adjustment block,2021.2.3,Win32,60.11783095,,,,,,,
,,,,,,,,,,,,,,,,,,,,,,66.11111111,-37,20,75,-19.88888889,17.11111111,17.11111111,0.425925965,-0.287963043,1,0,0,0.8325,submitButton,31.83333333,-0.264814796,-0.418518602,0,0,0,0,4,4,21,1,37,68818,blockT,180,2022-02-12_19h23.50.289,orientation adjustment block,2021.2.3,Win32,60.11783095,,,,,,,
,,,,,,,,,,,,,,,,,,,,,,35,-55,20,75,-47,8,8,0.373148186,-0.306481506,1,0,0,0.6325,submitButton,23.88888889,-0.337037021,-0.393518602,0,0,0,0,5,5,39,1,55,68818,blockT,180,2022-02-12_19h23.50.289,orientation adjustment block,2021.2.3,Win32,60.11783095,,,,,,,
,,,,,,,,,,,,,,,,,,,,,,46.11111111,65,20,75,212.1111111,32.88888889,32.88888889,0.224074107,-0.300000024,1,0,0,0.0675,submitButton,32.88888889,-0.349999984,-0.39629638,0,0,0,0,6,6,49,1,65,68818,blockT,180,2022-02-12_19h23.50.289,orientation adjustment block,2021.2.3,Win32,60.11783095,,,,,,,
,,,,,,,,,,,,,,,,,,,,,,-30.55555556,44,20,75,-104.5555556,31.44444444,31.44444444,0.40185189,-0.30092595,1,0,0,0.8643,submitButton,32.16666667,-0.233333314,-0.375925952,0,0,0,0,7,7,28,1,44,68818,blockT,180,2022-02-12_19h23.50.289,orientation adjustment block,2021.2.3,Win32,60.11783095,,,,,,,
,,,,,,,,,,,,,,,,,,,,,,26.11111111,20,20,75,-28.88888889,48.88888889,48.88888889,0.393518557,-0.316666691,1,0,0,1.3612,submitButton,37.74074074,-0.345370354,-0.39629638,0,0,0,0,8,8,4,1,20,68818,blockT,180,2022-02-12_19h23.50.289,orientation adjustment block,2021.2.3,Win32,60.11783095,,,,,,,
,,,,,,,,,,,,,,,,,,,,,,35.55555556,-34,20,75,-19.44444444,14.55555556,14.55555556,0.396296335,-0.316666691,1,0,0,0.6501,submitButton,14.55555556,-0.22962961,-0.398148175,0,0,0,0,9,9,18,1,34,68818,blockT,180,2022-02-12_19h23.50.289,orientation adjustment block,2021.2.3,Win32,60.11783095,,,,,,,
,,,,,,,,,,,,,,,,,,,,,,32.22222222,-63,20,75,-48.77777778,14.22222222,14.22222222,0.378703741,-0.301851932,1,0,0,0.1499,submitButton,14.38888889,-0.328703687,-0.399074157,0,0,0,0,10,10,47,1,63,68818,blockT,180,2022-02-12_19h23.50.289,orientation adjustment block,2021.2.3,Win32,60.11783095,,,,,,,
,,,,,,,,,,,,,,,,,,,,,,-64.44444444,-54,20,75,-197.4444444,36.55555556,36.55555556,0.369444482,-0.30555558,1,0,0,0.5603,submitButton,21.77777778,-0.274999982,-0.39629638,0,0,0,0,11,11,38,1,54,68818,blockT,180,2022-02-12_19h23.50.289,orientation adjustment block,2021.2.3,Win32,60.11783095,,,,,,,
,,,,,,,,,,,,,,,,,,,,,,25.55555556,-59,20,75,-50.44444444,8.555555556,8.555555556,0.400000038,-0.282407487,1,0,0,0.5301,submitButton,8.555555556,-0.233333314,-0.411111138,0,0,0,0,12,12,43,1,59,68818,blockT,180,2022-02-12_19h23.50.289,orientation adjustment block,2021.2.3,Win32,60.11783095,,,,,,,
,,,,,,,,,,,,,,,,,,,,,,-75,-60,20,75,-207,33,33,0.386111149,-0.294444468,1,0,0,0.8156,submitButton,20.77777778,-0.278703686,-0.40833336,0,0,0,0,13,13,44,1,60,68818,blockT,180,2022-02-12_19h23.50.289,orientation adjustment block,2021.2.3,Win32,60.11783095,,,,,,,
,,,,,,,,,,,,,,,,,,,,,,-72.22222222,-56,20,75,-206.2222222,29.77777778,29.77777778,0.381481519,-0.297222246,1,0,0,0.782,submitButton,23.77777778,0.447222262,-0.391666693,1,0,0,0,14,14,40,1,56,68818,blockT,180,2022-02-12_19h23.50.289,orientation adjustment block,2021.2.3,Win32,60.11783095,continueButton,,,,,,
,,,,,,,,,,,,,,,,,,,,,,-65,71,20,75,98,27,27,0.197222255,-0.301851932,1,0,0,1.8657,submitButton,27,-0.199999979,-0.40833336,0,0,0,0,15,15,55,1,71,68818,blockT,180,2022-02-12_19h23.50.289,orientation adjustment block,2021.2.3,Win32,60.11783095,,,,,,,
,,,,,,,,,,,,,,,,,,,,,,31.66666667,36,20,75,65.66666667,29.66666667,29.66666667,0.187037069,-0.314814839,1,0,0,1.3631,submitButton,28.33333333,-0.255555537,-0.391666693,0,0,0,0,16,16,20,1,36,68818,blockT,180,2022-02-12_19h23.50.289,orientation adjustment block,2021.2.3,Win32,60.11783095,,,,,,,
,,,,,,,,,,,,,,,,,,,,,,-40,-33,20,75,-125,88,88,0.389814853,-0.301851932,1,0,0,1.8579,submitButton,48.22222222,-0.348148132,-0.404629713,0,0,0,0,17,17,17,1,33,68818,blockT,180,2022-02-12_19h23.50.289,orientation adjustment block,2021.2.3,Win32,60.11783095,,,,,,,
,,,,,,,,,,,,,,,,,,,,,,-37.22222222,73,20,75,48.77777778,24.22222222,24.22222222,0.379629667,-0.299074154,1,0,0,0.1349,submitButton,42.22222222,-0.310185168,-0.42129638,0,0,0,0,18,18,57,1,73,68818,blockT,180,2022-02-12_19h23.50.289,orientation adjustment block,2021.2.3,Win32,60.11783095,,,,,,,
,,,,,,,,,,,,,,,,,,,,,,32.77777778,-28,20,75,25.77777778,53.77777778,53.77777778,0.420370409,-0.295370394,1,0,0,2.4861,submitButton,44.53333333,-0.379629614,-0.414814842,0,0,0,0,19,19,12,1,28,68818,blockT,180,2022-02-12_19h23.50.289,orientation adjustment block,2021.2.3,Win32,60.11783095,,,,,,,
,,,,,,,,,,,,,,,,,,,,,,66.66666667,-24,20,75,-31.33333333,7.333333333,7.333333333,0.40185189,-0.320370395,1,0,0,0.4501,submitButton,38.33333333,-0.244444425,-0.407407491,0,0,0,0,20,20,8,1,24,68818,blockT,180,2022-02-12_19h23.50.289,orientation adjustment block,2021.2.3,Win32,60.11783095,,,,,,,
,,,,,,,,,,,,,,,,,,,,,,33.33333333,-57,20,75,-45.66666667,11.33333333,11.33333333,-0.325925909,-0.395370397,1,0,0,1.7817,submitButton,34.47619048,-0.250925907,-0.368518601,0,0,0,0,21,21,41,1,57,68818,blockT,180,2022-02-12_19h23.50.289,orientation adjustment block,2021.2.3,Win32,60.11783095,,,,,,,
,,,,,,,,,,,,,,,,,,,,,,-22.22222222,-22,20,75,-26.22222222,4.222222222,4.222222222,0.17777781,-0.287963043,1,0,0,0.5838,submitButton,30.69444444,-0.38518517,-0.392592619,0,0,0,0,22,22,6,1,22,68818,blockT,180,2022-02-12_19h23.50.289,orientation adjustment block,2021.2.3,Win32,60.11783095,,,,,,,
,,,,,,,,,,,,,,,,,,,,,,-60,-74,20,75,-227,27,27,0.397222261,-0.30462971,1,0,0,0.6898,submitButton,30.28395062,-0.17314807,-0.392592619,0,0,0,0,23,23,58,1,74,68818,blockT,180,2022-02-12_19h23.50.289,orientation adjustment block,2021.2.3,Win32,60.11783095,,,,,,,
,,,,,,,,,,,,,,,,,,,,,,57.77777778,66,20,75,63.77777778,2.222222222,2.222222222,0.420370409,-0.307407488,1,0,0,0.4162,submitButton,27.47777778,-0.247222203,-0.38240749,0,0,0,0,24,24,50,1,66,68818,blockT,180,2022-02-12_19h23.50.289,orientation adjustment block,2021.2.3,Win32,60.11783095,,,,,,,
,,,,,,,,,,,,,,,,,,,,,,62.77777778,68,20,75,162.7777778,85.22222222,85.22222222,0.195370403,-0.324074155,1,0,0,1.4496,submitButton,32.72727273,-0.225925906,-0.400925953,0,0,0,0,25,25,52,1,68,68818,blockT,180,2022-02-12_19h23.50.289,orientation adjustment block,2021.2.3,Win32,60.11783095,,,,,,,
,,,,,,,,,,,,,,,,,,,,,,-57.77777778,-27,20,75,-116.7777778,89.77777778,89.77777778,0.166666698,-0.299074154,1,0,0,1.3995,submitButton,37.48148148,-0.335185169,-0.418518602,0,0,0,0,26,26,11,1,27,68818,blockT,180,2022-02-12_19h23.50.289,orientation adjustment block,2021.2.3,Win32,60.11783095,,,,,,,
,,,,,,,,,,,,,,,,,,,,,,27.77777778,48,20,75,125.7777778,77.77777778,77.77777778,0.187962995,-0.300000024,1,0,0,2.6278,submitButton,40.58119658,-0.470370358,-0.401851935,0,0,0,0,27,27,32,1,48,68818,blockT,180,2022-02-12_19h23.50.289,orientation adjustment block,2021.2.3,Win32,60.11783095,,,,,,,
,,,,,,,,,,,,,,,,,,,,,,-27.77777778,-32,20,75,-59.77777778,27.77777778,27.77777778,-0.31666665,-0.393518602,1,0,0,1.5808,submitButton,39.66666667,0.239814848,-0.157407427,0,0,0,0,28,28,16,1,32,68818,blockT,180,2022-02-12_19h23.50.289,orientation adjustment block,2021.2.3,Win32,60.11783095,,,,,,,
,,,,,,,,,,,,,,,,,,,,,,63.88888889,45,20,75,141.8888889,83.11111111,83.11111111,0.166666698,-0.294444468,1,0,0,0.899,submitButton,42.56296296,0.448148188,-0.40833336,1,0,0,0,29,29,29,1,45,68818,blockT,180,2022-02-12_19h23.50.289,orientation adjustment block,2021.2.3,Win32,60.11783095,continueButton,,,,,,
,,,,,,,,,,,,,,,,,,,,,,-20,18,20,75,-18,36,36,0.229629663,-0.28703706,1,0,0,1.6493,submitButton,42.15277778,-0.254629611,-0.413888916,0,0,0,0,30,30,2,1,18,68818,blockT,180,2022-02-12_19h23.50.289,orientation adjustment block,2021.2.3,Win32,60.11783095,,,,,,,
,,,,,,,,,,,,,,,,,,,,,,-30.55555556,75,20,75,68.44444444,6.555555556,6.555555556,0.186111143,-0.285185265,1,0,0,0.2843,submitButton,40.05882353,-0.209259239,-0.387963046,0,0,0,0,31,31,59,1,75,68818,blockT,180,2022-02-12_19h23.50.289,orientation adjustment block,2021.2.3,Win32,60.11783095,,,,,,,
,,,,,,,,,,,,,,,,,,,,,,-52.77777778,-64,20,75,-207.7777778,36.22222222,36.22222222,-0.236111092,-0.379629712,1,0,0,2.2966,submitButton,39.84567901,-0.236111092,-0.379629712,0,0,0,0,32,32,48,1,64,68818,blockT,180,2022-02-12_19h23.50.289,orientation adjustment block,2021.2.3,Win32,60.11783095,,,,,,,
,,,,,,,,,,,,,,,,,,,,,,-47.77777778,46,20,75,37.22222222,8.777777778,8.777777778,0.193518551,-0.310185266,1,0,0,0.0339,submitButton,38.21052632,-0.330555539,-0.403703731,0,0,0,0,33,33,30,1,46,68818,blockT,180,2022-02-12_19h23.50.289,orientation adjustment block,2021.2.3,Win32,60.11783095,,,,,,,
,,,,,,,,,,,,,,,,,,,,,,71.11111111,-39,20,75,-24.88888889,14.11111111,14.11111111,0.371296334,-0.308333357,1,0,0,0.0535,submitButton,37.00555556,-0.261111092,-0.374074157,0,0,0,0,34,34,23,1,39,68818,blockT,180,2022-02-12_19h23.50.289,orientation adjustment block,2021.2.3,Win32,60.11783095,,,,,,,
,,,,,,,,,,,,,,,,,,,,,,-49.44444444,62,20,75,42.55555556,19.44444444,19.44444444,0.212962996,-0.297222246,1,0,0,1.1968,submitButton,36.16931217,-0.391666652,-0.40833336,0,0,0,0,35,35,46,1,62,68818,blockT,180,2022-02-12_19h23.50.289,orientation adjustment block,2021.2.3,Win32,60.11783095,,,,,,,
,,,,,,,,,,,,,,,,,,,,,,35.55555556,-26,20,75,-25.44444444,0.555555556,0.555555556,0.434259299,-0.278703727,1,0,0,1.6489,submitButton,34.55050505,-0.250925907,-0.387037063,0,0,0,0,36,36,10,1,26,68818,blockT,180,2022-02-12_19h23.50.289,orientation adjustment block,2021.2.3,Win32,60.11783095,,,,,,,
,,,,,,,,,,,,,,,,,,,,,,-37.77777778,-51,20,75,-111.7777778,60.77777778,60.77777778,0.196296329,-0.318518599,1,0,0,1.1163,submitButton,35.69082126,-0.272222204,-0.394444471,0,0,0,0,37,37,35,1,51,68818,blockT,180,2022-02-12_19h23.50.289,orientation adjustment block,2021.2.3,Win32,60.11783095,,,,,,,
,,,,,,,,,,,,,,,,,,,,,,-47.22222222,-43,20,75,-216.2222222,6.777777778,6.777777778,0.398148187,-0.310185266,1,0,0,0.6299,submitButton,34.48611111,-0.218518499,-0.400925953,0,0,0,0,38,38,27,1,43,68818,blockT,180,2022-02-12_19h23.50.289,orientation adjustment block,2021.2.3,Win32,60.11783095,,,,,,,
,,,,,,,,,,,,,,,,,,,,,,-56.66666667,30,20,75,43.33333333,13.33333333,13.33333333,0.164814846,-0.301851932,1,0,0,0.1855,submitButton,33.64,-0.474074033,-0.413888916,0,0,0,0,39,39,14,1,30,68818,blockT,180,2022-02-12_19h23.50.289,orientation adjustment block,2021.2.3,Win32,60.11783095,,,,,,,
,,,,,,,,,,,,,,,,,,,,,,33.33333333,-29,20,75,33.33333333,62.33333333,62.33333333,0.201851884,-0.274074154,1,0,0,3.3298,submitButton,34.74358974,0.428703743,-0.283333357,0,0,0,0,40,40,13,1,29,68818,blockT,180,2022-02-12_19h23.50.289,orientation adjustment block,2021.2.3,Win32,60.11783095,,,,,,,
,,,,,,,,,,,,,,,,,,,,,,-40.55555556,38,20,75,46.44444444,8.444444444,8.444444444,-0.379629614,-0.377777804,1,0,0,1.4236,submitButton,33.76954733,-0.379629614,-0.377777804,0,0,0,0,41,41,22,1,38,68818,blockT,180,2022-02-12_19h23.50.289,orientation adjustment block,2021.2.3,Win32,60.11783095,,,,,,,
,,,,,,,,,,,,,,,,,,,,,,-27.22222222,25,20,75,34.77777778,9.777777778,9.777777778,0.166666698,-0.280555579,1,0,0,0.1677,submitButton,32.91269841,-0.388888874,-0.38333336,0,0,0,0,42,42,9,1,25,68818,blockT,180,2022-02-12_19h23.50.289,orientation adjustment block,2021.2.3,Win32,60.11783095,,,,,,,
,,,,,,,,,,,,,,,,,,,,,,-27.77777778,67,20,75,54.22222222,12.77777778,12.77777778,0.424074113,-0.28703706,1,0,0,0.3172,submitButton,32.2183908,-0.260185166,-0.394444471,0,0,0,0,43,43,51,1,67,68818,blockT,180,2022-02-12_19h23.50.289,orientation adjustment block,2021.2.3,Win32,60.11783095,,,,,,,
,,,,,,,,,,,,,,,,,,,,,,60.55555556,-49,20,75,39.55555556,88.55555556,88.55555556,0.171296328,-0.293518599,1,0,0,0.2865,submitButton,34.0962963,0.382407445,-0.413888916,1,0,0,0,44,44,33,1,49,68818,blockT,180,2022-02-12_19h23.50.289,orientation adjustment block,2021.2.3,Win32,60.11783095,continueButton,,,,,,
,,,,,,,,,,,,,,,,,,,,,,-23.88888889,-47,20,75,37.11111111,84.11111111,84.11111111,0.201851884,-0.30555558,1,0,0,0.5169,submitButton,35.70967742,0.218518552,-0.328703728,0,0,0,0,45,45,31,1,47,68818,blockT,180,2022-02-12_19h23.50.289,orientation adjustment block,2021.2.3,Win32,60.11783095,,,,,,,
,,,,,,,,,,,,,,,,,,,,,,-73.33333333,-21,20,75,-120.3333333,80.66666667,80.66666667,0.412963002,-0.324074155,1,0,0,0.8826,submitButton,37.11458333,-0.232407388,-0.410185269,0,0,0,0,46,46,5,1,21,68818,blockT,180,2022-02-12_19h23.50.289,orientation adjustment block,2021.2.3,Win32,60.11783095,,,,,,,
,,,,,,,,,,,,,,,,,,,,,,47.77777778,-70,20,75,-51.22222222,18.77777778,18.77777778,0.381481519,-0.309259283,1,0,0,0.6993,submitButton,36.55892256,-0.189814794,-0.385185268,0,0,0,0,47,47,54,1,70,68818,blockT,180,2022-02-12_19h23.50.289,orientation adjustment block,2021.2.3,Win32,60.11783095,,,,,,,
,,,,,,,,,,,,,,,,,,,,,,70,-52,20,75,-36,16,16,0.392592631,-0.316666691,1,0,0,0.3825,submitButton,35.95424837,-0.299999982,-0.379629712,0,0,0,0,48,48,36,1,52,68818,blockT,180,2022-02-12_19h23.50.289,orientation adjustment block,2021.2.3,Win32,60.11783095,,,,,,,
,,,,,,,,,,,,,,,,,,,,,,57.77777778,17,20,75,204.7777778,7.777777778,7.777777778,-0.450925913,-0.388888915,1,0,0,3.1813,submitButton,35.14920635,-0.450925913,-0.388888915,0,0,0,0,49,49,1,1,17,68818,blockT,180,2022-02-12_19h23.50.289,orientation adjustment block,2021.2.3,Win32,60.11783095,,,,,,,
,,,,,,,,,,,,,,,,,,,,,,-63.33333333,40,20,75,34.66666667,5.333333333,5.333333333,0.219444477,-0.263888912,1,0,0,0.2661,submitButton,34.32098765,-0.292592575,-0.385185268,0,0,0,0,50,50,24,1,40,68818,blockT,180,2022-02-12_19h23.50.289,orientation adjustment block,2021.2.3,Win32,60.11783095,,,,,,,
,,,,,,,,,,,,,,,,,,,,,,-20,-31,20,75,19,50,50,-0.052777753,-0.355555581,1,0,0,0.9172,submitButton,34.74474474,-0.236111092,-0.402777805,0,0,0,0,51,51,15,1,31,68818,blockT,180,2022-02-12_19h23.50.289,orientation adjustment block,2021.2.3,Win32,60.11783095,,,,,,,
,,,,,,,,,,,,,,,,,,,,,,-42.77777778,53,20,75,45.22222222,7.777777778,7.777777778,-0.392592578,-0.409259286,1,0,0,1.1321,submitButton,34.03508772,-0.392592578,-0.409259286,0,0,0,0,52,52,37,1,53,68818,blockT,180,2022-02-12_19h23.50.289,orientation adjustment block,2021.2.3,Win32,60.11783095,,,,,,,
,,,,,,,,,,,,,,,,,,,,,,-33.88888889,23,20,75,33.11111111,10.11111111,10.11111111,0.162962994,-0.315740822,1,0,0,0.8666,submitButton,33.42165242,0.335185222,-0.364814841,0,0,0,0,53,53,7,1,23,68818,blockT,180,2022-02-12_19h23.50.289,orientation adjustment block,2021.2.3,Win32,60.11783095,,,,,,,
,,,,,,,,,,,,,,,,,,,,,,-67.77777778,50,20,75,-121.7777778,8.222222222,8.222222222,-0.366666651,-0.400925953,1,0,0,3.0144,submitButton,32.79166667,-0.366666651,-0.400925953,0,0,0,0,54,54,34,1,50,68818,blockT,180,2022-02-12_19h23.50.289,orientation adjustment block,2021.2.3,Win32,60.11783095,,,,,,,
,,,,,,,,,,,,,,,,,,,,,,-32.77777778,-72,20,75,-222.7777778,29.22222222,29.22222222,0.398148187,-0.292592616,1,0,0,0.2318,submitButton,32.70460705,-0.337037021,-0.402777805,0,0,0,0,55,55,56,1,72,68818,blockT,180,2022-02-12_19h23.50.289,orientation adjustment block,2021.2.3,Win32,60.11783095,,,,,,,
,,,,,,,,,,,,,,,,,,,,,,-58.88888889,-42,20,75,-218.8888889,3.111111111,3.111111111,-0.393518504,-0.407407491,1,0,0,3.1637,submitButton,32,0.504629671,-0.351851934,0,0,0,0,56,56,26,1,42,68818,blockT,180,2022-02-12_19h23.50.289,orientation adjustment block,2021.2.3,Win32,60.11783095,,,,,,,
,,,,,,,,,,,,,,,,,,,,,,-49.44444444,-35,20,75,-206.4444444,8.555555556,8.555555556,-0.41944443,-0.404629713,1,0,0,2.8478,submitButton,31.45478036,0.341666703,-0.263888912,0,0,0,0,57,57,19,1,35,68818,blockT,180,2022-02-12_19h23.50.289,orientation adjustment block,2021.2.3,Win32,60.11783095,,,,,,,
,,,,,,,,,,,,,,,,,,,,,,-73.33333333,-69,20,75,-67.33333333,1.666666667,1.666666667,0.195370403,-0.285185265,1,0,0,0.0838,submitButton,30.77777778,0.053703732,-0.314814839,0,0,0,0,58,58,53,1,69,68818,blockT,180,2022-02-12_19h23.50.289,orientation adjustment block,2021.2.3,Win32,60.11783095,,,,,,,
,,,,,,,,,,,,,,,,,,,,,,41.11111111,16,20,75,-16.88888889,32.88888889,32.88888889,0.400000038,-0.284259283,1,0,0,1.1003,submitButton,30.82469136,0.496296338,-0.400000027,1,0,0,0,59,59,0,1,16,68818,blockT,180,2022-02-12_19h23.50.289,orientation adjustment block,2021.2.3,Win32,60.11783095,continueButton,,,,,,
,,,,,,,,,,,,,,,,,,,,,,-21.66666667,-51,20,75,-34.66666667,16.33333333,16.33333333,0.200000032,-0.279629709,1,0,0,0.2491,submitButton,30.50966184,0.270370405,-0.299074154,0,0,0,1,0,60,35,1,51,68818,blockT,180,2022-02-12_19h23.50.289,orientation adjustment block,2021.2.3,Win32,60.11783095,,,,,,,
,,,,,,,,,,,,,,,,,,,,,,55,43,20,75,52,9,9,-0.261111092,-0.375000026,1,0,0,0.8184,submitButton,30.05200946,0.311111147,-0.283333357,0,0,0,1,1,61,27,1,43,68818,blockT,180,2022-02-12_19h23.50.289,orientation adjustment block,2021.2.3,Win32,60.11783095,,,,,,,
,,,,,,,,,,,,,,,,,,,,,,-43.88888889,73,20,75,54.11111111,18.88888889,18.88888889,0.214814848,-0.275000023,1,0,0,0.7664,submitButton,29.81944444,0.206481514,-0.419444472,0,0,0,1,2,62,57,1,73,68818,blockT,180,2022-02-12_19h23.50.289,orientation adjustment block,2021.2.3,Win32,60.11783095,,,,,,,
,,,,,,,,,,,,,,,,,,,,,,55,-68,20,75,-47,21,21,-0.282407389,-0.392592619,1,0,0,1.3814,submitButton,29.63945578,0.305555591,-0.328703728,0,0,0,1,3,63,52,1,68,68818,blockT,180,2022-02-12_19h23.50.289,orientation adjustment block,2021.2.3,Win32,60.11783095,,,,,,,
,,,,,,,,,,,,,,,,,,,,,,-64.44444444,-74,20,75,-234.4444444,19.55555556,19.55555556,0.45000004,-0.299074154,1,0,0,0.7657,submitButton,29.43777778,0.327777814,-0.273148171,0,0,0,1,4,64,58,1,74,68818,blockT,180,2022-02-12_19h23.50.289,orientation adjustment block,2021.2.3,Win32,60.11783095,,,,,,,
,,,,,,,,,,,,,,,,,,,,,,40,-20,20,75,-20,0,0,0.431481521,-0.289814838,1,0,0,0.4986,submitButton,28.86056645,0.230555589,-0.299074154,0,0,0,1,5,65,4,1,20,68818,blockT,180,2022-02-12_19h23.50.289,orientation adjustment block,2021.2.3,Win32,60.11783095,,,,,,,
,,,,,,,,,,,,,,,,,,,,,,-45,33,20,75,34,1,1,-0.371296281,-0.38333336,1,0,0,1.5987,submitButton,28.32478632,0.107407437,-0.318518599,0,0,0,1,6,66,17,1,33,68818,blockT,180,2022-02-12_19h23.50.289,orientation adjustment block,2021.2.3,Win32,60.11783095,,,,,,,
,,,,,,,,,,,,,,,,,,,,,,23.88888889,36,20,75,59.88888889,23.88888889,23.88888889,-0.228703684,-0.406481508,1,0,0,2.5313,submitButton,28.24109015,0.091666696,-0.296296377,0,0,0,1,7,67,20,1,36,68818,blockT,180,2022-02-12_19h23.50.289,orientation adjustment block,2021.2.3,Win32,60.11783095,,,,,,,
,,,,,,,,,,,,,,,,,,,,,,73.88888889,23,20,75,205.8888889,2.888888889,2.888888889,-0.333333317,-0.405555583,1,0,0,2.9309,submitButton,27.77160494,0.190740773,-0.385185268,0,0,0,1,8,68,7,1,23,68818,blockT,180,2022-02-12_19h23.50.289,orientation adjustment block,2021.2.3,Win32,60.11783095,,,,,,,
,,,,,,,,,,,,,,,,,,,,,,52.22222222,30,20,75,41.22222222,11.22222222,11.22222222,0.420370409,-0.285185265,1,0,0,0.8313,submitButton,27.47070707,0.291666702,-0.315740822,0,0,0,1,9,69,14,1,30,68818,blockT,180,2022-02-12_19h23.50.289,orientation adjustment block,2021.2.3,Win32,60.11783095,,,,,,,
,,,,,,,,,,,,,,,,,,,,,,34.44444444,48,20,75,44.44444444,3.555555556,3.555555556,-0.300925908,-0.415740825,1,0,0,1.3326,submitButton,27.04365079,0.186111143,-0.321296377,0,0,0,1,10,70,32,1,48,68818,blockT,180,2022-02-12_19h23.50.289,orientation adjustment block,2021.2.3,Win32,60.11783095,,,,,,,
,,,,,,,,,,,,,,,,,,,,,,-72.22222222,71,20,75,-34.22222222,74.77777778,74.77777778,0.174074106,-0.311111135,1,0,0,0.4158,submitButton,27.88109162,-0.342592576,-0.395370397,0,0,0,1,11,71,55,1,71,68818,blockT,180,2022-02-12_19h23.50.289,orientation adjustment block,2021.2.3,Win32,60.11783095,,,,,,,
,,,,,,,,,,,,,,,,,,,,,,-40,60,20,75,33,27,27,0.368518556,-0.310185266,1,0,0,0.381,submitButton,27.86590038,-0.000925843,-0.336111136,0,0,0,1,12,72,44,1,60,68818,blockT,180,2022-02-12_19h23.50.289,orientation adjustment block,2021.2.3,Win32,60.11783095,,,,,,,
,,,,,,,,,,,,,,,,,,,,,,-40,-66,20,75,-41,25,25,0.195370403,-0.312963044,1,0,0,0.4817,submitButton,27.8173258,-0.276851834,-0.42129638,0,0,0,1,13,73,50,1,66,68818,blockT,180,2022-02-12_19h23.50.289,orientation adjustment block,2021.2.3,Win32,60.11783095,,,,,,,
,,,,,,,,,,,,,,,,,,,,,,72.22222222,25,20,75,51.22222222,26.22222222,26.22222222,-0.326851835,-0.404629713,1,0,0,1.2992,submitButton,27.79074074,0.325000036,-0.403703731,1,0,0,1,14,74,9,1,25,68818,blockT,180,2022-02-12_19h23.50.289,orientation adjustment block,2021.2.3,Win32,60.11783095,continueButton,,,,,,
,,,,,,,,,,,,,,,,,,,,,,-60,-27,20,75,-209,2,2,0.400000038,-0.297222246,1,0,0,0.2,submitButton,27.36794171,-0.342592576,-0.424074158,0,0,0,1,15,75,11,1,27,68818,blockT,180,2022-02-12_19h23.50.289,orientation adjustment block,2021.2.3,Win32,60.11783095,,,,,,,
,,,,,,,,,,,,,,,,,,,,,,28.33333333,72,20,75,234.3333333,17.66666667,17.66666667,0.157407439,-0.289814838,1,0,0,0.4843,submitButton,27.21146953,-0.223148128,-0.387963046,0,0,0,1,16,76,56,1,72,68818,blockT,180,2022-02-12_19h23.50.289,orientation adjustment block,2021.2.3,Win32,60.11783095,,,,,,,
,,,,,,,,,,,,,,,,,,,,,,32.77777778,-69,20,75,110.7777778,0.222222222,0.222222222,0.179629661,-0.283333357,1,0,0,0.484,submitButton,26.78306878,-0.315740724,-0.405555583,0,0,0,1,17,77,53,1,69,68818,blockT,180,2022-02-12_19h23.50.289,orientation adjustment block,2021.2.3,Win32,60.11783095,,,,,,,
,,,,,,,,,,,,,,,,,,,,,,-43.33333333,16,20,75,-130.3333333,33.66666667,33.66666667,-0.204629609,-0.393518602,1,0,0,2.3648,submitButton,26.890625,-0.204629609,-0.393518602,0,0,0,1,18,78,0,1,16,68818,blockT,180,2022-02-12_19h23.50.289,orientation adjustment block,2021.2.3,Win32,60.11783095,,,,,,,
,,,,,,,,,,,,,,,,,,,,,,-72.22222222,37,20,75,-109.2222222,33.77777778,33.77777778,0.426851891,-0.331481506,1,0,0,0.3554,submitButton,26.9965812,0.311111147,-0.350925951,0,0,0,1,19,79,21,1,37,68818,blockT,180,2022-02-12_19h23.50.289,orientation adjustment block,2021.2.3,Win32,60.11783095,,,,,,,
,,,,,,,,,,,,,,,,,,,,,,-34.44444444,21,20,75,147.5555556,53.44444444,53.44444444,0.240740774,-0.301851932,1,0,0,0.9498,submitButton,27.3973064,-0.240740721,-0.405555583,0,0,0,1,20,80,5,1,21,68818,blockT,180,2022-02-12_19h23.50.289,orientation adjustment block,2021.2.3,Win32,60.11783095,,,,,,,
,,,,,,,,,,,,,,,,,,,,,,72.77777778,-26,20,75,-43.22222222,17.22222222,17.22222222,0.388888927,-0.306481506,1,0,0,0.0843,submitButton,27.24543947,0.08148151,-0.210185206,0,0,0,1,21,81,10,1,26,68818,blockT,180,2022-02-12_19h23.50.289,orientation adjustment block,2021.2.3,Win32,60.11783095,,,,,,,
,,,,,,,,,,,,,,,,,,,,,,35.55555556,-46,20,75,-105.4444444,59.44444444,59.44444444,0.389814853,-0.276851932,1,0,0,0.3823,submitButton,27.71895425,-0.331481465,-0.404629713,0,0,0,1,22,82,30,1,46,68818,blockT,180,2022-02-12_19h23.50.289,orientation adjustment block,2021.2.3,Win32,60.11783095,,,,,,,
,,,,,,,,,,,,,,,,,,,,,,-27.77777778,-18,20,75,31.22222222,49.22222222,49.22222222,0.200925958,-0.287963043,1,0,0,4.4632,submitButton,28.03059581,-0.19074072,-0.415740825,0,0,0,1,23,83,2,1,18,68818,blockT,180,2022-02-12_19h23.50.289,orientation adjustment block,2021.2.3,Win32,60.11783095,,,,,,,
,,,,,,,,,,,,,,,,,,,,,,40,50,20,75,127,77,77,0.234259293,-0.290740821,1,0,0,21.3971,submitButton,28.73015873,-0.203703683,-0.412037064,0,0,0,1,24,84,34,1,50,68818,blockT,180,2022-02-12_19h23.50.289,orientation adjustment block,2021.2.3,Win32,60.11783095,,,,,,,
,,,,,,,,,,,,,,,,,,,,,,-57.77777778,-28,20,75,-46.77777778,18.77777778,18.77777778,0.212962996,-0.315740822,1,0,0,22.0962,submitButton,28.58998435,-0.213888869,-0.404629713,0,0,0,1,25,85,12,1,28,68818,blockT,180,2022-02-12_19h23.50.289,orientation adjustment block,2021.2.3,Win32,60.11783095,,,,,,,
,,,,,,,,,,,,,,,,,,,,,,-21.11111111,-55,20,75,-131.1111111,76.11111111,76.11111111,0.425925965,-0.311111135,1,0,0,14.022,submitButton,29.25,-0.379629614,-0.412963047,0,0,0,1,26,86,39,1,55,68818,blockT,180,2022-02-12_19h23.50.289,orientation adjustment block,2021.2.3,Win32,60.11783095,,,,,,,
,,,,,,,,,,,,,,,,,,,,,,-72.77777778,-35,20,75,-149.7777778,65.22222222,65.22222222,0.368518556,-0.307407488,1,0,0,1.4996,submitButton,29.74277017,-0.303703686,-0.42129638,0,0,0,1,27,87,19,1,35,68818,blockT,180,2022-02-12_19h23.50.289,orientation adjustment block,2021.2.3,Win32,60.11783095,,,,,,,
,,,,,,,,,,,,,,,,,,,,,,38.33333333,-38,20,75,143.3333333,1.333333333,1.333333333,0.188888921,-0.283333357,1,0,0,0.4825,submitButton,29.35885886,-0.282407389,-0.400000027,0,0,0,1,28,88,22,1,38,68818,blockT,180,2022-02-12_19h23.50.289,orientation adjustment block,2021.2.3,Win32,60.11783095,,,,,,,
,,,,,,,,,,,,,,,,,,,,,,-32.22222222,62,20,75,-25.22222222,87.22222222,87.22222222,0.427777817,-0.300000024,1,0,0,0.6654,submitButton,30.13037037,0.404629668,-0.393518602,1,0,0,1,29,89,46,1,62,68818,blockT,180,2022-02-12_19h23.50.289,orientation adjustment block,2021.2.3,Win32,60.11783095,continueButton,,,,,,
,,,,,,,,,,,,,,,,,,,,,,22.77777778,65,20,75,54.77777778,10.22222222,10.22222222,0.413888928,-0.319444469,1,0,0,0.7669,submitButton,29.86842105,-0.231481462,-0.391666693,0,0,0,1,30,90,49,1,65,68818,blockT,180,2022-02-12_19h23.50.289,orientation adjustment block,2021.2.3,Win32,60.11783095,,,,,,,
,,,,,,,,,,,,,,,,,,,,,,-30.55555556,-34,20,75,-32.55555556,1.444444444,1.444444444,0.389814853,-0.292592616,1,0,0,0.4833,submitButton,29.4992785,-0.192592572,-0.39629638,0,0,0,1,31,91,18,1,34,68818,blockT,180,2022-02-12_19h23.50.289,orientation adjustment block,2021.2.3,Win32,60.11783095,,,,,,,
,,,,,,,,,,,,,,,,,,,,,,-48.33333333,39,20,75,-9.333333333,48.33333333,48.33333333,-0.280555537,-0.372222248,1,0,0,17.7505,submitButton,29.74074074,0.000925952,-0.353703729,0,0,0,1,32,92,23,1,39,68818,blockT,180,2022-02-12_19h23.50.289,orientation adjustment block,2021.2.3,Win32,60.11783095,,,,,,,
,,,,,,,,,,,,,,,,,,,,,,-61.66666667,57,20,75,-115.6666667,7.333333333,7.333333333,-0.364814799,-0.432407492,1,0,0,2.198,submitButton,29.45710267,0.306481517,-0.353703729,0,0,0,1,33,93,41,1,57,68818,blockT,180,2022-02-12_19h23.50.289,orientation adjustment block,2021.2.3,Win32,60.11783095,,,,,,,
,,,,,,,,,,,,,,,,,,,,,,26.11111111,61,20,75,51.11111111,9.888888889,9.888888889,0.44074078,-0.310185266,1,0,0,0.2157,submitButton,29.2125,-0.262037018,-0.373148174,0,0,0,1,34,94,45,1,61,68818,blockT,180,2022-02-12_19h23.50.289,orientation adjustment block,2021.2.3,Win32,60.11783095,,,,,,,
,,,,,,,,,,,,,,,,,,,,,,-55.55555556,-49,20,75,-54.55555556,5.555555556,5.555555556,0.227777811,-0.284259283,1,0,0,0.3664,submitButton,28.92043896,-0.326851835,-0.38333336,0,0,0,1,35,95,33,1,49,68818,blockT,180,2022-02-12_19h23.50.289,orientation adjustment block,2021.2.3,Win32,60.11783095,,,,,,,
,,,,,,,,,,,,,,,,,,,,,,-71.11111111,-52,20,75,-51.11111111,0.888888889,0.888888889,0.238888922,-0.302777802,1,0,0,6.4108,submitButton,28.57859079,-0.25925924,-0.40833336,0,0,0,1,36,96,36,1,52,68818,blockT,180,2022-02-12_19h23.50.289,orientation adjustment block,2021.2.3,Win32,60.11783095,,,,,,,
,,,,,,,,,,,,,,,,,,,,,,-29.44444444,42,20,75,-28.44444444,70.44444444,70.44444444,0.408333372,-0.317592617,1,0,0,1.299,submitButton,29.08299866,-0.200925905,-0.400925953,0,0,0,1,37,97,26,1,42,68818,blockT,180,2022-02-12_19h23.50.289,orientation adjustment block,2021.2.3,Win32,60.11783095,,,,,,,
,,,,,,,,,,,,,,,,,,,,,,-48.33333333,54,20,75,23.66666667,30.33333333,30.33333333,0.190740773,-0.315740822,1,0,0,1.1822,submitButton,29.0978836,-0.318518502,-0.419444472,0,0,0,1,38,98,38,1,54,68818,blockT,180,2022-02-12_19h23.50.289,orientation adjustment block,2021.2.3,Win32,60.11783095,,,,,,,
,,,,,,,,,,,,,,,,,,,,,,64.44444444,67,20,75,199.4444444,47.55555556,47.55555556,0.187962995,-0.290740821,1,0,0,0.2328,submitButton,29.31503268,-0.239814795,-0.393518602,0,0,0,1,39,99,51,1,67,68818,blockT,180,2022-02-12_19h23.50.289,orientation adjustment block,2021.2.3,Win32,60.11783095,,,,,,,
,,,,,,,,,,,,,,,,,,,,,,-47.22222222,-31,20,75,28.77777778,59.77777778,59.77777778,0.171296328,-0.287963043,1,0,0,0.3163,submitButton,29.66925065,-0.272222204,-0.409259286,0,0,0,1,40,100,15,1,31,68818,blockT,180,2022-02-12_19h23.50.289,orientation adjustment block,2021.2.3,Win32,60.11783095,,,,,,,
,,,,,,,,,,,,,,,,,,,,,,-40,41,20,75,33,8,8,-0.391666652,-0.391666693,1,0,0,1.3324,submitButton,29.4201788,-0.391666652,-0.391666693,0,0,0,1,41,101,25,1,41,68818,blockT,180,2022-02-12_19h23.50.289,orientation adjustment block,2021.2.3,Win32,60.11783095,,,,,,,
,,,,,,,,,,,,,,,,,,,,,,-24.44444444,32,20,75,37.55555556,5.555555556,5.555555556,-0.466666654,-0.406481508,1,0,0,1.1976,submitButton,29.1489899,0.099074104,-0.237037059,0,0,0,1,42,102,16,1,32,68818,blockT,180,2022-02-12_19h23.50.289,orientation adjustment block,2021.2.3,Win32,60.11783095,,,,,,,
,,,,,,,,,,,,,,,,,,,,,,-57.77777778,-58,20,75,-56.77777778,1.222222222,1.222222222,-0.336111095,-0.387037063,1,0,0,1.4822,submitButton,28.83520599,-0.336111095,-0.387037063,0,0,0,1,43,103,42,1,58,68818,blockT,180,2022-02-12_19h23.50.289,orientation adjustment block,2021.2.3,Win32,60.11783095,,,,,,,
,,,,,,,,,,,,,,,,,,,,,,23.33333333,19,20,75,15.33333333,3.666666667,3.666666667,-0.420370356,-0.397222249,1,0,0,0.8497,submitButton,28.55555556,0.515740783,-0.409259286,1,0,0,1,44,104,3,1,19,68818,blockT,180,2022-02-12_19h23.50.289,orientation adjustment block,2021.2.3,Win32,60.11783095,continueButton,,,,,,
,,,,,,,,,,,,,,,,,,,,,,-36.66666667,-24,20,75,14.33333333,38.33333333,38.33333333,0.221296329,-0.308333357,1,0,0,0.5657,submitButton,28.66300366,0.219444477,-0.351851934,0,0,0,1,45,105,8,1,24,68818,blockT,180,2022-02-12_19h23.50.289,orientation adjustment block,2021.2.3,Win32,60.11783095,,,,,,,
,,,,,,,,,,,,,,,,,,,,,,-27.22222222,-17,20,75,-26.22222222,9.222222222,9.222222222,0.228703737,-0.293518599,1,0,0,1.2826,submitButton,28.45169082,0.213888922,-0.370370396,0,0,0,1,46,106,1,1,17,68818,blockT,180,2022-02-12_19h23.50.289,orientation adjustment block,2021.2.3,Win32,60.11783095,,,,,,,
,,,,,,,,,,,,,,,,,,,,,,-64.44444444,29,20,75,-1.444444444,30.44444444,30.44444444,0.190740773,-0.308333357,1,0,0,0.5836,submitButton,28.47311828,0.191666699,-0.282407487,0,0,0,1,47,107,13,1,29,68818,blockT,180,2022-02-12_19h23.50.289,orientation adjustment block,2021.2.3,Win32,60.11783095,,,,,,,
,,,,,,,,,,,,,,,,,,,,,,34.44444444,63,20,75,56.44444444,6.555555556,6.555555556,-0.230555536,-0.394444471,1,0,0,0.9495,submitButton,28.23995272,0.232407441,-0.279629709,0,0,0,1,48,108,47,1,63,68818,blockT,180,2022-02-12_19h23.50.289,orientation adjustment block,2021.2.3,Win32,60.11783095,,,,,,,
,,,,,,,,,,,,,,,,,,,,,,-40.55555556,22,20,75,13.44444444,8.555555556,8.555555556,0.206481514,-0.285185265,1,0,0,0.0338,submitButton,28.03274854,0.142592623,-0.194444465,0,0,0,1,49,109,6,1,22,68818,blockT,180,2022-02-12_19h23.50.289,orientation adjustment block,2021.2.3,Win32,60.11783095,,,,,,,
,,,,,,,,,,,,,,,,,,,,,,-43.88888889,56,20,75,40.11111111,15.88888889,15.88888889,0.218518552,-0.292592616,1,0,0,0.1844,submitButton,27.90625,0.274074109,-0.325000025,0,0,0,1,50,110,40,1,56,68818,blockT,180,2022-02-12_19h23.50.289,orientation adjustment block,2021.2.3,Win32,60.11783095,,,,,,,
,,,,,,,,,,,,,,,,,,,,,,-21.11111111,75,20,75,-109.1111111,4.111111111,4.111111111,0.387037075,-0.307407488,1,0,0,0.0169,submitButton,27.66093929,0.21203707,-0.268518598,0,0,0,1,51,111,59,1,75,68818,blockT,180,2022-02-12_19h23.50.289,orientation adjustment block,2021.2.3,Win32,60.11783095,,,,,,,
,,,,,,,,,,,,,,,,,,,,,,66.66666667,40,20,75,231.6666667,11.66666667,11.66666667,-0.199074054,-0.387037063,1,0,0,1.732,submitButton,27.49773243,0.169444476,-0.350925951,0,0,0,1,52,112,24,1,40,68818,blockT,180,2022-02-12_19h23.50.289,orientation adjustment block,2021.2.3,Win32,60.11783095,,,,,,,
,,,,,,,,,,,,,,,,,,,,,,-53.33333333,44,20,75,53.66666667,9.666666667,9.666666667,-0.474999988,-0.42222225,1,0,0,1.0996,submitButton,27.31762065,0.122222252,-0.286111135,0,0,0,1,53,113,28,1,44,68818,blockT,180,2022-02-12_19h23.50.289,orientation adjustment block,2021.2.3,Win32,60.11783095,,,,,,,
,,,,,,,,,,,,,,,,,,,,,,-51.11111111,53,20,75,-24.11111111,77.11111111,77.11111111,0.416666706,-0.297222246,1,0,0,0.6236,submitButton,27.81555556,-0.219444424,-0.419444472,0,0,0,1,54,114,37,1,53,68818,blockT,180,2022-02-12_19h23.50.289,orientation adjustment block,2021.2.3,Win32,60.11783095,,,,,,,
,,,,,,,,,,,,,,,,,,,,,,29.44444444,-59,20,75,-55.55555556,3.444444444,3.444444444,0.423148187,-0.290740821,1,0,0,0.1173,submitButton,27.57425743,0.325925962,-0.258333356,0,0,0,1,55,115,43,1,59,68818,blockT,180,2022-02-12_19h23.50.289,orientation adjustment block,2021.2.3,Win32,60.11783095,,,,,,,
,,,,,,,,,,,,,,,,,,,,,,-72.22222222,-70,20,75,-218.2222222,31.77777778,31.77777778,0.37685189,-0.298148172,1,0,0,0.1827,submitButton,27.61546841,-0.028703622,-0.249074153,0,0,0,1,56,116,54,1,70,68818,blockT,180,2022-02-12_19h23.50.289,orientation adjustment block,2021.2.3,Win32,60.11783095,,,,,,,
,,,,,,,,,,,,,,,,,,,,,,74.44444444,64,20,75,209.4444444,34.55555556,34.55555556,0.16388892,-0.293518599,1,0,0,0.5153,submitButton,27.6828479,0.229629663,-0.241666689,0,0,0,1,57,117,48,1,64,68818,blockT,180,2022-02-12_19h23.50.289,orientation adjustment block,2021.2.3,Win32,60.11783095,,,,,,,
,,,,,,,,,,,,,,,,,,,,,,65,-45,20,75,51,84,84,0.178703736,-0.298148172,1,0,0,0.3668,submitButton,28.22435897,-0.23888887,-0.406481508,0,0,0,1,58,118,29,1,45,68818,blockT,180,2022-02-12_19h23.50.289,orientation adjustment block,2021.2.3,Win32,60.11783095,,,,,,,
,,,,,,,,,,,,,,,,,,,,,,-35.55555556,47,20,75,43.44444444,3.555555556,3.555555556,0.211111144,-0.280555579,1,0,0,0.4198,submitButton,27.98941799,0.388888927,-0.419444472,1,0,0,1,59,119,31,1,47,68818,blockT,180,2022-02-12_19h23.50.289,orientation adjustment block,2021.2.3,Win32,60.11783095,continueButton,,,,,,
,,,,,,,,,,,,,,,,,,,,,,-36.66666667,31,20,75,32.33333333,1.333333333,1.333333333,0.210185218,-0.28703706,1,0,0,0.8657,submitButton,27.73794549,-0.291666649,-0.393518602,0,0,0,2,0,120,15,1,31,68818,blockT,180,2022-02-12_19h23.50.289,orientation adjustment block,2021.2.3,Win32,60.11783095,,,,,,,
,,,,,,,,,,,,,,,,,,,,,,37.77777778,20,20,75,-19.22222222,39.22222222,39.22222222,0.398148187,-0.288888912,1,0,0,0.1326,submitButton,27.84527518,-0.224074054,-0.388888915,0,0,0,2,1,121,4,1,20,68818,blockT,180,2022-02-12_19h23.50.289,orientation adjustment block,2021.2.3,Win32,60.11783095,,,,,,,
,,,,,,,,,,,,,,,,,,,,,,-63.88888889,67,20,75,40.11111111,26.88888889,26.88888889,0.182407439,-0.313888913,1,0,0,1.3664,submitButton,27.83641975,-0.31666665,-0.406481508,0,0,0,2,2,122,51,1,67,68818,blockT,180,2022-02-12_19h23.50.289,orientation adjustment block,2021.2.3,Win32,60.11783095,,,,,,,
,,,,,,,,,,,,,,,,,,,,,,-25.55555556,-21,20,75,-0.555555556,20.44444444,20.44444444,0.20277781,-0.318518599,1,0,0,2.5144,submitButton,27.76860347,-0.2685185,-0.426851936,0,0,0,2,3,123,5,1,21,68818,blockT,180,2022-02-12_19h23.50.289,orientation adjustment block,2021.2.3,Win32,60.11783095,,,,,,,
,,,,,,,,,,,,,,,,,,,,,,-55.55555556,57,20,75,29.44444444,27.55555556,27.55555556,-0.269444426,-0.393518602,1,0,0,1.4161,submitButton,27.76666667,-0.269444426,-0.393518602,0,0,0,2,4,124,41,1,57,68818,blockT,180,2022-02-12_19h23.50.289,orientation adjustment block,2021.2.3,Win32,60.11783095,,,,,,,
,,,,,,,,,,,,,,,,,,,,,,-52.22222222,-28,20,75,-106.2222222,78.22222222,78.22222222,0.236111145,-0.29166669,1,0,0,11.5241,submitButton,28.22122122,-0.179629608,-0.410185269,0,0,0,2,5,125,12,1,28,68818,blockT,180,2022-02-12_19h23.50.289,orientation adjustment block,2021.2.3,Win32,60.11783095,,,,,,,
,,,,,,,,,,,,,,,,,,,,,,63.88888889,46,20,75,213.8888889,12.11111111,12.11111111,0.183333365,-0.29166669,1,0,0,0.2165,submitButton,28.07738095,-0.460185144,-0.386111138,0,0,0,2,6,126,30,1,46,68818,blockT,180,2022-02-12_19h23.50.289,orientation adjustment block,2021.2.3,Win32,60.11783095,,,,,,,
,,,,,,,,,,,,,,,,,,,,,,-40.55555556,-26,20,75,23.44444444,49.44444444,49.44444444,0.146296327,-0.279629709,1,0,0,17.1015,submitButton,28.26647001,-0.192592572,-0.401851935,0,0,0,2,7,127,10,1,26,68818,blockT,180,2022-02-12_19h23.50.289,orientation adjustment block,2021.2.3,Win32,60.11783095,,,,,,,
,,,,,,,,,,,,,,,,,,,,,,-74.44444444,-66,20,75,-201.4444444,44.55555556,44.55555556,0.37222226,-0.297222246,1,0,0,1.999,submitButton,28.40935673,-0.265740722,-0.393518602,0,0,0,2,8,128,50,1,66,68818,blockT,180,2022-02-12_19h23.50.289,orientation adjustment block,2021.2.3,Win32,60.11783095,,,,,,,
,,,,,,,,,,,,,,,,,,,,,,-72.77777778,47,20,75,44.22222222,2.777777778,2.777777778,0.221296329,-0.296296377,1,0,0,0.134,submitButton,28.18647343,-0.358333318,-0.402777805,0,0,0,2,9,129,31,1,47,68818,blockT,180,2022-02-12_19h23.50.289,orientation adjustment block,2021.2.3,Win32,60.11783095,,,,,,,
,,,,,,,,,,,,,,,,,,,,,,71.66666667,-53,20,75,0.666666667,53.66666667,53.66666667,0.423148187,-0.276851932,1,0,0,4.7123,submitButton,28.40613027,-0.600925917,-0.392592619,0,0,0,2,10,130,37,1,53,68818,blockT,180,2022-02-12_19h23.50.289,orientation adjustment block,2021.2.3,Win32,60.11783095,,,,,,,
,,,,,,,,,,,,,,,,,,,,,,-43.88888889,-30,20,75,-187.8888889,22.11111111,22.11111111,-0.175925848,-0.387037063,1,0,0,2.7294,submitButton,28.35232669,0.04259262,-0.327777802,0,0,0,2,11,131,14,1,30,68818,blockT,180,2022-02-12_19h23.50.289,orientation adjustment block,2021.2.3,Win32,60.11783095,,,,,,,
,,,,,,,,,,,,,,,,,,,,,,43.88888889,52,20,75,129.8888889,77.88888889,77.88888889,0.187962995,-0.310185266,1,0,0,0.6251,submitButton,28.77212806,-0.242592573,-0.400925953,0,0,0,2,12,132,36,1,52,68818,blockT,180,2022-02-12_19h23.50.289,orientation adjustment block,2021.2.3,Win32,60.11783095,,,,,,,
,,,,,,,,,,,,,,,,,,,,,,48.88888889,-18,20,75,-10.11111111,7.888888889,7.888888889,0.373148186,-0.299074154,1,0,0,0.2325,submitButton,28.59663866,-0.292592575,-0.405555583,0,0,0,2,13,133,2,1,18,68818,blockT,180,2022-02-12_19h23.50.289,orientation adjustment block,2021.2.3,Win32,60.11783095,,,,,,,
,,,,,,,,,,,,,,,,,,,,,,30,-74,20,75,-77,3,3,-0.145370292,-0.392592619,1,0,0,1.0177,submitButton,28.38333333,0.417592632,-0.397222249,1,0,0,2,14,134,58,1,74,68818,blockT,180,2022-02-12_19h23.50.289,orientation adjustment block,2021.2.3,Win32,60.11783095,continueButton,,,,,,
,,,,,,,,,,,,,,,,,,,,,,38.33333333,36,20,75,209.3333333,6.666666667,6.666666667,-0.198148128,-0.42129638,1,0,0,2.9811,submitButton,28.20385675,-0.198148128,-0.42129638,0,0,0,2,15,135,20,1,36,68818,blockT,180,2022-02-12_19h23.50.289,orientation adjustment block,2021.2.3,Win32,60.11783095,,,,,,,
,,,,,,,,,,,,,,,,,,,,,,-58.33333333,-40,20,75,-195.3333333,24.66666667,24.66666667,-0.261111092,-0.399074157,1,0,0,2.9149,submitButton,28.17486339,-0.261111092,-0.399074157,0,0,0,2,16,136,24,1,40,68818,blockT,180,2022-02-12_19h23.50.289,orientation adjustment block,2021.2.3,Win32,60.11783095,,,,,,,
,,,,,,,,,,,,,,,,,,,,,,-47.22222222,-54,20,75,-205.2222222,28.77777778,28.77777778,0.385185223,-0.297222246,1,0,0,0.3827,submitButton,28.17976513,-0.227777758,-0.372222248,0,0,0,2,17,137,38,1,54,68818,blockT,180,2022-02-12_19h23.50.289,orientation adjustment block,2021.2.3,Win32,60.11783095,,,,,,,
,,,,,,,,,,,,,,,,,,,,,,-26.11111111,-29,20,75,-200.1111111,8.888888889,8.888888889,-0.182407386,-0.386111138,1,0,0,3.1309,submitButton,28.02419355,0.316666703,-0.30555558,0,0,0,2,18,138,13,1,29,68818,blockT,180,2022-02-12_19h23.50.289,orientation adjustment block,2021.2.3,Win32,60.11783095,,,,,,,
,,,,,,,,,,,,,,,,,,,,,,-55,-25,20,75,-203,2,2,0.432407447,-0.290740821,1,0,0,1.8404,submitButton,27.816,-0.31203702,-0.407407491,0,0,0,2,19,139,9,1,25,68818,blockT,180,2022-02-12_19h23.50.289,orientation adjustment block,2021.2.3,Win32,60.11783095,,,,,,,
,,,,,,,,,,,,,,,,,,,,,,71.11111111,75,20,75,229.1111111,25.88888889,25.88888889,0.212962996,-0.286111135,1,0,0,1.2073,submitButton,27.80070547,-0.386111096,-0.406481508,0,0,0,2,20,140,59,1,75,68818,blockT,180,2022-02-12_19h23.50.289,orientation adjustment block,2021.2.3,Win32,60.11783095,,,,,,,
,,,,,,,,,,,,,,,,,,,,,,-33.88888889,-60,20,75,-125.8888889,65.88888889,65.88888889,0.397222261,-0.289814838,1,0,0,2.6975,submitButton,28.10061242,-0.242592573,-0.403703731,0,0,0,2,21,141,44,1,60,68818,blockT,180,2022-02-12_19h23.50.289,orientation adjustment block,2021.2.3,Win32,60.11783095,,,,,,,
,,,,,,,,,,,,,,,,,,,,,,69.44444444,45,20,75,187.4444444,37.55555556,37.55555556,0.20740744,-0.325000025,1,0,0,1.6156,submitButton,28.17447917,-0.271296278,-0.413888916,0,0,0,2,22,142,29,1,45,68818,blockT,180,2022-02-12_19h23.50.289,orientation adjustment block,2021.2.3,Win32,60.11783095,,,,,,,
,,,,,,,,,,,,,,,,,,,,,,-45,55,20,75,37,18,18,0.161111142,-0.283333357,1,0,0,10.508,submitButton,28.09560724,-0.401851837,-0.401851935,0,0,0,2,23,143,39,1,55,68818,blockT,180,2022-02-12_19h23.50.289,orientation adjustment block,2021.2.3,Win32,60.11783095,,,,,,,
,,,,,,,,,,,,,,,,,,,,,,-61.11111111,58,20,75,30.88888889,27.11111111,27.11111111,0.187962995,-0.289814838,1,0,0,0.7684,submitButton,28.08803419,-0.160185163,-0.391666693,0,0,0,2,24,144,42,1,58,68818,blockT,180,2022-02-12_19h23.50.289,orientation adjustment block,2021.2.3,Win32,60.11783095,,,,,,,
,,,,,,,,,,,,,,,,,,,,,,-52.77777778,-17,20,75,-201.7777778,4.777777778,4.777777778,-0.197222202,-0.409259286,1,0,0,2.7808,submitButton,27.9100933,-0.197222202,-0.409259286,0,0,0,2,25,145,1,1,17,68818,blockT,180,2022-02-12_19h23.50.289,orientation adjustment block,2021.2.3,Win32,60.11783095,,,,,,,
,,,,,,,,,,,,,,,,,,,,,,-49.44444444,51,20,75,41.55555556,9.444444444,9.444444444,-0.240740721,-0.406481508,1,0,0,1.0342,submitButton,27.77020202,0.271296331,-0.34444447,0,0,0,2,26,146,35,1,51,68818,blockT,180,2022-02-12_19h23.50.289,orientation adjustment block,2021.2.3,Win32,60.11783095,,,,,,,
,,,,,,,,,,,,,,,,,,,,,,31.66666667,-41,20,75,-31.33333333,9.666666667,9.666666667,-0.163888867,-0.409259286,1,0,0,1.2325,submitButton,27.63408521,-0.163888867,-0.409259286,0,0,0,2,27,147,25,1,41,68818,blockT,180,2022-02-12_19h23.50.289,orientation adjustment block,2021.2.3,Win32,60.11783095,,,,,,,
,,,,,,,,,,,,,,,,,,,,,,-31.66666667,-44,20,75,31.33333333,75.33333333,75.33333333,-0.187037016,-0.381481508,1,0,0,2.133,submitButton,27.99004975,-0.187037016,-0.381481508,0,0,0,2,28,148,28,1,44,68818,blockT,180,2022-02-12_19h23.50.289,orientation adjustment block,2021.2.3,Win32,60.11783095,,,,,,,
,,,,,,,,,,,,,,,,,,,,,,-53.33333333,-24,20,75,-200.3333333,3.666666667,3.666666667,-0.164814737,-0.387963046,1,0,0,2.2261,submitButton,27.80987654,0.393518557,-0.409259286,1,0,0,2,29,149,8,1,24,68818,blockT,180,2022-02-12_19h23.50.289,orientation adjustment block,2021.2.3,Win32,60.11783095,continueButton,,,,,,
,,,,,,,,,,,,,,,,,,,,,,-58.33333333,62,20,75,38.66666667,23.33333333,23.33333333,0.100925955,-0.316666691,1,0,0,0.1056,submitButton,27.77696078,-0.366666651,-0.399074157,0,0,0,2,30,150,46,1,62,68818,blockT,180,2022-02-12_19h23.50.289,orientation adjustment block,2021.2.3,Win32,60.11783095,,,,,,,
,,,,,,,,,,,,,,,,,,,,,,-60.55555556,49,20,75,34.44444444,14.55555556,14.55555556,0.231481515,-0.281481505,1,0,0,0.5324,submitButton,27.68045418,-0.26388887,-0.42129638,0,0,0,2,31,151,33,1,49,68818,blockT,180,2022-02-12_19h23.50.289,orientation adjustment block,2021.2.3,Win32,60.11783095,,,,,,,
,,,,,,,,,,,,,,,,,,,,,,20,-35,20,75,-10,25,25,0.214814848,-0.299074154,1,0,0,0.4156,submitButton,27.6610306,-0.488888877,-0.394444471,0,0,0,2,32,152,19,1,35,68818,blockT,180,2022-02-12_19h23.50.289,orientation adjustment block,2021.2.3,Win32,60.11783095,,,,,,,
,,,,,,,,,,,,,,,,,,,,,,-33.88888889,69,20,75,69.11111111,0.111111111,0.111111111,0.404629668,-0.273148171,1,0,0,0.5489,submitButton,27.46282974,-0.451851811,-0.381481508,0,0,0,2,33,153,53,1,69,68818,blockT,180,2022-02-12_19h23.50.289,orientation adjustment block,2021.2.3,Win32,60.11783095,,,,,,,
,,,,,,,,,,,,,,,,,,,,,,43.33333333,-27,20,75,41.33333333,68.33333333,68.33333333,0.166666698,-0.288888912,1,0,0,0.1338,submitButton,27.7547619,-0.231481462,-0.410185269,0,0,0,2,34,154,11,1,27,68818,blockT,180,2022-02-12_19h23.50.289,orientation adjustment block,2021.2.3,Win32,60.11783095,,,,,,,
,,,,,,,,,,,,,,,,,,,,,,32.77777778,71,20,75,206.7777778,44.22222222,44.22222222,0.197222255,-0.303703728,1,0,0,0.2837,submitButton,27.8715524,-0.514814804,-0.405555583,0,0,0,2,35,155,55,1,71,68818,blockT,180,2022-02-12_19h23.50.289,orientation adjustment block,2021.2.3,Win32,60.11783095,,,,,,,
,,,,,,,,,,,,,,,,,,,,,,-21.66666667,-33,20,75,50.33333333,83.33333333,83.33333333,0.187962995,-0.28703706,1,0,0,0.6637,submitButton,28.26212833,-0.488888877,-0.395370397,0,0,0,2,36,156,17,1,33,68818,blockT,180,2022-02-12_19h23.50.289,orientation adjustment block,2021.2.3,Win32,60.11783095,,,,,,,
,,,,,,,,,,,,,,,,,,,,,,67.22222222,48,20,75,115.2222222,67.22222222,67.22222222,-0.142592514,-0.409259286,1,0,0,1.6487,submitButton,28.53457653,-0.142592514,-0.409259286,0,0,0,2,37,157,32,1,48,68818,blockT,180,2022-02-12_19h23.50.289,orientation adjustment block,2021.2.3,Win32,60.11783095,,,,,,,
,,,,,,,,,,,,,,,,,,,,,,75,37,20,75,212,5,5,0.191666699,-0.296296377,1,0,0,0.5427,submitButton,28.37114198,-0.313888872,-0.392592619,0,0,0,2,38,158,21,1,37,68818,blockT,180,2022-02-12_19h23.50.289,orientation adjustment block,2021.2.3,Win32,60.11783095,,,,,,,
,,,,,,,,,,,,,,,,,,,,,,25,70,20,75,213,37,37,-0.41944443,-0.400925953,1,0,0,2.997,submitButton,28.43065134,-0.41944443,-0.400925953,0,0,0,2,39,159,54,1,70,68818,blockT,180,2022-02-12_19h23.50.289,orientation adjustment block,2021.2.3,Win32,60.11783095,,,,,,,
,,,,,,,,,,,,,,,,,,,,,,61.66666667,-56,20,75,22.66666667,78.66666667,78.66666667,0.20740744,-0.293518599,1,0,0,1.0849,submitButton,28.77473364,-0.364814799,-0.385185268,0,0,0,2,40,160,40,1,56,68818,blockT,180,2022-02-12_19h23.50.289,orientation adjustment block,2021.2.3,Win32,60.11783095,,,,,,,
,,,,,,,,,,,,,,,,,,,,,,-21.66666667,43,20,75,-15.66666667,58.66666667,58.66666667,0.387963001,-0.301851932,1,0,0,0.9982,submitButton,28.97808012,-0.483333321,-0.384259286,0,0,0,2,41,161,27,1,43,68818,blockT,180,2022-02-12_19h23.50.289,orientation adjustment block,2021.2.3,Win32,60.11783095,,,,,,,
,,,,,,,,,,,,,,,,,,,,,,-56.66666667,-50,20,75,-217.6666667,12.33333333,12.33333333,0.389814853,-0.307407488,1,0,0,0.5844,submitButton,28.86561562,-0.287962945,-0.406481508,0,0,0,2,42,162,34,1,50,68818,blockT,180,2022-02-12_19h23.50.289,orientation adjustment block,2021.2.3,Win32,60.11783095,,,,,,,
,,,,,,,,,,,,,,,,,,,,,,75,34,20,75,144,70,70,0.175000032,-0.290740821,1,0,0,2.8982,submitButton,29.14168531,-0.243518499,-0.424074158,0,0,0,2,43,163,18,1,34,68818,blockT,180,2022-02-12_19h23.50.289,orientation adjustment block,2021.2.3,Win32,60.11783095,,,,,,,
,,,,,,,,,,,,,,,,,,,,,,-56.66666667,-22,20,75,-41.66666667,19.66666667,19.66666667,0.17314818,-0.326851933,1,0,0,9.7255,submitButton,29.07851852,0.370370408,-0.410185269,1,0,0,2,44,164,6,1,22,68818,blockT,180,2022-02-12_19h23.50.289,orientation adjustment block,2021.2.3,Win32,60.11783095,continueButton,,,,,,
,,,,,,,,,,,,,,,,,,,,,,49.44444444,-65,20,75,32.44444444,82.55555556,82.55555556,-0.185185164,-0.42222225,1,0,0,1.6893,submitButton,29.43267108,-0.185185164,-0.42222225,0,0,0,2,45,165,49,1,65,68818,blockT,180,2022-02-12_19h23.50.289,orientation adjustment block,2021.2.3,Win32,60.11783095,,,,,,,
,,,,,,,,,,,,,,,,,,,,,,-47.22222222,-68,20,75,-64.22222222,3.777777778,3.777777778,-0.26388887,-0.403703731,1,0,0,1.0593,submitButton,29.26388889,-0.26388887,-0.403703731,0,0,0,2,46,166,52,1,68,68818,blockT,180,2022-02-12_19h23.50.289,orientation adjustment block,2021.2.3,Win32,60.11783095,,,,,,,
,,,,,,,,,,,,,,,,,,,,,,-30,19,20,75,-139,22,22,0.394444483,-0.292592616,1,0,0,0.3334,submitButton,29.21641249,-0.260185166,-0.39629638,0,0,0,2,47,167,3,1,19,68818,blockT,180,2022-02-12_19h23.50.289,orientation adjustment block,2021.2.3,Win32,60.11783095,,,,,,,
,,,,,,,,,,,,,,,,,,,,,,-33.33333333,39,20,75,-23.33333333,62.33333333,62.33333333,0.357407445,-0.276851932,1,0,0,0.6576,submitButton,29.43145743,-0.25925924,-0.377777804,0,0,0,2,48,168,23,1,39,68818,blockT,180,2022-02-12_19h23.50.289,orientation adjustment block,2021.2.3,Win32,60.11783095,,,,,,,
,,,,,,,,,,,,,,,,,,,,,,-55.55555556,73,20,75,-50.55555556,56.44444444,56.44444444,0.374074112,-0.286111135,1,0,0,0.2994,submitButton,29.60573477,-0.276851834,-0.392592619,0,0,0,2,49,169,57,1,73,68818,blockT,180,2022-02-12_19h23.50.289,orientation adjustment block,2021.2.3,Win32,60.11783095,,,,,,,
,,,,,,,,,,,,,,,,,,,,,,-40.55555556,-63,20,75,-81.55555556,18.55555556,18.55555556,0.20277781,-0.30092595,1,0,0,0.7743,submitButton,29.53490028,-0.395370356,-0.399074157,0,0,0,2,50,170,47,1,63,68818,blockT,180,2022-02-12_19h23.50.289,orientation adjustment block,2021.2.3,Win32,60.11783095,,,,,,,
,,,,,,,,,,,,,,,,,,,,,,-45,-61,20,75,-221,20,20,0.379629667,-0.299074154,1,0,0,0.1676,submitButton,29.47416844,-0.338888872,-0.394444471,0,0,0,2,51,171,45,1,61,68818,blockT,180,2022-02-12_19h23.50.289,orientation adjustment block,2021.2.3,Win32,60.11783095,,,,,,,
,,,,,,,,,,,,,,,,,,,,,,47.77777778,-42,20,75,25.77777778,67.77777778,67.77777778,0.148148179,-0.30555558,1,0,0,1.3341,submitButton,29.71659634,0.359259296,-0.348148173,0,0,0,2,52,172,26,1,42,68818,blockT,180,2022-02-12_19h23.50.289,orientation adjustment block,2021.2.3,Win32,60.11783095,,,,,,,
,,,,,,,,,,,,,,,,,,,,,,45,16,20,75,-10,26,26,0.405555594,-0.294444468,1,0,0,0.1327,submitButton,29.69322152,-0.184259238,-0.404629713,0,0,0,2,53,173,0,1,16,68818,blockT,180,2022-02-12_19h23.50.289,orientation adjustment block,2021.2.3,Win32,60.11783095,,,,,,,
,,,,,,,,,,,,,,,,,,,,,,-47.22222222,32,20,75,-15.22222222,47.22222222,47.22222222,-0.296296279,-0.38333336,1,0,0,0.7847,submitButton,29.80277778,0.272222257,-0.273148171,0,0,0,2,54,174,16,1,32,68818,blockT,180,2022-02-12_19h23.50.289,orientation adjustment block,2021.2.3,Win32,60.11783095,,,,,,,
,,,,,,,,,,,,,,,,,,,,,,43.33333333,64,20,75,206.3333333,37.66666667,37.66666667,-0.230555536,-0.412037064,1,0,0,1.6156,submitButton,29.85162181,0.137037068,-0.328703728,0,0,0,2,55,175,48,1,64,68818,blockT,180,2022-02-12_19h23.50.289,orientation adjustment block,2021.2.3,Win32,60.11783095,,,,,,,
,,,,,,,,,,,,,,,,,,,,,,60,38,20,75,57,19,19,-0.349999984,-0.38240749,1,0,0,1.1067,submitButton,29.78463649,0.341666703,-0.33055558,0,0,0,2,56,176,22,1,38,68818,blockT,180,2022-02-12_19h23.50.289,orientation adjustment block,2021.2.3,Win32,60.11783095,,,,,,,
,,,,,,,,,,,,,,,,,,,,,,-62.77777778,-72,20,75,-74.77777778,2.777777778,2.777777778,0.200925958,-0.316666691,1,0,0,0.3012,submitButton,29.61895024,0.139814845,-0.245370393,0,0,0,2,57,177,56,1,72,68818,blockT,180,2022-02-12_19h23.50.289,orientation adjustment block,2021.2.3,Win32,60.11783095,,,,,,,
,,,,,,,,,,,,,,,,,,,,,,-73.33333333,59,20,75,-61.33333333,59.66666667,59.66666667,0.375925964,-0.302777802,1,0,0,0.2965,submitButton,29.80216802,-0.163888867,-0.419444472,0,0,0,2,58,178,43,1,59,68818,blockT,180,2022-02-12_19h23.50.289,orientation adjustment block,2021.2.3,Win32,60.11783095,,,,,,,
,,,,,,,,,,,,,,,,,,,,,,-68.88888889,23,20,75,12.11111111,10.88888889,10.88888889,0.231481515,-0.309259283,1,0,0,0.0846,submitButton,29.68754209,-0.003703621,-0.231481503,0,0,0,2,59,179,7,1,23,68818,blockT,180,2022-02-12_19h23.50.289,orientation adjustment block,2021.2.3,Win32,60.11783095,,,,,,,
,,,,,,,,,,,,,,,,,,,,,,,,,,,,,,,,,,,,,,,,,,,,,,,,68818,blockT,180,2022-02-12_19h23.50.289,orientation adjustment block,2021.2.3,Win32,60.11783095,,0.290740776,-0.41759262,1,0,0,EndButtonTxt
