consentMouse1.x,consentMouse1.y,consentMouse1.leftButton,consentMouse1.midButton,consentMouse1.rightButton,consentMouse1.clicked_name,consent_Mouse.x,consent_Mouse.y,consent_Mouse.leftButton,consent_Mouse.midButton,consent_Mouse.rightButton,consent_Mouse.clicked_name,startMouse.x,startMouse.y,startMouse.leftButton,startMouse.midButton,startMouse.rightButton,startMouse_2.x,startMouse_2.y,startMouse_2.leftButton,startMouse_2.midButton,startMouse_2.rightButton,start_distance,fixedOri,minimalDistance,maxOri,this_ori,accuracy,presented_accuracy,submitMouse.x,submitMouse.y,submitMouse.leftButton,submitMouse.midButton,submitMouse.rightButton,submitMouse.time,submitMouse.clicked_name,block_accuracy,continueMouse.x,continueMouse.y,continueMouse.leftButton,continueMouse.midButton,continueMouse.rightButton,trials.thisRepN,trials.thisTrialN,trials.thisN,trials.thisIndex,trials.ran,startOri,participant,condition,nTrials,date,expName,psychopyVersion,OS,frameRate,continueMouse.clicked_name,EndButtonMouse.x,EndButtonMouse.y,EndButtonMouse.leftButton,EndButtonMouse.midButton,EndButtonMouse.rightButton,EndButtonMouse.clicked_name
0.336111148,-0.412037064,1,0,0,consent_button1,0.402777816,-0.406481508,1,0,0,consent_button,0.402777816,-0.406481508,1,0,0,0.402777816,-0.406481508,1,0,0,21.11111111,-75,20,75,-168.8888889,86.11111111,86.11111111,0.414814854,-0.285185265,1,0,0,2.5631,submitButton,86.11111111,0.016666694,-0.335185267,0,0,0,0,0,0,59,1,75,68932,blockT,180,2022-02-17_20h01.58.853,orientation adjustment block,2021.2.3,Win32,59.94125757,,,,,,,
,,,,,,,,,,,,,,,,,,,,,,33.33333333,-61,20,75,-3.666666667,57.33333333,57.33333333,0.2166667,-0.300000024,1,0,0,0.3662,submitButton,71.72222222,-0.0564814,-0.364814841,0,0,0,0,1,1,45,1,61,68932,blockT,180,2022-02-17_20h01.58.853,orientation adjustment block,2021.2.3,Win32,59.94125757,,,,,,,
,,,,,,,,,,,,,,,,,,,,,,-57.77777778,21,20,75,47.22222222,26.22222222,26.22222222,0.187962995,-0.303703728,1,0,0,0.1166,submitButton,56.55555556,0.072222251,-0.398148175,0,0,0,0,2,2,5,1,21,68932,blockT,180,2022-02-17_20h01.58.853,orientation adjustment block,2021.2.3,Win32,59.94125757,,,,,,,
,,,,,,,,,,,,,,,,,,,,,,46.11111111,53,20,75,234.1111111,1.111111111,1.111111111,0.192592625,-0.312037174,1,0,0,0.0339,submitButton,1.111111111,0.282407442,-0.26574082,0,0,0,0,3,3,37,1,53,68932,blockT,180,2022-02-17_20h01.58.853,orientation adjustment block,2021.2.3,Win32,59.94125757,,,,,,,
,,,,,,,,,,,,,,,,,,,,,,-26.66666667,-54,20,75,-62.66666667,8.666666667,8.666666667,0.412963002,-0.307407488,1,0,0,0.7665,submitButton,4.888888889,-0.231481462,-0.370370396,0,0,0,0,4,4,38,1,54,68932,blockT,180,2022-02-17_20h01.58.853,orientation adjustment block,2021.2.3,Win32,59.94125757,,,,,,,
,,,,,,,,,,,,,,,,,,,,,,63.33333333,55,20,75,235.3333333,0.333333333,0.333333333,-0.30740739,-0.428703731,1,0,0,2.4833,submitButton,3.37037037,0.12500003,-0.306481506,0,0,0,0,5,5,39,1,55,68932,blockT,180,2022-02-17_20h01.58.853,orientation adjustment block,2021.2.3,Win32,59.94125757,,,,,,,
,,,,,,,,,,,,,,,,,,,,,,68.88888889,-27,20,75,-26.11111111,0.888888889,0.888888889,0.395370409,-0.30092595,1,0,0,0.05,submitButton,0.888888889,-0.161111089,-0.404629713,0,0,0,0,6,6,11,1,27,68932,blockT,180,2022-02-17_20h01.58.853,orientation adjustment block,2021.2.3,Win32,59.94125757,,,,,,,
,,,,,,,,,,,,,,,,,,,,,,47.22222222,-36,20,75,-42.77777778,6.777777778,6.777777778,0.400000038,-0.297222246,1,0,0,0.7169,submitButton,3.833333333,0.065740769,-0.413889029,0,0,0,0,7,7,20,1,36,68932,blockT,180,2022-02-17_20h01.58.853,orientation adjustment block,2021.2.3,Win32,59.94125757,,,,,,,
,,,,,,,,,,,,,,,,,,,,,,28.88888889,31,20,75,34.88888889,3.888888889,3.888888889,0.369444708,-0.287963043,1,0,0,0.7501,submitButton,3.851851852,-0.029629604,-0.349074156,0,0,0,0,8,8,15,1,31,68932,blockT,180,2022-02-17_20h01.58.853,orientation adjustment block,2021.2.3,Win32,59.94125757,,,,,,,
,,,,,,,,,,,,,,,,,,,,,,-42.22222222,-62,20,75,-112.2222222,50.22222222,50.22222222,0.228703737,-0.278703727,1,0,0,0.7662,submitButton,50.22222222,-0.287962945,-0.40833336,0,0,0,0,9,9,46,1,62,68932,blockT,180,2022-02-17_20h01.58.853,orientation adjustment block,2021.2.3,Win32,59.94125757,,,,,,,
,,,,,,,,,,,,,,,,,,,,,,-69.44444444,-16,20,75,-9.444444444,6.555555556,6.555555556,0.225925959,-0.303703728,1,0,0,1.0501,submitButton,28.38888889,-0.168518497,-0.385185268,0,0,0,0,10,10,0,1,16,68932,blockT,180,2022-02-17_20h01.58.853,orientation adjustment block,2021.2.3,Win32,59.94125757,,,,,,,
,,,,,,,,,,,,,,,,,,,,,,-52.77777778,58,20,75,72.22222222,14.22222222,14.22222222,-0.254629611,-0.391666693,1,0,0,1.8324,submitButton,23.66666667,0.136111142,-0.230555577,0,0,0,0,11,11,42,1,58,68932,blockT,180,2022-02-17_20h01.58.853,orientation adjustment block,2021.2.3,Win32,59.94125757,,,,,,,
,,,,,,,,,,,,,,,,,,,,,,-60.55555556,50,20,75,40.44444444,9.555555556,9.555555556,-0.162962941,-0.38240749,1,0,0,1.1671,submitButton,9.555555556,0.225925959,-0.30462971,0,0,0,0,12,12,34,1,50,68932,blockT,180,2022-02-17_20h01.58.853,orientation adjustment block,2021.2.3,Win32,59.94125757,,,,,,,
,,,,,,,,,,,,,,,,,,,,,,-30,-74,20,75,-263,9,9,0.414814854,-0.28703706,1,0,0,2.3656,submitButton,9.277777778,0.247222256,-0.30462971,0,0,0,0,13,13,58,1,74,68932,blockT,180,2022-02-17_20h01.58.853,orientation adjustment block,2021.2.3,Win32,59.94125757,,,,,,,
,,,,,,,,,,,,,,,,,,,,,,-53.88888889,19,20,75,36.11111111,17.11111111,17.11111111,0.218518552,-0.300000024,1,0,0,1.0335,submitButton,11.88888889,0.297222258,-0.40833336,1,0,0,0,14,14,3,1,19,68932,blockT,180,2022-02-17_20h01.58.853,orientation adjustment block,2021.2.3,Win32,59.94125757,continueButton,,,,,,
,,,,,,,,,,,,,,,,,,,,,,-41.11111111,-18,20,75,-19.11111111,1.111111111,1.111111111,0.189814847,-0.311111135,1,0,0,0.7666,submitButton,1.111111111,-0.043518493,-0.323148173,0,0,0,0,15,15,2,1,18,68932,blockT,180,2022-02-17_20h01.58.853,orientation adjustment block,2021.2.3,Win32,59.94125757,,,,,,,
,,,,,,,,,,,,,,,,,,,,,,28.88888889,-24,20,75,-26.11111111,2.111111111,2.111111111,0.371296334,-0.279629709,1,0,0,0.0168,submitButton,1.611111111,0.25555559,-0.225000022,0,0,0,0,16,16,8,1,24,68932,blockT,180,2022-02-17_20h01.58.853,orientation adjustment block,2021.2.3,Win32,59.94125757,,,,,,,
,,,,,,,,,,,,,,,,,,,,,,57.77777778,-73,20,75,-79.22222222,6.222222222,6.222222222,0.427777817,-0.313888913,1,0,0,0.2176,submitButton,3.148148148,-0.149074052,-0.40000014,0,0,0,0,17,17,57,1,73,68932,blockT,180,2022-02-17_20h01.58.853,orientation adjustment block,2021.2.3,Win32,59.94125757,,,,,,,
,,,,,,,,,,,,,,,,,,,,,,30,52,20,75,66,14,14,0.20277781,-0.312963044,1,0,0,0.2667,submitButton,5.861111111,-0.262962944,-0.423148289,0,0,0,0,18,18,36,1,52,68932,blockT,180,2022-02-17_20h01.58.853,orientation adjustment block,2021.2.3,Win32,59.94125757,,,,,,,
,,,,,,,,,,,,,,,,,,,,,,-49.44444444,-33,20,75,-27.44444444,5.555555556,5.555555556,0.189814847,-0.281481505,1,0,0,0.167,submitButton,5.8,-0.048148067,-0.374074157,0,0,0,0,19,19,17,1,33,68932,blockT,180,2022-02-17_20h01.58.853,orientation adjustment block,2021.2.3,Win32,59.94125757,,,,,,,
,,,,,,,,,,,,,,,,,,,,,,-74.44444444,56,20,75,74.55555556,18.55555556,18.55555556,0.262037071,-0.30092595,1,0,0,0.0498,submitButton,7.925925926,0.00370373,-0.302777915,0,0,0,0,20,20,40,1,56,68932,blockT,180,2022-02-17_20h01.58.853,orientation adjustment block,2021.2.3,Win32,59.94125757,,,,,,,
,,,,,,,,,,,,,,,,,,,,,,-32.22222222,38,20,75,43.77777778,5.777777778,5.777777778,0.203703736,-0.277777801,1,0,0,0.0171,submitButton,7.619047619,0.041666694,-0.320370395,0,0,0,0,21,21,22,1,38,68932,blockT,180,2022-02-17_20h01.58.853,orientation adjustment block,2021.2.3,Win32,59.94125757,,,,,,,
,,,,,,,,,,,,,,,,,,,,,,65,34,20,75,226,12,12,0.201851884,-0.309259283,1,0,0,0.6499,submitButton,8.166666667,0.365740778,-0.147222242,0,0,0,0,22,22,18,1,34,68932,blockT,180,2022-02-17_20h01.58.853,orientation adjustment block,2021.2.3,Win32,59.94125757,,,,,,,
,,,,,,,,,,,,,,,,,,,,,,-67.22222222,-71,20,75,-56.22222222,14.77777778,14.77777778,0.225000033,-0.310185266,1,0,0,0.4165,submitButton,8.901234568,0.13425929,-0.220370392,0,0,0,0,23,23,55,1,71,68932,blockT,180,2022-02-17_20h01.58.853,orientation adjustment block,2021.2.3,Win32,59.94125757,,,,,,,
,,,,,,,,,,,,,,,,,,,,,,44.44444444,-28,20,75,-45.55555556,17.55555556,17.55555556,0.432407447,-0.292592616,1,0,0,0.8496,submitButton,9.766666667,0.128703734,-0.317592617,0,0,0,0,24,24,12,1,28,68932,blockT,180,2022-02-17_20h01.58.853,orientation adjustment block,2021.2.3,Win32,59.94125757,,,,,,,
,,,,,,,,,,,,,,,,,,,,,,-71.66666667,-51,20,75,-245.6666667,14.66666667,14.66666667,0.387037075,-0.272222245,1,0,0,0.0498,submitButton,10.21212121,0.292592628,-0.251851931,0,0,0,0,25,25,35,1,51,68932,blockT,180,2022-02-17_20h01.58.853,orientation adjustment block,2021.2.3,Win32,59.94125757,,,,,,,
,,,,,,,,,,,,,,,,,,,,,,-47.77777778,45,20,75,50.22222222,5.222222222,5.222222222,0.20740744,-0.294444468,1,0,0,0.7992,submitButton,9.796296296,0.124074104,-0.373148174,0,0,0,0,26,26,29,1,45,68932,blockT,180,2022-02-17_20h01.58.853,orientation adjustment block,2021.2.3,Win32,59.94125757,,,,,,,
,,,,,,,,,,,,,,,,,,,,,,33.33333333,48,20,75,57.33333333,9.333333333,9.333333333,0.428703743,-0.280555579,1,0,0,0.467,submitButton,9.760683761,0.139814845,-0.314814839,0,0,0,0,27,27,32,1,48,68932,blockT,180,2022-02-17_20h01.58.853,orientation adjustment block,2021.2.3,Win32,59.94125757,,,,,,,
,,,,,,,,,,,,,,,,,,,,,,41.66666667,-60,20,75,-66.33333333,6.333333333,6.333333333,0.345370407,-0.30092595,1,0,0,1.8668,submitButton,9.515873016,0.17314818,-0.36944447,0,0,0,0,28,28,44,1,60,68932,blockT,180,2022-02-17_20h01.58.853,orientation adjustment block,2021.2.3,Win32,59.94125757,,,,,,,
,,,,,,,,,,,,,,,,,,,,,,57.22222222,-23,20,75,-34.77777778,11.77777778,11.77777778,0.405555594,-0.284259396,1,0,0,0.0666,submitButton,9.666666667,0.395370409,-0.390740824,1,0,0,0,29,29,7,1,23,68932,blockT,180,2022-02-17_20h01.58.853,orientation adjustment block,2021.2.3,Win32,59.94125757,continueButton,,,,,,
,,,,,,,,,,,,,,,,,,,,,,63.33333333,-59,20,75,-43.66666667,15.33333333,15.33333333,0.401852003,-0.282407487,1,0,0,0.0171,submitButton,10.02083333,0.131481512,-0.337037062,0,0,0,0,30,30,43,1,59,68932,blockT,180,2022-02-17_20h01.58.853,orientation adjustment block,2021.2.3,Win32,59.94125757,,,,,,,
,,,,,,,,,,,,,,,,,,,,,,-26.66666667,43,20,75,50.33333333,7.333333333,7.333333333,-0.166666645,-0.386111251,1,0,0,1.1132,submitButton,9.862745098,0.21203707,-0.319444469,0,0,0,0,31,31,27,1,43,68932,blockT,180,2022-02-17_20h01.58.853,orientation adjustment block,2021.2.3,Win32,59.94125757,,,,,,,
,,,,,,,,,,,,,,,,,,,,,,65.55555556,29,20,75,207.5555556,1.444444444,1.444444444,0.233333367,-0.320370395,1,0,0,1.9995,submitButton,9.395061728,0.247222256,-0.2527778,0,0,0,0,32,32,13,1,29,68932,blockT,180,2022-02-17_20h01.58.853,orientation adjustment block,2021.2.3,Win32,59.94125757,,,,,,,
,,,,,,,,,,,,,,,,,,,,,,-37.77777778,66,20,75,80.22222222,14.22222222,14.22222222,-0.227777758,-0.402777805,1,0,0,1.0795,submitButton,9.649122807,0.162037068,-0.330555693,0,0,0,0,33,33,50,1,66,68932,blockT,180,2022-02-17_20h01.58.853,orientation adjustment block,2021.2.3,Win32,59.94125757,,,,,,,
,,,,,,,,,,,,,,,,,,,,,,-51.66666667,49,20,75,54.33333333,5.333333333,5.333333333,-0.244444425,-0.425925954,1,0,0,1.2673,submitButton,9.433333333,0.272222257,-0.218518596,0,0,0,0,34,34,33,1,49,68932,blockT,180,2022-02-17_20h01.58.853,orientation adjustment block,2021.2.3,Win32,59.94125757,,,,,,,
,,,,,,,,,,,,,,,,,,,,,,44.44444444,35,20,75,205.4444444,9.555555556,9.555555556,-0.18611109,-0.386111251,1,0,0,3.1337,submitButton,9.439153439,0.117592623,-0.293518599,0,0,0,0,35,35,19,1,35,68932,blockT,180,2022-02-17_20h01.58.853,orientation adjustment block,2021.2.3,Win32,59.94125757,,,,,,,
,,,,,,,,,,,,,,,,,,,,,,-70.55555556,42,20,75,55.44444444,13.44444444,13.44444444,0.21203707,-0.288889025,1,0,0,1.0501,submitButton,9.621212121,0.21203707,-0.243518597,0,0,0,0,36,36,26,1,42,68932,blockT,180,2022-02-17_20h01.58.853,orientation adjustment block,2021.2.3,Win32,59.94125757,,,,,,,
,,,,,,,,,,,,,,,,,,,,,,-68.33333333,41,20,75,40.66666667,0.333333333,0.333333333,-0.238888756,-0.431481509,1,0,0,1.4168,submitButton,9.217391304,0.261111145,-0.375925952,0,0,0,0,37,37,25,1,41,68932,blockT,180,2022-02-17_20h01.58.853,orientation adjustment block,2021.2.3,Win32,59.94125757,,,,,,,
,,,,,,,,,,,,,,,,,,,,,,-71.66666667,69,20,75,76.33333333,7.333333333,7.333333333,-0.17314807,-0.387963046,1,0,0,2.0999,submitButton,9.138888889,0.068518547,-0.307407488,0,0,0,0,38,38,53,1,69,68932,blockT,180,2022-02-17_20h01.58.853,orientation adjustment block,2021.2.3,Win32,59.94125757,,,,,,,
,,,,,,,,,,,,,,,,,,,,,,61.11111111,-65,20,75,-63.88888889,1.111111111,1.111111111,-0.183333199,-0.389814841,1,0,0,1.467,submitButton,8.817777778,0.075000029,-0.310185266,0,0,0,0,39,39,49,1,65,68932,blockT,180,2022-02-17_20h01.58.853,orientation adjustment block,2021.2.3,Win32,59.94125757,,,,,,,
,,,,,,,,,,,,,,,,,,,,,,-23.88888889,-30,20,75,-32.88888889,2.888888889,2.888888889,0.194444477,-0.272222245,1,0,0,0.3661,submitButton,8.58974359,0.087962992,-0.297222246,0,0,0,0,40,40,14,1,30,68932,blockT,180,2022-02-17_20h01.58.853,orientation adjustment block,2021.2.3,Win32,59.94125757,,,,,,,
,,,,,,,,,,,,,,,,,,,,,,75,-25,20,75,-30,5,5,0.383333597,-0.281481505,1,0,0,0.5675,submitButton,8.456790123,-0.126851829,-0.386111251,0,0,0,0,41,41,9,1,25,68932,blockT,180,2022-02-17_20h01.58.853,orientation adjustment block,2021.2.3,Win32,59.94125757,,,,,,,
,,,,,,,,,,,,,,,,,,,,,,-24.44444444,70,20,75,86.55555556,16.55555556,16.55555556,-0.245370351,-0.380555582,1,0,0,1.3664,submitButton,8.746031746,0.037037065,-0.242592728,0,0,0,0,42,42,54,1,70,68932,blockT,180,2022-02-17_20h01.58.853,orientation adjustment block,2021.2.3,Win32,59.94125757,,,,,,,
,,,,,,,,,,,,,,,,,,,,,,-53.33333333,-17,20,75,-21.33333333,4.333333333,4.333333333,0.2416667,-0.290740821,1,0,0,0.5,submitButton,8.593869732,-0.084259179,-0.264814838,0,0,0,0,43,43,1,1,17,68932,blockT,180,2022-02-17_20h01.58.853,orientation adjustment block,2021.2.3,Win32,59.94125757,,,,,,,
,,,,,,,,,,,,,,,,,,,,,,73.33333333,-22,20,75,-22.66666667,0.666666667,0.666666667,0.401852003,-0.309259283,1,0,0,0.5667,submitButton,8.32962963,0.346296446,-0.391666693,1,0,0,0,44,44,6,1,22,68932,blockT,180,2022-02-17_20h01.58.853,orientation adjustment block,2021.2.3,Win32,59.94125757,continueButton,,,,,,
,,,,,,,,,,,,,,,,,,,,,,68.88888889,-47,20,75,21.88888889,68.88888889,68.88888889,-0.294444314,-0.385185268,1,0,0,5.2659,submitButton,10.28315412,0.009259286,-0.255555578,0,0,0,0,45,45,31,1,47,68932,blockT,180,2022-02-17_20h01.58.853,orientation adjustment block,2021.2.3,Win32,59.94125757,,,,,,,
,,,,,,,,,,,,,,,,,,,,,,40.55555556,-37,20,75,-47.44444444,10.44444444,10.44444444,0.357407445,-0.284259396,1,0,0,0.0667,submitButton,10.28819444,0.17314818,-0.312963044,0,0,0,0,46,46,21,1,37,68932,blockT,180,2022-02-17_20h01.58.853,orientation adjustment block,2021.2.3,Win32,59.94125757,,,,,,,
,,,,,,,,,,,,,,,,,,,,,,-42.22222222,-32,20,75,-26.22222222,5.777777778,5.777777778,0.200000032,-0.303703728,1,0,0,0.25,submitButton,10.15151515,0.085185214,-0.321296377,0,0,0,0,47,47,16,1,32,68932,blockT,180,2022-02-17_20h01.58.853,orientation adjustment block,2021.2.3,Win32,59.94125757,,,,,,,
,,,,,,,,,,,,,,,,,,,,,,-21.66666667,63,20,75,70.33333333,7.333333333,7.333333333,0.223148181,-0.297222246,1,0,0,0.015,submitButton,10.06862745,-0.187962886,-0.38333336,0,0,0,0,48,48,47,1,63,68932,blockT,180,2022-02-17_20h01.58.853,orientation adjustment block,2021.2.3,Win32,59.94125757,,,,,,,
,,,,,,,,,,,,,,,,,,,,,,58.33333333,-72,20,75,-67.66666667,4.333333333,4.333333333,0.395370409,-0.279629709,1,0,0,0.0332,submitButton,9.904761905,-0.188888868,-0.410185269,0,0,0,0,49,49,56,1,72,68932,blockT,180,2022-02-17_20h01.58.853,orientation adjustment block,2021.2.3,Win32,59.94125757,,,,,,,
,,,,,,,,,,,,,,,,,,,,,,40,-67,20,75,-72,5,5,0.366666704,-0.283333357,1,0,0,0.0833,submitButton,9.768518519,0.089814844,-0.38333336,0,0,0,0,50,50,51,1,67,68932,blockT,180,2022-02-17_20h01.58.853,orientation adjustment block,2021.2.3,Win32,59.94125757,,,,,,,
,,,,,,,,,,,,,,,,,,,,,,-51.11111111,-64,20,75,-247.1111111,3.111111111,3.111111111,0.387037075,-0.284259396,1,0,0,0.0161,submitButton,9.588588589,0.347222259,-0.306481506,0,0,0,0,51,51,48,1,64,68932,blockT,180,2022-02-17_20h01.58.853,orientation adjustment block,2021.2.3,Win32,59.94125757,,,,,,,
,,,,,,,,,,,,,,,,,,,,,,39.44444444,46,20,75,225.4444444,0.555555556,0.555555556,0.190740773,-0.313888913,1,0,0,0.6661,submitButton,9.350877193,0.175000032,-0.392592619,0,0,0,0,52,52,30,1,46,68932,blockT,180,2022-02-17_20h01.58.853,orientation adjustment block,2021.2.3,Win32,59.94125757,,,,,,,
,,,,,,,,,,,,,,,,,,,,,,52.22222222,-20,20,75,-21.77777778,1.777777778,1.777777778,0.409259298,-0.275925949,1,0,0,0.1832,submitButton,9.156695157,0.355555819,-0.126851927,0,0,0,0,53,53,4,1,20,68932,blockT,180,2022-02-17_20h01.58.853,orientation adjustment block,2021.2.3,Win32,59.94125757,,,,,,,
,,,,,,,,,,,,,,,,,,,,,,56.11111111,68,20,75,240.1111111,7.888888889,7.888888889,0.2166667,-0.320370395,1,0,0,1.2999,submitButton,9.125,0.001851935,-0.206481503,0,0,0,0,54,54,52,1,68,68932,blockT,180,2022-02-17_20h01.58.853,orientation adjustment block,2021.2.3,Win32,59.94125757,,,,,,,
,,,,,,,,,,,,,,,,,,,,,,50.55555556,-39,20,75,-39.44444444,0.444444444,0.444444444,-0.139814736,-0.404629713,1,0,0,1.6002,submitButton,8.913279133,0.358333371,-0.20555569,0,0,0,0,55,55,23,1,39,68932,blockT,180,2022-02-17_20h01.58.853,orientation adjustment block,2021.2.3,Win32,59.94125757,,,,,,,
,,,,,,,,,,,,,,,,,,,,,,-31.11111111,40,20,75,46.88888889,6.888888889,6.888888889,-0.154629608,-0.414814842,1,0,0,1.2001,submitButton,8.865079365,-0.154629608,-0.414814842,0,0,0,0,56,56,24,1,40,68932,blockT,180,2022-02-17_20h01.58.853,orientation adjustment block,2021.2.3,Win32,59.94125757,,,,,,,
,,,,,,,,,,,,,,,,,,,,,,-55.55555556,44,20,75,49.44444444,5.444444444,5.444444444,0.20740744,-0.287963043,1,0,0,1.431,submitButton,8.785529716,0.184259291,-0.274074154,0,0,0,0,57,57,28,1,44,68932,blockT,180,2022-02-17_20h01.58.853,orientation adjustment block,2021.2.3,Win32,59.94125757,,,,,,,
,,,,,,,,,,,,,,,,,,,,,,-66.11111111,26,20,75,18.88888889,7.111111111,7.111111111,0.181481513,-0.289814838,1,0,0,1.0503,submitButton,8.747474747,0.209259292,-0.294444468,0,0,0,0,58,58,10,1,26,68932,blockT,180,2022-02-17_20h01.58.853,orientation adjustment block,2021.2.3,Win32,59.94125757,,,,,,,
,,,,,,,,,,,,,,,,,,,,,,41.66666667,57,20,75,204.6666667,32.33333333,32.33333333,0.25555559,-0.30092595,1,0,0,0.3997,submitButton,9.271604938,0.32777804,-0.419444472,1,0,0,0,59,59,41,1,57,68932,blockT,180,2022-02-17_20h01.58.853,orientation adjustment block,2021.2.3,Win32,59.94125757,continueButton,,,,,,
,,,,,,,,,,,,,,,,,,,,,,-60,53,20,75,61,8,8,-0.136111089,-0.39537051,1,0,0,1.2834,submitButton,9.243961353,0.248148182,-0.299074154,0,0,0,1,0,60,37,1,53,68932,blockT,180,2022-02-17_20h01.58.853,orientation adjustment block,2021.2.3,Win32,59.94125757,,,,,,,
,,,,,,,,,,,,,,,,,,,,,,58.33333333,-68,20,75,-69.66666667,1.666666667,1.666666667,0.428703743,-0.296296377,1,0,0,0.8665,submitButton,9.082742317,0.275000035,-0.233333468,0,0,0,1,1,61,52,1,68,68932,blockT,180,2022-02-17_20h01.58.853,orientation adjustment block,2021.2.3,Win32,59.94125757,,,,,,,
,,,,,,,,,,,,,,,,,,,,,,-64.44444444,20,20,75,34.55555556,14.55555556,14.55555556,-0.149999978,-0.407407491,1,0,0,1.3657,submitButton,9.196759259,0.287962998,-0.270370506,0,0,0,1,2,62,4,1,20,68932,blockT,180,2022-02-17_20h01.58.853,orientation adjustment block,2021.2.3,Win32,59.94125757,,,,,,,
,,,,,,,,,,,,,,,,,,,,,,-73.33333333,64,20,75,75.66666667,11.66666667,11.66666667,-0.196296276,-0.404629713,1,0,0,1.5335,submitButton,9.247165533,0.421296335,-0.256481617,0,0,0,1,3,63,48,1,64,68932,blockT,180,2022-02-17_20h01.58.853,orientation adjustment block,2021.2.3,Win32,59.94125757,,,,,,,
,,,,,,,,,,,,,,,,,,,,,,-61.66666667,-63,20,75,-55.66666667,7.333333333,7.333333333,-0.150925847,-0.384259286,1,0,0,0.9499,submitButton,9.208888889,0.299074109,-0.215740819,0,0,0,1,4,64,47,1,63,68932,blockT,180,2022-02-17_20h01.58.853,orientation adjustment block,2021.2.3,Win32,59.94125757,,,,,,,
,,,,,,,,,,,,,,,,,,,,,,-57.77777778,-16,20,75,-14.77777778,1.222222222,1.222222222,0.203703736,-0.308333357,1,0,0,0.4993,submitButton,9.052287582,0.190740773,-0.061111128,0,0,0,1,5,65,0,1,16,68932,blockT,180,2022-02-17_20h01.58.853,orientation adjustment block,2021.2.3,Win32,59.94125757,,,,,,,
,,,,,,,,,,,,,,,,,,,,,,-22.22222222,25,20,75,-7.222222222,32.22222222,32.22222222,0.237962997,-0.292592616,1,0,0,2.1334,submitButton,9.497863248,0.288888924,-0.327777802,0,0,0,1,6,66,9,1,25,68932,blockT,180,2022-02-17_20h01.58.853,orientation adjustment block,2021.2.3,Win32,59.94125757,,,,,,,
,,,,,,,,,,,,,,,,,,,,,,-73.33333333,-28,20,75,-21.33333333,6.666666667,6.666666667,0.213888922,-0.307407488,1,0,0,0.583,submitButton,9.444444444,0.279629664,-0.219444579,0,0,0,1,7,67,12,1,28,68932,blockT,180,2022-02-17_20h01.58.853,orientation adjustment block,2021.2.3,Win32,59.94125757,,,,,,,
,,,,,,,,,,,,,,,,,,,,,,34.44444444,17,20,75,-20.55555556,37.55555556,37.55555556,0.425000265,-0.311111135,1,0,0,0.616,submitButton,9.965020576,0.050000028,-0.349074156,0,0,0,1,8,68,1,1,17,68932,blockT,180,2022-02-17_20h01.58.853,orientation adjustment block,2021.2.3,Win32,59.94125757,,,,,,,
,,,,,,,,,,,,,,,,,,,,,,-66.11111111,72,20,75,79.88888889,7.888888889,7.888888889,-0.281481463,-0.38240749,1,0,0,3.6824,submitButton,9.927272727,-0.281481463,-0.38240749,0,0,0,1,9,69,56,1,72,68932,blockT,180,2022-02-17_20h01.58.853,orientation adjustment block,2021.2.3,Win32,59.94125757,,,,,,,
,,,,,,,,,,,,,,,,,,,,,,-41.66666667,-47,20,75,-26.66666667,20.33333333,20.33333333,0.21203707,-0.307407488,1,0,0,1.0666,submitButton,10.11309524,-0.172222201,-0.401851935,0,0,0,1,10,70,31,1,47,68932,blockT,180,2022-02-17_20h01.58.853,orientation adjustment block,2021.2.3,Win32,59.94125757,,,,,,,
,,,,,,,,,,,,,,,,,,,,,,-28.88888889,71,20,75,66.11111111,4.888888889,4.888888889,0.389814853,-0.290740821,1,0,0,1.1328,submitButton,10.0214425,0.169444476,-0.286111135,0,0,0,1,11,71,55,1,71,68932,blockT,180,2022-02-17_20h01.58.853,orientation adjustment block,2021.2.3,Win32,59.94125757,,,,,,,
,,,,,,,,,,,,,,,,,,,,,,61.66666667,-60,20,75,-48.33333333,11.66666667,11.66666667,0.430555595,-0.303703728,1,0,0,0.6498,submitButton,10.04980843,0.189814847,-0.069444461,0,0,0,1,12,72,44,1,60,68932,blockT,180,2022-02-17_20h01.58.853,orientation adjustment block,2021.2.3,Win32,59.94125757,,,,,,,
,,,,,,,,,,,,,,,,,,,,,,46.11111111,30,20,75,34.11111111,4.111111111,4.111111111,0.377777816,-0.273148171,1,0,0,0.5169,submitButton,9.949152542,0.362037074,-0.297222246,0,0,0,1,13,73,14,1,30,68932,blockT,180,2022-02-17_20h01.58.853,orientation adjustment block,2021.2.3,Win32,59.94125757,,,,,,,
,,,,,,,,,,,,,,,,,,,,,,25.55555556,36,20,75,25.55555556,10.44444444,10.44444444,0.37685189,-0.292592616,1,0,0,0.2169,submitButton,9.957407407,0.337037187,-0.385185268,1,0,0,1,14,74,20,1,36,68932,blockT,180,2022-02-17_20h01.58.853,orientation adjustment block,2021.2.3,Win32,59.94125757,continueButton,,,,,,
,,,,,,,,,,,,,,,,,,,,,,22.77777778,-66,20,75,-68.22222222,2.222222222,2.222222222,0.407407446,-0.299074154,1,0,0,0.4662,submitButton,9.830601093,-0.001851825,0.073148079,0,0,0,1,15,75,50,1,66,68932,blockT,180,2022-02-17_20h01.58.853,orientation adjustment block,2021.2.3,Win32,59.94125757,,,,,,,
,,,,,,,,,,,,,,,,,,,,,,-66.11111111,-73,20,75,-248.1111111,4.888888889,4.888888889,0.194444477,-0.307407488,1,0,0,3.2496,submitButton,9.750896057,0.046296381,-0.212963041,0,0,0,1,16,76,57,1,73,68932,blockT,180,2022-02-17_20h01.58.853,orientation adjustment block,2021.2.3,Win32,59.94125757,,,,,,,
,,,,,,,,,,,,,,,,,,,,,,66.11111111,40,20,75,37.11111111,2.888888889,2.888888889,0.420370522,-0.282407487,1,0,0,0.1834,submitButton,9.641975309,-0.076851715,-0.26666669,0,0,0,1,17,77,24,1,40,68932,blockT,180,2022-02-17_20h01.58.853,orientation adjustment block,2021.2.3,Win32,59.94125757,,,,,,,
,,,,,,,,,,,,,,,,,,,,,,40.55555556,-69,20,75,129.5555556,18.55555556,18.55555556,0.231481515,-0.289814838,1,0,0,2.4165,submitButton,9.78125,-0.077777754,-0.306481506,0,0,0,1,18,78,53,1,69,68932,blockT,180,2022-02-17_20h01.58.853,orientation adjustment block,2021.2.3,Win32,59.94125757,,,,,,,
,,,,,,,,,,,,,,,,,,,,,,55,-41,20,75,-35,6,6,0.393518557,-0.281481505,1,0,0,0.8501,submitButton,9.723076923,0.025925953,-0.320370395,0,0,0,1,19,79,25,1,41,68932,blockT,180,2022-02-17_20h01.58.853,orientation adjustment block,2021.2.3,Win32,59.94125757,,,,,,,
,,,,,,,,,,,,,,,,,,,,,,72.22222222,45,20,75,223.2222222,1.777777778,1.777777778,0.257407442,-0.30462971,1,0,0,1.5661,submitButton,9.602693603,0.117592623,-0.261111247,0,0,0,1,20,80,29,1,45,68932,blockT,180,2022-02-17_20h01.58.853,orientation adjustment block,2021.2.3,Win32,59.94125757,,,,,,,
,,,,,,,,,,,,,,,,,,,,,,-49.44444444,-38,20,75,-23.44444444,14.55555556,14.55555556,0.237962997,-0.311111135,1,0,0,0.8172,submitButton,9.676616915,0.205555588,-0.041666683,0,0,0,1,21,81,22,1,38,68932,blockT,180,2022-02-17_20h01.58.853,orientation adjustment block,2021.2.3,Win32,59.94125757,,,,,,,
,,,,,,,,,,,,,,,,,,,,,,48.33333333,21,20,75,208.3333333,7.333333333,7.333333333,0.224074107,-0.264814838,1,0,0,2.1844,submitButton,9.642156863,-0.219444424,-0.381481621,0,0,0,1,22,82,5,1,21,68932,blockT,180,2022-02-17_20h01.58.853,orientation adjustment block,2021.2.3,Win32,59.94125757,,,,,,,
,,,,,,,,,,,,,,,,,,,,,,41.11111111,-46,20,75,-39.88888889,6.111111111,6.111111111,0.370370408,-0.274074154,1,0,0,0.4998,submitButton,9.590982287,0.033333361,-0.3435186,0,0,0,1,23,83,30,1,46,68932,blockT,180,2022-02-17_20h01.58.853,orientation adjustment block,2021.2.3,Win32,59.94125757,,,,,,,
,,,,,,,,,,,,,,,,,,,,,,-27.22222222,42,20,75,51.77777778,9.777777778,9.777777778,0.240740774,-0.297222246,1,0,0,0.4664,submitButton,9.593650794,-0.141666531,-0.374074157,0,0,0,1,24,84,26,1,42,68932,blockT,180,2022-02-17_20h01.58.853,orientation adjustment block,2021.2.3,Win32,59.94125757,,,,,,,
,,,,,,,,,,,,,,,,,,,,,,72.77777778,-24,20,75,-33.22222222,9.222222222,9.222222222,0.412037076,-0.333333358,1,0,0,0.6834,submitButton,9.588419405,-0.256481463,-0.344444583,0,0,0,1,25,85,8,1,24,68932,blockT,180,2022-02-17_20h01.58.853,orientation adjustment block,2021.2.3,Win32,59.94125757,,,,,,,
,,,,,,,,,,,,,,,,,,,,,,-30.55555556,54,20,75,72.44444444,18.44444444,18.44444444,-0.294444314,-0.355555581,1,0,0,1.5836,submitButton,9.711419753,-0.27777776,-0.407407491,0,0,0,1,26,86,38,1,54,68932,blockT,180,2022-02-17_20h01.58.853,orientation adjustment block,2021.2.3,Win32,59.94125757,,,,,,,
,,,,,,,,,,,,,,,,,,,,,,-32.22222222,-49,20,75,-248.2222222,19.22222222,19.22222222,-0.193518498,-0.407407491,1,0,0,3.4339,submitButton,9.841704718,0.054629714,-0.288889025,0,0,0,1,27,87,33,1,49,68932,blockT,180,2022-02-17_20h01.58.853,orientation adjustment block,2021.2.3,Win32,59.94125757,,,,,,,
,,,,,,,,,,,,,,,,,,,,,,55,-48,20,75,-50,2,2,-0.187962886,-0.374074157,1,0,0,1.7004,submitButton,9.735735736,0.15925929,-0.308333357,0,0,0,1,28,88,32,1,48,68932,blockT,180,2022-02-17_20h01.58.853,orientation adjustment block,2021.2.3,Win32,59.94125757,,,,,,,
,,,,,,,,,,,,,,,,,,,,,,43.88888889,37,20,75,228.8888889,11.88888889,11.88888889,-0.152777756,-0.387037063,1,0,0,2.6336,submitButton,9.764444444,0.232407441,-0.413889029,1,0,0,1,29,89,21,1,37,68932,blockT,180,2022-02-17_20h01.58.853,orientation adjustment block,2021.2.3,Win32,59.94125757,continueButton,,,,,,
,,,,,,,,,,,,,,,,,,,,,,23.33333333,51,20,75,52.33333333,1.333333333,1.333333333,0.397222487,-0.312963044,1,0,0,0.5667,submitButton,9.653508772,-0.012962937,-0.312037174,0,0,0,1,30,90,35,1,51,68932,blockT,180,2022-02-17_20h01.58.853,orientation adjustment block,2021.2.3,Win32,59.94125757,,,,,,,
,,,,,,,,,,,,,,,,,,,,,,55.55555556,39,20,75,232.5555556,13.55555556,13.55555556,0.204629662,-0.297222246,1,0,0,1.9502,submitButton,9.704184704,0.210185218,-0.262963042,0,0,0,1,31,91,23,1,39,68932,blockT,180,2022-02-17_20h01.58.853,orientation adjustment block,2021.2.3,Win32,59.94125757,,,,,,,
,,,,,,,,,,,,,,,,,,,,,,-56.11111111,31,20,75,42.88888889,11.88888889,11.88888889,-0.199999979,-0.427777918,1,0,0,1.3494,submitButton,9.732193732,-0.162036959,-0.400925953,0,0,0,1,32,92,15,1,31,68932,blockT,180,2022-02-17_20h01.58.853,orientation adjustment block,2021.2.3,Win32,59.94125757,,,,,,,
,,,,,,,,,,,,,,,,,,,,,,-68.88888889,57,20,75,67.11111111,10.11111111,10.11111111,-0.200925905,-0.39537051,1,0,0,1.4824,submitButton,9.736990155,0.114814845,-0.345370396,0,0,0,1,33,93,41,1,57,68932,blockT,180,2022-02-17_20h01.58.853,orientation adjustment block,2021.2.3,Win32,59.94125757,,,,,,,
,,,,,,,,,,,,,,,,,,,,,,-63.88888889,-56,20,75,-233.8888889,2.111111111,2.111111111,0.378703855,-0.290740821,1,0,0,0.0834,submitButton,9.641666667,-0.105555532,-0.275925949,0,0,0,1,34,94,40,1,56,68932,blockT,180,2022-02-17_20h01.58.853,orientation adjustment block,2021.2.3,Win32,59.94125757,,,,,,,
,,,,,,,,,,,,,,,,,,,,,,-52.22222222,-18,20,75,-22.22222222,4.222222222,4.222222222,0.225000033,-0.323148173,1,0,0,0.6999,submitButton,9.574759945,0.167592624,-0.145370446,0,0,0,1,35,95,2,1,18,68932,blockT,180,2022-02-17_20h01.58.853,orientation adjustment block,2021.2.3,Win32,59.94125757,,,,,,,
,,,,,,,,,,,,,,,,,,,,,,44.44444444,-43,20,75,-36.55555556,6.444444444,6.444444444,0.390740779,-0.295370394,1,0,0,0.2169,submitButton,9.536585366,0.087962992,-0.302777915,0,0,0,1,36,96,27,1,43,68932,blockT,180,2022-02-17_20h01.58.853,orientation adjustment block,2021.2.3,Win32,59.94125757,,,,,,,
,,,,,,,,,,,,,,,,,,,,,,44.44444444,75,20,75,256.4444444,1.444444444,1.444444444,-0.162036959,-0.414814842,1,0,0,2.7497,submitButton,9.439089692,0.224074107,-0.250000022,0,0,0,1,37,97,59,1,75,68932,blockT,180,2022-02-17_20h01.58.853,orientation adjustment block,2021.2.3,Win32,59.94125757,,,,,,,
,,,,,,,,,,,,,,,,,,,,,,25.55555556,-33,20,75,-30.44444444,2.555555556,2.555555556,0.350000037,-0.288889025,1,0,0,0.1671,submitButton,9.357142857,0.00833336,-0.045370387,0,0,0,1,38,98,17,1,33,68932,blockT,180,2022-02-17_20h01.58.853,orientation adjustment block,2021.2.3,Win32,59.94125757,,,,,,,
,,,,,,,,,,,,,,,,,,,,,,-56.66666667,50,20,75,56.33333333,6.333333333,6.333333333,0.210185218,-0.276851932,1,0,0,1.0664,submitButton,9.321568627,0.182407439,-0.239814837,0,0,0,1,39,99,34,1,50,68932,blockT,180,2022-02-17_20h01.58.853,orientation adjustment block,2021.2.3,Win32,59.94125757,,,,,,,
,,,,,,,,,,,,,,,,,,,,,,47.22222222,-62,20,75,-65.77777778,3.777777778,3.777777778,0.377777816,-0.299074154,1,0,0,1.4669,submitButton,9.257105943,0.098148178,-0.295370394,0,0,0,1,40,100,46,1,62,68932,blockT,180,2022-02-17_20h01.58.853,orientation adjustment block,2021.2.3,Win32,59.94125757,,,,,,,
,,,,,,,,,,,,,,,,,,,,,,52.77777778,61,20,75,248.7777778,7.777777778,7.777777778,0.200000032,-0.28703706,1,0,0,1.9492,submitButton,9.240102171,0.240740774,-0.286111135,0,0,0,1,41,101,45,1,61,68932,blockT,180,2022-02-17_20h01.58.853,orientation adjustment block,2021.2.3,Win32,59.94125757,,,,,,,
,,,,,,,,,,,,,,,,,,,,,,71.11111111,-35,20,75,-44.88888889,9.888888889,9.888888889,0.392592744,-0.277777801,1,0,0,0.7835,submitButton,9.247474747,-0.117592513,-0.377777804,0,0,0,1,42,102,19,1,35,68932,blockT,180,2022-02-17_20h01.58.853,orientation adjustment block,2021.2.3,Win32,59.94125757,,,,,,,
,,,,,,,,,,,,,,,,,,,,,,-21.11111111,27,20,75,42.88888889,15.88888889,15.88888889,0.193518551,-0.313888913,1,0,0,0.3165,submitButton,9.322097378,0.071296325,-0.348148173,0,0,0,1,43,103,11,1,27,68932,blockT,180,2022-02-17_20h01.58.853,orientation adjustment block,2021.2.3,Win32,59.94125757,,,,,,,
,,,,,,,,,,,,,,,,,,,,,,-63.33333333,34,20,75,139.6666667,74.33333333,74.33333333,0.234259293,-0.312037174,1,0,0,0.1826,submitButton,10.04444444,0.362963,-0.405555583,1,0,0,1,44,104,18,1,34,68932,blockT,180,2022-02-17_20h01.58.853,orientation adjustment block,2021.2.3,Win32,59.94125757,continueButton,,,,,,
,,,,,,,,,,,,,,,,,,,,,,-48.88888889,52,20,75,-133.8888889,5.888888889,5.888888889,0.398148187,-0.328703728,1,0,0,1.9996,submitButton,9.998778999,0.076851881,-0.112963038,0,0,0,1,45,105,36,1,52,68932,blockT,180,2022-02-17_20h01.58.853,orientation adjustment block,2021.2.3,Win32,59.94125757,,,,,,,
,,,,,,,,,,,,,,,,,,,,,,74.44444444,-74,20,75,123.4444444,17.44444444,17.44444444,0.200000032,-0.338888914,1,0,0,1.9162,submitButton,10.07971014,0.062037065,-0.21388891,0,0,0,1,46,106,58,1,74,68932,blockT,180,2022-02-17_20h01.58.853,orientation adjustment block,2021.2.3,Win32,59.94125757,,,,,,,
,,,,,,,,,,,,,,,,,,,,,,-33.88888889,-59,20,75,-49.88888889,9.111111111,9.111111111,-0.177777757,-0.412963047,1,0,0,1.5998,submitButton,10.0692951,0.252777812,-0.238888911,0,0,0,1,47,107,43,1,59,68932,blockT,180,2022-02-17_20h01.58.853,orientation adjustment block,2021.2.3,Win32,59.94125757,,,,,,,
,,,,,,,,,,,,,,,,,,,,,,-47.22222222,-58,20,75,-49.22222222,8.777777778,8.777777778,0.237037071,-0.29166669,1,0,0,0.4334,submitButton,10.05555556,0.110185215,-0.279629709,0,0,0,1,48,108,42,1,58,68932,blockT,180,2022-02-17_20h01.58.853,orientation adjustment block,2021.2.3,Win32,59.94125757,,,,,,,
,,,,,,,,,,,,,,,,,,,,,,-70.55555556,22,20,75,27.44444444,5.444444444,5.444444444,-0.276851834,-0.410185269,1,0,0,1.3499,submitButton,10.00701754,-0.149074052,-0.326851933,0,0,0,1,49,109,6,1,22,68932,blockT,180,2022-02-17_20h01.58.853,orientation adjustment block,2021.2.3,Win32,59.94125757,,,,,,,
,,,,,,,,,,,,,,,,,,,,,,-46.66666667,65,20,75,75.33333333,10.33333333,10.33333333,-0.198148128,-0.410185269,1,0,0,0.9166,submitButton,10.01041667,0.194444477,-0.311111135,0,0,0,1,50,110,49,1,65,68932,blockT,180,2022-02-17_20h01.58.853,orientation adjustment block,2021.2.3,Win32,59.94125757,,,,,,,
,,,,,,,,,,,,,,,,,,,,,,-27.77777778,55,20,75,50.22222222,4.777777778,4.777777778,0.183333365,-0.308333357,1,0,0,1.2499,submitButton,9.956471936,0.197222255,-0.140740816,0,0,0,1,51,111,39,1,55,68932,blockT,180,2022-02-17_20h01.58.853,orientation adjustment block,2021.2.3,Win32,59.94125757,,,,,,,
,,,,,,,,,,,,,,,,,,,,,,57.77777778,-23,20,75,-28.22222222,5.222222222,5.222222222,0.386111149,-0.319444469,1,0,0,1.6833,submitButton,9.908163265,-0.188888868,-0.391666693,0,0,0,1,52,112,7,1,23,68932,blockT,180,2022-02-17_20h01.58.853,orientation adjustment block,2021.2.3,Win32,59.94125757,,,,,,,
,,,,,,,,,,,,,,,,,,,,,,59.44444444,-19,20,75,-27.55555556,8.555555556,8.555555556,0.365740778,-0.275000136,1,0,0,0.233,submitButton,9.894500561,-0.005555529,-0.183333354,0,0,0,1,53,113,3,1,19,68932,blockT,180,2022-02-17_20h01.58.853,orientation adjustment block,2021.2.3,Win32,59.94125757,,,,,,,
,,,,,,,,,,,,,,,,,,,,,,-26.66666667,67,20,75,72.33333333,5.333333333,5.333333333,-0.162962941,-0.418518602,1,0,0,0.65,submitButton,9.848888889,0.02037051,-0.30462971,0,0,0,1,54,114,51,1,67,68932,blockT,180,2022-02-17_20h01.58.853,orientation adjustment block,2021.2.3,Win32,59.94125757,,,,,,,
,,,,,,,,,,,,,,,,,,,,,,63.33333333,-44,20,75,-48.66666667,4.666666667,4.666666667,0.379629667,-0.294444468,1,0,0,1.1002,submitButton,9.797579758,0.275925961,-0.299074154,0,0,0,1,55,115,28,1,44,68932,blockT,180,2022-02-17_20h01.58.853,orientation adjustment block,2021.2.3,Win32,59.94125757,,,,,,,
,,,,,,,,,,,,,,,,,,,,,,-58.88888889,29,20,75,39.11111111,10.11111111,10.11111111,-0.179629608,-0.385185268,1,0,0,1.2337,submitButton,9.800653595,0.185185217,-0.228703838,0,0,0,1,56,116,13,1,29,68932,blockT,180,2022-02-17_20h01.58.853,orientation adjustment block,2021.2.3,Win32,59.94125757,,,,,,,
,,,,,,,,,,,,,,,,,,,,,,-48.33333333,70,20,75,78.66666667,8.666666667,8.666666667,-0.192592515,-0.380555582,1,0,0,1.5321,submitButton,9.789644013,0.146296327,-0.290740821,0,0,0,1,57,117,54,1,70,68932,blockT,180,2022-02-17_20h01.58.853,orientation adjustment block,2021.2.3,Win32,59.94125757,,,,,,,
,,,,,,,,,,,,,,,,,,,,,,47.22222222,-32,20,75,-45.77777778,13.77777778,13.77777778,-0.15185183,-0.388888915,1,0,0,1.2841,submitButton,9.827991453,0.32870374,-0.26666669,0,0,0,1,58,118,16,1,32,68932,blockT,180,2022-02-17_20h01.58.853,orientation adjustment block,2021.2.3,Win32,59.94125757,,,,,,,
,,,,,,,,,,,,,,,,,,,,,,72.77777778,26,20,75,218.7777778,12.77777778,12.77777778,0.208333366,-0.306481506,1,0,0,1.6674,submitButton,9.856084656,0.311111147,-0.413889029,1,0,0,1,59,119,10,1,26,68932,blockT,180,2022-02-17_20h01.58.853,orientation adjustment block,2021.2.3,Win32,59.94125757,continueButton,,,,,,
,,,,,,,,,,,,,,,,,,,,,,34.44444444,-36,20,75,-50.55555556,14.55555556,14.55555556,0.411111376,-0.270370506,1,0,0,0.8662,submitButton,9.900419287,0.180555587,-0.195370391,0,0,0,2,0,120,20,1,36,68932,blockT,180,2022-02-17_20h01.58.853,orientation adjustment block,2021.2.3,Win32,59.94125757,,,,,,,
,,,,,,,,,,,,,,,,,,,,,,-36.66666667,-26,20,75,-30.66666667,4.666666667,4.666666667,0.235185219,-0.30555558,1,0,0,0.5166,submitButton,9.851505711,0.197222255,-0.320370395,0,0,0,2,1,121,10,1,26,68932,blockT,180,2022-02-17_20h01.58.853,orientation adjustment block,2021.2.3,Win32,59.94125757,,,,,,,
,,,,,,,,,,,,,,,,,,,,,,41.11111111,48,20,75,57.11111111,9.111111111,9.111111111,0.394444483,-0.28703706,1,0,0,0.8334,submitButton,9.844650206,-0.192592515,-0.391666693,0,0,0,2,2,122,32,1,48,68932,blockT,180,2022-02-17_20h01.58.853,orientation adjustment block,2021.2.3,Win32,59.94125757,,,,,,,
,,,,,,,,,,,,,,,,,,,,,,21.66666667,33,20,75,34.66666667,1.666666667,1.666666667,0.434259412,-0.300000024,1,0,0,0.3831,submitButton,9.769622834,-0.113888753,-0.370370396,0,0,0,2,3,123,17,1,33,68932,blockT,180,2022-02-17_20h01.58.853,orientation adjustment block,2021.2.3,Win32,59.94125757,,,,,,,
,,,,,,,,,,,,,,,,,,,,,,45,-21,20,75,167,8,8,0.227777811,-0.309259283,1,0,0,2.3832,submitButton,9.753535354,-0.257407332,-0.390740824,0,0,0,2,4,124,5,1,21,68932,blockT,180,2022-02-17_20h01.58.853,orientation adjustment block,2021.2.3,Win32,59.94125757,,,,,,,
,,,,,,,,,,,,,,,,,,,,,,-25,18,20,75,25,7,7,-0.128703625,-0.40833336,1,0,0,1.1001,submitButton,9.728728729,-0.038888864,-0.393518602,0,0,0,2,5,125,2,1,18,68932,blockT,180,2022-02-17_20h01.58.853,orientation adjustment block,2021.2.3,Win32,59.94125757,,,,,,,
,,,,,,,,,,,,,,,,,,,,,,22.77777778,75,20,75,118.7777778,43.77777778,43.77777778,0.389814853,-0.281481505,1,0,0,0.4166,submitButton,10.0327381,-0.049999975,-0.315740822,0,0,0,2,6,126,59,1,75,68932,blockT,180,2022-02-17_20h01.58.853,orientation adjustment block,2021.2.3,Win32,59.94125757,,,,,,,
,,,,,,,,,,,,,,,,,,,,,,-24.44444444,-42,20,75,-41.44444444,0.555555556,0.555555556,-0.175925848,-0.39629638,1,0,0,0.8157,submitButton,9.948869223,0.160185216,-0.333333358,0,0,0,2,7,127,26,1,42,68932,blockT,180,2022-02-17_20h01.58.853,orientation adjustment block,2021.2.3,Win32,59.94125757,,,,,,,
,,,,,,,,,,,,,,,,,,,,,,-37.22222222,58,20,75,57.77777778,0.222222222,0.222222222,0.236111145,-0.263888912,1,0,0,0.617,submitButton,9.863547758,-0.191666646,-0.402777805,0,0,0,2,8,128,42,1,58,68932,blockT,180,2022-02-17_20h01.58.853,orientation adjustment block,2021.2.3,Win32,59.94125757,,,,,,,
,,,,,,,,,,,,,,,,,,,,,,53.33333333,67,20,75,59.33333333,7.666666667,7.666666667,0.364814965,-0.299074154,1,0,0,0.3,submitButton,9.844444444,-0.348148132,-0.375000026,0,0,0,2,9,129,51,1,67,68932,blockT,180,2022-02-17_20h01.58.853,orientation adjustment block,2021.2.3,Win32,59.94125757,,,,,,,
,,,,,,,,,,,,,,,,,,,,,,-33.33333333,-47,20,75,-38.33333333,8.666666667,8.666666667,-0.17314807,-0.400925953,1,0,0,1.1676,submitButton,9.834291188,-0.17314807,-0.400925953,0,0,0,2,10,130,31,1,47,68932,blockT,180,2022-02-17_20h01.58.853,orientation adjustment block,2021.2.3,Win32,59.94125757,,,,,,,
,,,,,,,,,,,,,,,,,,,,,,-47.77777778,20,20,75,28.22222222,8.222222222,8.222222222,0.20740744,-0.318518599,1,0,0,0.4833,submitButton,9.820512821,-0.125925847,-0.411111138,0,0,0,2,11,131,4,1,20,68932,blockT,180,2022-02-17_20h01.58.853,orientation adjustment block,2021.2.3,Win32,59.94125757,,,,,,,
,,,,,,,,,,,,,,,,,,,,,,-46.66666667,63,20,75,139.3333333,76.33333333,76.33333333,0.212962996,-0.323148173,1,0,0,0.0668,submitButton,10.38418079,0.012963046,-0.218518596,0,0,0,2,12,132,47,1,63,68932,blockT,180,2022-02-17_20h01.58.853,orientation adjustment block,2021.2.3,Win32,59.94125757,,,,,,,
,,,,,,,,,,,,,,,,,,,,,,53.88888889,40,20,75,222.8888889,2.888888889,2.888888889,-0.198148128,-0.410185269,1,0,0,2.85,submitButton,10.32119514,0.139814845,-0.22314817,0,0,0,2,13,133,24,1,40,68932,blockT,180,2022-02-17_20h01.58.853,orientation adjustment block,2021.2.3,Win32,59.94125757,,,,,,,
,,,,,,,,,,,,,,,,,,,,,,44.44444444,51,20,75,223.4444444,7.555555556,7.555555556,-0.166666645,-0.419444472,1,0,0,2.4163,submitButton,10.29814815,0.438889155,-0.40000014,1,0,0,2,14,134,35,1,51,68932,blockT,180,2022-02-17_20h01.58.853,orientation adjustment block,2021.2.3,Win32,59.94125757,continueButton,,,,,,
,,,,,,,,,,,,,,,,,,,,,,-74.44444444,-25,20,75,-46.44444444,21.44444444,21.44444444,0.224074107,-0.281481505,1,0,0,0.0167,submitButton,10.3902663,0.068518547,-0.321296377,0,0,0,2,15,135,9,1,25,68932,blockT,180,2022-02-17_20h01.58.853,orientation adjustment block,2021.2.3,Win32,59.94125757,,,,,,,
,,,,,,,,,,,,,,,,,,,,,,-31.66666667,45,20,75,53.33333333,8.333333333,8.333333333,0.208333366,-0.314814839,1,0,0,0.7507,submitButton,10.37340619,-0.237037018,-0.394444471,0,0,0,2,16,136,29,1,45,68932,blockT,180,2022-02-17_20h01.58.853,orientation adjustment block,2021.2.3,Win32,59.94125757,,,,,,,
,,,,,,,,,,,,,,,,,,,,,,70.55555556,64,20,75,310.5555556,66.55555556,66.55555556,0.217592626,-0.302777915,1,0,0,0.1334,submitButton,10.83017164,0.018518602,-0.348148173,0,0,0,2,17,137,48,1,64,68932,blockT,180,2022-02-17_20h01.58.853,orientation adjustment block,2021.2.3,Win32,59.94125757,,,,,,,
,,,,,,,,,,,,,,,,,,,,,,-29.44444444,-43,20,75,-29.44444444,13.55555556,13.55555556,-0.310185168,-0.40833336,1,0,0,0.7833,submitButton,10.85215054,0.290740776,-0.285185265,0,0,0,2,18,138,27,1,43,68932,blockT,180,2022-02-17_20h01.58.853,orientation adjustment block,2021.2.3,Win32,59.94125757,,,,,,,
,,,,,,,,,,,,,,,,,,,,,,-47.22222222,34,20,75,-158.2222222,12.22222222,12.22222222,-0.165740719,-0.400925953,1,0,0,3.016,submitButton,10.86311111,-0.165740719,-0.400925953,0,0,0,2,19,139,18,1,34,68932,blockT,180,2022-02-17_20h01.58.853,orientation adjustment block,2021.2.3,Win32,59.94125757,,,,,,,
,,,,,,,,,,,,,,,,,,,,,,24.44444444,-70,20,75,-118.5555556,48.55555556,48.55555556,0.350000037,-0.309259283,1,0,0,0.6497,submitButton,11.1622575,-0.281481463,-0.387963046,0,0,0,2,20,140,54,1,70,68932,blockT,180,2022-02-17_20h01.58.853,orientation adjustment block,2021.2.3,Win32,59.94125757,,,,,,,
,,,,,,,,,,,,,,,,,,,,,,66.11111111,41,20,75,242.1111111,21.11111111,21.11111111,-0.149999978,-0.43518527,1,0,0,2.8493,submitButton,11.24059493,-0.1472222,-0.394444471,0,0,0,2,21,141,25,1,41,68932,blockT,180,2022-02-17_20h01.58.853,orientation adjustment block,2021.2.3,Win32,59.94125757,,,,,,,
,,,,,,,,,,,,,,,,,,,,,,69.44444444,60,20,75,246.4444444,6.444444444,6.444444444,-0.144444422,-0.390740824,1,0,0,2.7959,submitButton,11.203125,-0.091666643,-0.367592731,0,0,0,2,22,142,44,1,60,68932,blockT,180,2022-02-17_20h01.58.853,orientation adjustment block,2021.2.3,Win32,59.94125757,,,,,,,
,,,,,,,,,,,,,,,,,,,,,,37.77777778,23,20,75,16.77777778,6.222222222,6.222222222,0.400925964,-0.287963043,1,0,0,0.0648,submitButton,11.16451335,0.275925961,-0.261111247,0,0,0,2,23,143,7,1,23,68932,blockT,180,2022-02-17_20h01.58.853,orientation adjustment block,2021.2.3,Win32,59.94125757,,,,,,,
,,,,,,,,,,,,,,,,,,,,,,23.88888889,32,20,75,23.88888889,8.111111111,8.111111111,0.352777815,-0.286111135,1,0,0,0.0505,submitButton,11.14102564,0.379629667,-0.246296375,0,0,0,2,24,144,16,1,32,68932,blockT,180,2022-02-17_20h01.58.853,orientation adjustment block,2021.2.3,Win32,59.94125757,,,,,,,
,,,,,,,,,,,,,,,,,,,,,,-52.77777778,-31,20,75,-227.7777778,16.77777778,16.77777778,-0.218518499,-0.431481509,1,0,0,2.9165,submitButton,11.18405428,-0.216666647,-0.410185269,0,0,0,2,25,145,15,1,31,68932,blockT,180,2022-02-17_20h01.58.853,orientation adjustment block,2021.2.3,Win32,59.94125757,,,,,,,
,,,,,,,,,,,,,,,,,,,,,,27.77777778,22,20,75,200.7777778,1.222222222,1.222222222,0.223148181,-0.30092595,1,0,0,0.0517,submitButton,11.10858586,0.190740773,-0.390740824,0,0,0,2,26,146,6,1,22,68932,blockT,180,2022-02-17_20h01.58.853,orientation adjustment block,2021.2.3,Win32,59.94125757,,,,,,,
,,,,,,,,,,,,,,,,,,,,,,38.33333333,-74,20,75,-74.66666667,0.666666667,0.666666667,0.231481515,-0.30092595,1,0,0,1.051,submitButton,11.03007519,-0.059259178,-0.272222245,0,0,0,2,27,147,58,1,74,68932,blockT,180,2022-02-17_20h01.58.853,orientation adjustment block,2021.2.3,Win32,59.94125757,,,,,,,
,,,,,,,,,,,,,,,,,,,,,,56.11111111,-19,20,75,161.1111111,0.111111111,0.111111111,-0.178703626,-0.410185269,1,0,0,2.9466,submitButton,10.94859038,-0.178703626,-0.410185269,0,0,0,2,28,148,3,1,19,68932,blockT,180,2022-02-17_20h01.58.853,orientation adjustment block,2021.2.3,Win32,59.94125757,,,,,,,
,,,,,,,,,,,,,,,,,,,,,,24.44444444,24,20,75,202.4444444,1.555555556,1.555555556,-0.153703625,-0.425925954,1,0,0,3.0643,submitButton,10.87901235,0.337963,-0.387963046,1,0,0,2,29,149,8,1,24,68932,blockT,180,2022-02-17_20h01.58.853,orientation adjustment block,2021.2.3,Win32,59.94125757,continueButton,,,,,,
,,,,,,,,,,,,,,,,,,,,,,-35.55555556,-72,20,75,-120.5555556,48.55555556,48.55555556,0.405555594,-0.302777915,1,0,0,1.8449,submitButton,11.15604575,-0.250925907,-0.424074158,0,0,0,2,30,150,56,1,72,68932,blockT,180,2022-02-17_20h01.58.853,orientation adjustment block,2021.2.3,Win32,59.94125757,,,,,,,
,,,,,,,,,,,,,,,,,,,,,,47.22222222,-52,20,75,132.2222222,4.222222222,4.222222222,-0.164814737,-0.389814841,1,0,0,3.0974,submitButton,11.1054339,0.114814845,-0.241666689,0,0,0,2,31,151,36,1,52,68932,blockT,180,2022-02-17_20h01.58.853,orientation adjustment block,2021.2.3,Win32,59.94125757,,,,,,,
,,,,,,,,,,,,,,,,,,,,,,23.88888889,71,20,75,46.88888889,24.11111111,24.11111111,0.375925964,-0.284259396,1,0,0,0.4513,submitButton,11.19967794,-0.122222199,-0.358333472,0,0,0,2,32,152,55,1,71,68932,blockT,180,2022-02-17_20h01.58.853,orientation adjustment block,2021.2.3,Win32,59.94125757,,,,,,,
,,,,,,,,,,,,,,,,,,,,,,61.11111111,29,20,75,18.11111111,10.88888889,10.88888889,-0.329629613,-0.371296379,1,0,0,1.812,submitButton,11.19744205,-0.137962941,-0.391666693,0,0,0,2,33,153,13,1,29,68932,blockT,180,2022-02-17_20h01.58.853,orientation adjustment block,2021.2.3,Win32,59.94125757,,,,,,,
,,,,,,,,,,,,,,,,,,,,,,-26.11111111,-61,20,75,-47.11111111,13.88888889,13.88888889,-0.222222202,-0.404629713,1,0,0,0.8325,submitButton,11.21666667,0.099074104,-0.250925948,0,0,0,2,34,154,45,1,61,68932,blockT,180,2022-02-17_20h01.58.853,orientation adjustment block,2021.2.3,Win32,59.94125757,,,,,,,
,,,,,,,,,,,,,,,,,,,,,,22.22222222,53,20,75,41.22222222,11.77777778,11.77777778,-0.204629609,-0.407407491,1,0,0,1.134,submitButton,11.22064618,-0.044444306,-0.260185264,0,0,0,2,35,155,37,1,53,68932,blockT,180,2022-02-17_20h01.58.853,orientation adjustment block,2021.2.3,Win32,59.94125757,,,,,,,
,,,,,,,,,,,,,,,,,,,,,,-56.66666667,-65,20,75,-28.66666667,36.33333333,36.33333333,0.245370404,-0.282407487,1,0,0,0.1818,submitButton,11.39749609,0.100000029,-0.312963044,0,0,0,2,36,156,49,1,65,68932,blockT,180,2022-02-17_20h01.58.853,orientation adjustment block,2021.2.3,Win32,59.94125757,,,,,,,
,,,,,,,,,,,,,,,,,,,,,,62.22222222,-62,20,75,143.2222222,25.22222222,25.22222222,0.2166667,-0.30555558,1,0,0,1.8354,submitButton,11.49417249,-0.168518497,-0.392592619,0,0,0,2,37,157,46,1,62,68932,blockT,180,2022-02-17_20h01.58.853,orientation adjustment block,2021.2.3,Win32,59.94125757,,,,,,,
,,,,,,,,,,,,,,,,,,,,,,-34.44444444,49,20,75,-137.4444444,6.444444444,6.444444444,-0.201851775,-0.40000014,1,0,0,3.1171,submitButton,11.45910494,0.121296326,-0.070370387,0,0,0,2,38,158,33,1,49,68932,blockT,180,2022-02-17_20h01.58.853,orientation adjustment block,2021.2.3,Win32,59.94125757,,,,,,,
,,,,,,,,,,,,,,,,,,,,,,-33.33333333,-38,20,75,-26.33333333,11.66666667,11.66666667,-0.135185163,-0.397222249,1,0,0,1.1994,submitButton,11.4605364,0.062962991,-0.312037174,0,0,0,2,39,159,22,1,38,68932,blockT,180,2022-02-17_20h01.58.853,orientation adjustment block,2021.2.3,Win32,59.94125757,,,,,,,
,,,,,,,,,,,,,,,,,,,,,,-47.77777778,-28,20,75,-15.77777778,12.22222222,12.22222222,-0.129629607,-0.384259286,1,0,0,1.3833,submitButton,11.46575342,0.176851884,0.025925912,0,0,0,2,40,160,12,1,28,68932,blockT,180,2022-02-17_20h01.58.853,orientation adjustment block,2021.2.3,Win32,59.94125757,,,,,,,
,,,,,,,,,,,,,,,,,,,,,,-65.55555556,44,20,75,-167.5555556,31.55555556,31.55555556,0.379629667,-0.257407486,1,0,0,2.1502,submitButton,11.60241875,-0.06018516,-0.257407486,0,0,0,2,41,161,28,1,44,68932,blockT,180,2022-02-17_20h01.58.853,orientation adjustment block,2021.2.3,Win32,59.94125757,,,,,,,
,,,,,,,,,,,,,,,,,,,,,,63.33333333,30,20,75,216.3333333,6.333333333,6.333333333,0.218518552,-0.306481506,1,0,0,0.0998,submitButton,11.56681682,0.315740777,-0.180555576,0,0,0,2,42,162,14,1,30,68932,blockT,180,2022-02-17_20h01.58.853,orientation adjustment block,2021.2.3,Win32,59.94125757,,,,,,,
,,,,,,,,,,,,,,,,,,,,,,26.66666667,-57,20,75,-52.33333333,4.666666667,4.666666667,0.412963002,-0.298148285,1,0,0,0.0333,submitButton,11.52050708,0.180555587,-0.245370393,0,0,0,2,43,163,41,1,57,68932,blockT,180,2022-02-17_20h01.58.853,orientation adjustment block,2021.2.3,Win32,59.94125757,,,,,,,
,,,,,,,,,,,,,,,,,,,,,,57.77777778,39,20,75,31.77777778,7.222222222,7.222222222,0.341666929,-0.310185266,1,0,0,0.3003,submitButton,11.49185185,0.393518557,-0.420370398,1,0,0,2,44,164,23,1,39,68932,blockT,180,2022-02-17_20h01.58.853,orientation adjustment block,2021.2.3,Win32,59.94125757,continueButton,,,,,,
,,,,,,,,,,,,,,,,,,,,,,65,-35,20,75,151,6,6,0.229629663,-0.309259283,1,0,0,0.3166,submitButton,11.45548197,0.00370373,-0.081481499,0,0,0,2,45,165,19,1,35,68932,blockT,180,2022-02-17_20h01.58.853,orientation adjustment block,2021.2.3,Win32,59.94125757,,,,,,,
,,,,,,,,,,,,,,,,,,,,,,69.44444444,68,20,75,292.4444444,44.44444444,44.44444444,-0.209259239,-0.42222225,1,0,0,3.1998,submitButton,11.67251462,0.25092596,-0.359259285,0,0,0,2,46,166,52,1,68,68932,blockT,180,2022-02-17_20h01.58.853,orientation adjustment block,2021.2.3,Win32,59.94125757,,,,,,,
,,,,,,,,,,,,,,,,,,,,,,29.44444444,55,20,75,46.44444444,8.555555556,8.555555556,-0.143518496,-0.386111251,1,0,0,0.9331,submitButton,11.65214234,0.318518668,-0.275925949,0,0,0,2,47,167,39,1,55,68932,blockT,180,2022-02-17_20h01.58.853,orientation adjustment block,2021.2.3,Win32,59.94125757,,,,,,,
,,,,,,,,,,,,,,,,,,,,,,-57.22222222,37,20,75,43.77777778,6.777777778,6.777777778,0.338888925,-0.267592615,1,0,0,0.1332,submitButton,11.62049062,0.100000029,-0.17962965,0,0,0,2,48,168,21,1,37,68932,blockT,180,2022-02-17_20h01.58.853,orientation adjustment block,2021.2.3,Win32,59.94125757,,,,,,,
,,,,,,,,,,,,,,,,,,,,,,-40.55555556,17,20,75,20.44444444,3.444444444,3.444444444,0.175925958,-0.356481507,1,0,0,0.0494,submitButton,11.56774194,0.127777808,-0.246296375,0,0,0,2,49,169,1,1,17,68932,blockT,180,2022-02-17_20h01.58.853,orientation adjustment block,2021.2.3,Win32,59.94125757,,,,,,,
,,,,,,,,,,,,,,,,,,,,,,-56.66666667,46,20,75,46.33333333,0.333333333,0.333333333,-0.176851831,-0.419444472,1,0,0,1.3333,submitButton,11.4957265,0.009259286,-0.009259274,0,0,0,2,50,170,30,1,46,68932,blockT,180,2022-02-17_20h01.58.853,orientation adjustment block,2021.2.3,Win32,59.94125757,,,,,,,
,,,,,,,,,,,,,,,,,,,,,,-50.55555556,-50,20,75,-227.5555556,2.444444444,2.444444444,0.409259298,-0.299074154,1,0,0,2.3,submitButton,11.43807502,0.058333362,-0.151851871,0,0,0,2,51,171,34,1,50,68932,blockT,180,2022-02-17_20h01.58.853,orientation adjustment block,2021.2.3,Win32,59.94125757,,,,,,,
,,,,,,,,,,,,,,,,,,,,,,-49.44444444,-54,20,75,-41.44444444,12.55555556,12.55555556,0.239814848,-0.318518599,1,0,0,0.4833,submitButton,11.44514768,0.137037068,-0.212037058,0,0,0,2,52,172,38,1,54,68932,blockT,180,2022-02-17_20h01.58.853,orientation adjustment block,2021.2.3,Win32,59.94125757,,,,,,,
,,,,,,,,,,,,,,,,,,,,,,-51.66666667,66,20,75,53.33333333,12.66666667,12.66666667,0.223148181,-0.313888913,1,0,0,0.2544,submitButton,11.45283019,0.064814843,-0.240740819,0,0,0,2,53,173,50,1,66,68932,blockT,180,2022-02-17_20h01.58.853,orientation adjustment block,2021.2.3,Win32,59.94125757,,,,,,,
,,,,,,,,,,,,,,,,,,,,,,-56.66666667,16,20,75,24.33333333,8.333333333,8.333333333,-0.120370291,-0.387963046,1,0,0,1.9334,submitButton,11.43333333,-0.107407384,-0.363888915,0,0,0,2,54,174,0,1,16,68932,blockT,180,2022-02-17_20h01.58.853,orientation adjustment block,2021.2.3,Win32,59.94125757,,,,,,,
,,,,,,,,,,,,,,,,,,,,,,-70.55555556,56,20,75,57.44444444,1.444444444,1.444444444,-0.139814736,-0.361111137,1,0,0,1.3672,submitButton,11.37129055,0.361111148,-0.246296375,0,0,0,2,55,175,40,1,56,68932,blockT,180,2022-02-17_20h01.58.853,orientation adjustment block,2021.2.3,Win32,59.94125757,,,,,,,
,,,,,,,,,,,,,,,,,,,,,,30,27,20,75,24,3,3,0.387963114,-0.307407488,1,0,0,0.2342,submitButton,11.31961591,0.054629714,-0.314814839,0,0,0,2,56,176,11,1,27,68932,blockT,180,2022-02-17_20h01.58.853,orientation adjustment block,2021.2.3,Win32,59.94125757,,,,,,,
,,,,,,,,,,,,,,,,,,,,,,72.22222222,59,20,75,250.2222222,11.22222222,11.22222222,0.410185224,-0.293518599,1,0,0,2.5633,submitButton,11.3190184,0.205555588,-0.222222244,0,0,0,2,57,177,43,1,59,68932,blockT,180,2022-02-17_20h01.58.853,orientation adjustment block,2021.2.3,Win32,59.94125757,,,,,,,
,,,,,,,,,,,,,,,,,,,,,,56.11111111,69,20,75,253.1111111,4.111111111,4.111111111,0.390740779,-0.314814839,1,0,0,2.7452,submitButton,11.27506775,0.011111251,-0.352777803,0,0,0,2,58,178,53,1,69,68932,blockT,180,2022-02-17_20h01.58.853,orientation adjustment block,2021.2.3,Win32,59.94125757,,,,,,,
,,,,,,,,,,,,,,,,,,,,,,-39.44444444,73,20,75,81.55555556,8.555555556,8.555555556,0.181481513,-0.347222247,1,0,0,0.4614,submitButton,11.25858586,0.155555587,-0.320370395,0,0,0,2,59,179,57,1,73,68932,blockT,180,2022-02-17_20h01.58.853,orientation adjustment block,2021.2.3,Win32,59.94125757,,,,,,,
,,,,,,,,,,,,,,,,,,,,,,,,,,,,,,,,,,,,,,,,,,,,,,,,68932,blockT,180,2022-02-17_20h01.58.853,orientation adjustment block,2021.2.3,Win32,59.94125757,,0.362963,-0.381481621,1,0,0,EndButtonTxt
