consentMouse1.x,consentMouse1.y,consentMouse1.leftButton,consentMouse1.midButton,consentMouse1.rightButton,consentMouse1.clicked_name,consent_Mouse.x,consent_Mouse.y,consent_Mouse.leftButton,consent_Mouse.midButton,consent_Mouse.rightButton,consent_Mouse.clicked_name,startMouse.x,startMouse.y,startMouse.leftButton,startMouse.midButton,startMouse.rightButton,startMouse_2.x,startMouse_2.y,startMouse_2.leftButton,startMouse_2.midButton,startMouse_2.rightButton,start_distance,fixedOri,minimalDistance,maxOri,this_ori,accuracy,presented_accuracy,submitMouse.x,submitMouse.y,submitMouse.leftButton,submitMouse.midButton,submitMouse.rightButton,submitMouse.time,submitMouse.clicked_name,block_accuracy,continueMouse.x,continueMouse.y,continueMouse.leftButton,continueMouse.midButton,continueMouse.rightButton,trials.thisRepN,trials.thisTrialN,trials.thisN,trials.thisIndex,trials.ran,startOri,participant,condition,nTrials,date,expName,psychopyVersion,OS,frameRate,continueMouse.clicked_name,EndButtonMouse.x,EndButtonMouse.y,EndButtonMouse.leftButton,EndButtonMouse.midButton,EndButtonMouse.rightButton,EndButtonMouse.clicked_name
0.476851908,-0.397222222,1,0,0,consent_button1,0.450925954,-0.392592621,1,0,0,consent_button,0.643518575,-0.321296353,1,0,0,0.519444444,-0.322222222,1,0,0,-55.55555556,-23,20,75,-38.55555556,15.55555556,15.55555556,-0.2,-0.412963019,1,0,0,0.9983,submitButton,15.55555556,-0.201851824,-0.405555556,0,0,0,0,0,0,7,1,23,68977,blockT,180,2022-02-16_21h19.33.409,orientation adjustment block,2021.2.3,Win32,59.95922773,,,,,,,
,,,,,,,,,,,,,,,,,,,,,,55,55,20,75,228,7,7,0.221296353,-0.314814843,1,0,0,0.4864,submitButton,11.27777778,-0.163888889,-0.418518575,0,0,0,0,1,1,39,1,55,68977,blockT,180,2022-02-16_21h19.33.409,orientation adjustment block,2021.2.3,Win32,59.95922773,,,,,,,
,,,,,,,,,,,,,,,,,,,,,,40.55555556,-51,20,75,-64.44444444,13.44444444,13.44444444,-0.162036981,-0.427777778,1,0,0,0.784,submitButton,12,-0.153703647,-0.425,0,0,0,0,2,2,35,1,51,68977,blockT,180,2022-02-16_21h19.33.409,orientation adjustment block,2021.2.3,Win32,59.95922773,,,,,,,
,,,,,,,,,,,,,,,,,,,,,,67.22222222,29,20,75,142.2222222,66.77777778,66.77777778,0.226851908,-0.309259288,1,0,0,0.6831,submitButton,66.77777778,-0.130555556,-0.416666667,0,0,0,0,3,3,13,1,29,68977,blockT,180,2022-02-16_21h19.33.409,orientation adjustment block,2021.2.3,Win32,59.95922773,,,,,,,
,,,,,,,,,,,,,,,,,,,,,,73.33333333,65,20,75,235.3333333,9.666666667,9.666666667,0.204629686,-0.320370399,1,0,0,0.0321,submitButton,38.22222222,-0.14351849,-0.375,0,0,0,0,4,4,49,1,65,68977,blockT,180,2022-02-16_21h19.33.409,orientation adjustment block,2021.2.3,Win32,59.95922773,,,,,,,
,,,,,,,,,,,,,,,,,,,,,,57.22222222,-18,20,75,-21.77777778,3.777777778,3.777777778,0.239814843,-0.291666667,1,0,0,0.1663,submitButton,26.74074074,-0.131481425,-0.403703732,0,0,0,0,5,5,2,1,18,68977,blockT,180,2022-02-16_21h19.33.409,orientation adjustment block,2021.2.3,Win32,59.95922773,,,,,,,
,,,,,,,,,,,,,,,,,,,,,,-22.77777778,58,20,75,56.22222222,1.777777778,1.777777778,0.437963019,-0.314814843,1,0,0,0.5687,submitButton,1.777777778,-0.117592536,-0.4,0,0,0,0,6,6,42,1,58,68977,blockT,180,2022-02-16_21h19.33.409,orientation adjustment block,2021.2.3,Win32,59.95922773,,,,,,,
,,,,,,,,,,,,,,,,,,,,,,-28.33333333,-56,20,75,-54.33333333,1.666666667,1.666666667,0.194444444,-0.323148176,1,0,0,0.0344,submitButton,1.722222222,-0.169444444,-0.407407464,0,0,0,0,7,7,40,1,56,68977,blockT,180,2022-02-16_21h19.33.409,orientation adjustment block,2021.2.3,Win32,59.95922773,,,,,,,
,,,,,,,,,,,,,,,,,,,,,,-20,-71,20,75,-60,11,11,0.245370399,-0.336111111,1,0,0,0.518,submitButton,4.814814815,-0.125925869,-0.407407464,0,0,0,0,8,8,55,1,71,68977,blockT,180,2022-02-16_21h19.33.409,orientation adjustment block,2021.2.3,Win32,59.95922773,,,,,,,
,,,,,,,,,,,,,,,,,,,,,,20.55555556,44,20,75,38.55555556,5.444444444,5.444444444,0.423148176,-0.287963019,1,0,0,0.0334,submitButton,5.444444444,-0.160185157,-0.402777778,0,0,0,0,9,9,28,1,44,68977,blockT,180,2022-02-16_21h19.33.409,orientation adjustment block,2021.2.3,Win32,59.95922773,,,,,,,
,,,,,,,,,,,,,,,,,,,,,,34.44444444,50,20,75,33.44444444,16.55555556,16.55555556,0.402777778,-0.291666667,1,0,0,0.3329,submitButton,11,-0.17870369,-0.417592621,0,0,0,0,10,10,34,1,50,68977,blockT,180,2022-02-16_21h19.33.409,orientation adjustment block,2021.2.3,Win32,59.95922773,,,,,,,
,,,,,,,,,,,,,,,,,,,,,,-42.77777778,21,20,75,33.22222222,12.22222222,12.22222222,0.237963019,-0.307407464,1,0,0,0.2333,submitButton,11.40740741,-0.556481467,-0.379629686,0,0,0,0,11,11,5,1,21,68977,blockT,180,2022-02-16_21h19.33.409,orientation adjustment block,2021.2.3,Win32,59.95922773,,,,,,,
,,,,,,,,,,,,,,,,,,,,,,54.44444444,-40,20,75,-36.55555556,3.444444444,3.444444444,-0.284259245,-0.432407464,1,0,0,0.9553,submitButton,3.444444444,-0.213888889,-0.387037065,0,0,0,0,12,12,24,1,40,68977,blockT,180,2022-02-16_21h19.33.409,orientation adjustment block,2021.2.3,Win32,59.95922773,,,,,,,
,,,,,,,,,,,,,,,,,,,,,,36.11111111,-72,20,75,-74.88888889,2.888888889,2.888888889,-0.179629601,-0.408333333,1,0,0,0.7989,submitButton,3.166666667,-0.186111111,-0.407407464,0,0,0,0,13,13,56,1,72,68977,blockT,180,2022-02-16_21h19.33.409,orientation adjustment block,2021.2.3,Win32,59.95922773,,,,,,,
,,,,,,,,,,,,,,,,,,,,,,21.11111111,20,20,75,14.11111111,5.888888889,5.888888889,-0.167592536,-0.395370399,1,0,0,0.954,submitButton,4.074074074,0.392592621,-0.413888889,1,0,0,0,14,14,4,1,20,68977,blockT,180,2022-02-16_21h19.33.409,orientation adjustment block,2021.2.3,Win32,59.95922773,continueButton,,,,,,
,,,,,,,,,,,,,,,,,,,,,,-47.77777778,22,20,75,33.22222222,11.22222222,11.22222222,0.247222222,-0.303703732,1,0,0,0.2842,submitButton,11.22222222,-0.211111111,-0.40648151,0,0,0,0,15,15,6,1,22,68977,blockT,180,2022-02-16_21h19.33.409,orientation adjustment block,2021.2.3,Win32,59.95922773,,,,,,,
,,,,,,,,,,,,,,,,,,,,,,-54.44444444,-19,20,75,-14.44444444,4.555555556,4.555555556,-0.198148134,-0.426851908,1,0,0,1.5507,submitButton,7.888888889,-0.198148134,-0.426851908,0,0,0,0,16,16,3,1,19,68977,blockT,180,2022-02-16_21h19.33.409,orientation adjustment block,2021.2.3,Win32,59.95922773,,,,,,,
,,,,,,,,,,,,,,,,,,,,,,-64.44444444,-38,20,75,-13.44444444,24.55555556,24.55555556,-0.17870369,-0.423148176,1,0,0,1.5632,submitButton,13.44444444,-0.184259245,-0.412963019,0,0,0,0,17,17,22,1,38,68977,blockT,180,2022-02-16_21h19.33.409,orientation adjustment block,2021.2.3,Win32,59.95922773,,,,,,,
,,,,,,,,,,,,,,,,,,,,,,27.22222222,-24,20,75,-34.77777778,10.77777778,10.77777778,-0.162036981,-0.380555556,1,0,0,0.8672,submitButton,12.77777778,-0.167592536,-0.377777778,0,0,0,0,18,18,8,1,24,68977,blockT,180,2022-02-16_21h19.33.409,orientation adjustment block,2021.2.3,Win32,59.95922773,,,,,,,
,,,,,,,,,,,,,,,,,,,,,,-37.22222222,54,20,75,54.77777778,0.777777778,0.777777778,-0.16851849,-0.423148176,1,0,0,0.4964,submitButton,10.37777778,-0.167592536,-0.429629686,0,0,0,0,19,19,38,1,54,68977,blockT,180,2022-02-16_21h19.33.409,orientation adjustment block,2021.2.3,Win32,59.95922773,,,,,,,
,,,,,,,,,,,,,,,,,,,,,,-40,-67,20,75,-240,7,7,0.395370399,-0.305555556,1,0,0,2.0188,submitButton,9.814814815,-0.167592536,-0.422222222,0,0,0,0,20,20,51,1,67,68977,blockT,180,2022-02-16_21h19.33.409,orientation adjustment block,2021.2.3,Win32,59.95922773,,,,,,,
,,,,,,,,,,,,,,,,,,,,,,-33.88888889,-48,20,75,-43.88888889,4.111111111,4.111111111,0.209259288,-0.307407464,1,0,0,0.29,submitButton,9,-0.192592578,-0.400925954,0,0,0,0,21,21,32,1,48,68977,blockT,180,2022-02-16_21h19.33.409,orientation adjustment block,2021.2.3,Win32,59.95922773,,,,,,,
,,,,,,,,,,,,,,,,,,,,,,-28.88888889,-28,20,75,-29.88888889,1.888888889,1.888888889,0.250925954,-0.283333333,1,0,0,0.3026,submitButton,8.111111111,-0.132407379,-0.387963019,0,0,0,0,22,22,12,1,28,68977,blockT,180,2022-02-16_21h19.33.409,orientation adjustment block,2021.2.3,Win32,59.95922773,,,,,,,
,,,,,,,,,,,,,,,,,,,,,,22.77777778,-73,20,75,-77.22222222,4.222222222,4.222222222,-0.157407379,-0.401851908,1,0,0,0.8336,submitButton,7.679012346,-0.155555556,-0.401851908,0,0,0,0,23,23,57,1,73,68977,blockT,180,2022-02-16_21h19.33.409,orientation adjustment block,2021.2.3,Win32,59.95922773,,,,,,,
,,,,,,,,,,,,,,,,,,,,,,-24.44444444,-53,20,75,-57.44444444,4.444444444,4.444444444,-0.150925869,-0.416666667,1,0,0,0.4602,submitButton,7.355555556,-0.150925869,-0.416666667,0,0,0,0,24,24,37,1,53,68977,blockT,180,2022-02-16_21h19.33.409,orientation adjustment block,2021.2.3,Win32,59.95922773,,,,,,,
,,,,,,,,,,,,,,,,,,,,,,-57.22222222,61,20,75,43.77777778,17.22222222,17.22222222,0.187037065,-0.301851908,1,0,0,0.0384,submitButton,8.252525253,-0.120370314,-0.394444444,0,0,0,0,25,25,45,1,61,68977,blockT,180,2022-02-16_21h19.33.409,orientation adjustment block,2021.2.3,Win32,59.95922773,,,,,,,
,,,,,,,,,,,,,,,,,,,,,,64.44444444,-74,20,75,-64.55555556,9.444444444,9.444444444,-0.159259203,-0.445370399,1,0,0,1.0507,submitButton,8.351851852,-0.106481425,-0.425,0,0,0,0,26,26,58,1,74,68977,blockT,180,2022-02-16_21h19.33.409,orientation adjustment block,2021.2.3,Win32,59.95922773,,,,,,,
,,,,,,,,,,,,,,,,,,,,,,-36.11111111,59,20,75,40.88888889,18.11111111,18.11111111,0.433333333,-0.278703732,1,0,0,1.1154,submitButton,9.102564103,-0.122222222,-0.411111111,0,0,0,0,27,27,43,1,59,68977,blockT,180,2022-02-16_21h19.33.409,orientation adjustment block,2021.2.3,Win32,59.95922773,,,,,,,
,,,,,,,,,,,,,,,,,,,,,,-59.44444444,36,20,75,26.55555556,9.444444444,9.444444444,-0.120370314,-0.430555556,1,0,0,0.9839,submitButton,9.126984127,-0.157407379,-0.400925954,0,0,0,0,28,28,20,1,36,68977,blockT,180,2022-02-16_21h19.33.409,orientation adjustment block,2021.2.3,Win32,59.95922773,,,,,,,
,,,,,,,,,,,,,,,,,,,,,,25.55555556,-17,20,75,-32.44444444,15.44444444,15.44444444,0.187963019,-0.297222222,1,0,0,0.8515,submitButton,9.548148148,0.358333333,-0.409259288,1,0,0,0,29,29,1,1,17,68977,blockT,180,2022-02-16_21h19.33.409,orientation adjustment block,2021.2.3,Win32,59.95922773,continueButton,,,,,,
,,,,,,,,,,,,,,,,,,,,,,-73.88888889,46,20,75,40.11111111,5.888888889,5.888888889,0.185185242,-0.286111111,1,0,0,1.3498,submitButton,9.319444444,-0.175,-0.410185242,0,0,0,0,30,30,30,1,46,68977,blockT,180,2022-02-16_21h19.33.409,orientation adjustment block,2021.2.3,Win32,59.95922773,,,,,,,
,,,,,,,,,,,,,,,,,,,,,,-68.33333333,30,20,75,36.66666667,6.666666667,6.666666667,-0.147222222,-0.448148176,1,0,0,1.1122,submitButton,9.163398693,-0.157407379,-0.402777778,0,0,0,0,31,31,14,1,30,68977,blockT,180,2022-02-16_21h19.33.409,orientation adjustment block,2021.2.3,Win32,59.95922773,,,,,,,
,,,,,,,,,,,,,,,,,,,,,,43.88888889,70,20,75,230.8888889,19.11111111,19.11111111,-0.17870369,-0.408333333,1,0,0,1.8846,submitButton,9.716049383,-0.16851849,-0.405555556,0,0,0,0,32,32,54,1,70,68977,blockT,180,2022-02-16_21h19.33.409,orientation adjustment block,2021.2.3,Win32,59.95922773,,,,,,,
,,,,,,,,,,,,,,,,,,,,,,-37.77777778,37,20,75,49.22222222,12.22222222,12.22222222,-0.162962935,-0.412963019,1,0,0,1.0834,submitButton,9.847953216,-0.151851824,-0.411111111,0,0,0,0,33,33,21,1,37,68977,blockT,180,2022-02-16_21h19.33.409,orientation adjustment block,2021.2.3,Win32,59.95922773,,,,,,,
,,,,,,,,,,,,,,,,,,,,,,-27.77777778,57,20,75,51.22222222,5.777777778,5.777777778,0.203703732,-0.282407464,1,0,0,0.3906,submitButton,9.644444444,-0.134259203,-0.416666667,0,0,0,0,34,34,41,1,57,68977,blockT,180,2022-02-16_21h19.33.409,orientation adjustment block,2021.2.3,Win32,59.95922773,,,,,,,
,,,,,,,,,,,,,,,,,,,,,,45,-62,20,75,-57,5,5,-0.144444444,-0.412037065,1,0,0,0.5621,submitButton,9.423280423,-0.142592536,-0.413888889,0,0,0,0,35,35,46,1,62,68977,blockT,180,2022-02-16_21h19.33.409,orientation adjustment block,2021.2.3,Win32,59.95922773,,,,,,,
,,,,,,,,,,,,,,,,,,,,,,30.55555556,52,20,75,248.5555556,16.55555556,16.55555556,0.195370399,-0.289814843,1,0,0,0.0679,submitButton,9.747474747,-0.154629601,-0.398148176,0,0,0,0,36,36,36,1,52,68977,blockT,180,2022-02-16_21h19.33.409,orientation adjustment block,2021.2.3,Win32,59.95922773,,,,,,,
,,,,,,,,,,,,,,,,,,,,,,-23.33333333,33,20,75,41.66666667,8.666666667,8.666666667,-0.201851824,-0.423148176,1,0,0,0.7335,submitButton,9.700483092,-0.199074046,-0.423148176,0,0,0,0,37,37,17,1,33,68977,blockT,180,2022-02-16_21h19.33.409,orientation adjustment block,2021.2.3,Win32,59.95922773,,,,,,,
,,,,,,,,,,,,,,,,,,,,,,21.11111111,63,20,75,57.11111111,5.888888889,5.888888889,0.437963019,-0.304629686,1,0,0,0.0497,submitButton,9.541666667,-0.131481425,-0.4,0,0,0,0,38,38,47,1,63,68977,blockT,180,2022-02-16_21h19.33.409,orientation adjustment block,2021.2.3,Win32,59.95922773,,,,,,,
,,,,,,,,,,,,,,,,,,,,,,-42.77777778,-16,20,75,-12.77777778,3.222222222,3.222222222,-0.205555556,-0.433333333,1,0,0,1.1279,submitButton,9.288888889,-0.182407379,-0.402777778,0,0,0,0,39,39,0,1,16,68977,blockT,180,2022-02-16_21h19.33.409,orientation adjustment block,2021.2.3,Win32,59.95922773,,,,,,,
,,,,,,,,,,,,,,,,,,,,,,54.44444444,-49,20,75,-48.55555556,0.444444444,0.444444444,0.447222222,-0.308333333,1,0,0,0.8951,submitButton,8.948717949,-0.114814758,-0.407407464,0,0,0,0,40,40,33,1,49,68977,blockT,180,2022-02-16_21h19.33.409,orientation adjustment block,2021.2.3,Win32,59.95922773,,,,,,,
,,,,,,,,,,,,,,,,,,,,,,-73.88888889,32,20,75,38.11111111,6.111111111,6.111111111,-0.134259203,-0.395370399,1,0,0,1.2292,submitButton,8.843621399,-0.186111111,-0.373148176,0,0,0,0,41,41,16,1,32,68977,blockT,180,2022-02-16_21h19.33.409,orientation adjustment block,2021.2.3,Win32,59.95922773,,,,,,,
,,,,,,,,,,,,,,,,,,,,,,-22.22222222,47,20,75,44.77777778,2.222222222,2.222222222,0.221296353,-0.315740797,1,0,0,0.0513,submitButton,8.607142857,-0.11851849,-0.409259288,0,0,0,0,42,42,31,1,47,68977,blockT,180,2022-02-16_21h19.33.409,orientation adjustment block,2021.2.3,Win32,59.95922773,,,,,,,
,,,,,,,,,,,,,,,,,,,,,,55,-75,20,75,-82,7,7,-0.191666667,-0.417592621,1,0,0,0.8825,submitButton,8.551724138,-0.191666667,-0.420370399,0,0,0,0,43,43,59,1,75,68977,blockT,180,2022-02-16_21h19.33.409,orientation adjustment block,2021.2.3,Win32,59.95922773,,,,,,,
,,,,,,,,,,,,,,,,,,,,,,-72.77777778,-25,20,75,-25.77777778,0.777777778,0.777777778,-0.146296268,-0.376851908,1,0,0,1.1839,submitButton,8.292592593,0.417592621,-0.378703732,1,0,0,0,44,44,9,1,25,68977,blockT,180,2022-02-16_21h19.33.409,orientation adjustment block,2021.2.3,Win32,59.95922773,continueButton,,,,,,
,,,,,,,,,,,,,,,,,,,,,,75,34,20,75,109,75,75,-0.119444444,-0.433333333,1,0,0,1.4502,submitButton,10.44444444,-0.135185157,-0.416666667,0,0,0,0,45,45,18,1,34,68977,blockT,180,2022-02-16_21h19.33.409,orientation adjustment block,2021.2.3,Win32,59.95922773,,,,,,,
,,,,,,,,,,,,,,,,,,,,,,-22.77777778,27,20,75,32.22222222,5.222222222,5.222222222,-0.197222222,-0.463888889,1,0,0,0.4832,submitButton,10.28125,-0.171296268,-0.420370399,0,0,0,0,46,46,11,1,27,68977,blockT,180,2022-02-16_21h19.33.409,orientation adjustment block,2021.2.3,Win32,59.95922773,,,,,,,
,,,,,,,,,,,,,,,,,,,,,,-32.22222222,66,20,75,54.77777778,11.22222222,11.22222222,0.2,-0.321296353,1,0,0,0.1059,submitButton,10.30976431,-0.164814758,-0.427777778,0,0,0,0,47,47,50,1,66,68977,blockT,180,2022-02-16_21h19.33.409,orientation adjustment block,2021.2.3,Win32,59.95922773,,,,,,,
,,,,,,,,,,,,,,,,,,,,,,-36.11111111,39,20,75,34.88888889,4.111111111,4.111111111,0.215740797,-0.305555556,1,0,0,0.6175,submitButton,10.12745098,-0.179629601,-0.38148151,0,0,0,0,48,48,23,1,39,68977,blockT,180,2022-02-16_21h19.33.409,orientation adjustment block,2021.2.3,Win32,59.95922773,,,,,,,
,,,,,,,,,,,,,,,,,,,,,,-74.44444444,-35,20,75,-203.4444444,11.55555556,11.55555556,0.399074131,-0.283333333,1,0,0,1.0047,submitButton,10.16825397,-0.154629601,-0.43148151,0,0,0,0,49,49,19,1,35,68977,blockT,180,2022-02-16_21h19.33.409,orientation adjustment block,2021.2.3,Win32,59.95922773,,,,,,,
,,,,,,,,,,,,,,,,,,,,,,40,-60,20,75,-49,11,11,0.413888889,-0.287963019,1,0,0,1.1007,submitButton,10.19135802,-0.128703647,-0.402777778,0,0,0,0,50,50,44,1,60,68977,blockT,180,2022-02-16_21h19.33.409,orientation adjustment block,2021.2.3,Win32,59.95922773,,,,,,,
,,,,,,,,,,,,,,,,,,,,,,-37.22222222,-69,20,75,-62.22222222,6.777777778,6.777777778,0.18148151,-0.290740797,1,0,0,0.3336,submitButton,10.0990991,-0.154629601,-0.426851908,0,0,0,0,51,51,53,1,69,68977,blockT,180,2022-02-16_21h19.33.409,orientation adjustment block,2021.2.3,Win32,59.95922773,,,,,,,
,,,,,,,,,,,,,,,,,,,,,,-36.11111111,-42,20,75,-41.11111111,0.888888889,0.888888889,0.421296353,-0.298148176,1,0,0,0.1326,submitButton,9.856725146,-0.095370314,-0.396296353,0,0,0,0,52,52,26,1,42,68977,blockT,180,2022-02-16_21h19.33.409,orientation adjustment block,2021.2.3,Win32,59.95922773,,,,,,,
,,,,,,,,,,,,,,,,,,,,,,26.66666667,-26,20,75,-47.33333333,21.33333333,21.33333333,0.412963019,-0.320370399,1,0,0,0.0112,submitButton,10.15099715,-0.123148092,-0.409259288,0,0,0,0,53,53,10,1,26,68977,blockT,180,2022-02-16_21h19.33.409,orientation adjustment block,2021.2.3,Win32,59.95922773,,,,,,,
,,,,,,,,,,,,,,,,,,,,,,-62.22222222,-43,20,75,-19.22222222,23.77777778,23.77777778,-0.160185157,-0.43148151,1,0,0,1.6019,submitButton,10.49166667,-0.120370314,-0.405555556,0,0,0,0,54,54,27,1,43,68977,blockT,180,2022-02-16_21h19.33.409,orientation adjustment block,2021.2.3,Win32,59.95922773,,,,,,,
,,,,,,,,,,,,,,,,,,,,,,-67.77777778,-41,20,75,-23.77777778,17.22222222,17.22222222,-0.146296268,-0.407407464,1,0,0,1.5342,submitButton,10.65582656,-0.144444444,-0.405555556,0,0,0,0,55,55,25,1,41,68977,blockT,180,2022-02-16_21h19.33.409,orientation adjustment block,2021.2.3,Win32,59.95922773,,,,,,,
,,,,,,,,,,,,,,,,,,,,,,26.11111111,68,20,75,47.11111111,20.88888889,20.88888889,0.426851908,-0.288888889,1,0,0,0.0509,submitButton,10.8994709,-0.131481425,-0.405555556,0,0,0,0,56,56,52,1,68,68977,blockT,180,2022-02-16_21h19.33.409,orientation adjustment block,2021.2.3,Win32,59.95922773,,,,,,,
,,,,,,,,,,,,,,,,,,,,,,-56.66666667,-31,20,75,-14.66666667,16.33333333,16.33333333,-0.14351849,-0.411111111,1,0,0,1.1165,submitButton,11.02583979,-0.147222222,-0.410185242,0,0,0,0,57,57,15,1,31,68977,blockT,180,2022-02-16_21h19.33.409,orientation adjustment block,2021.2.3,Win32,59.95922773,,,,,,,
,,,,,,,,,,,,,,,,,,,,,,32.77777778,64,20,75,227.7777778,16.22222222,16.22222222,-0.152777778,-0.368518575,1,0,0,2.2842,submitButton,11.14393939,-0.155555556,-0.414814843,0,0,0,0,58,58,48,1,64,68977,blockT,180,2022-02-16_21h19.33.409,orientation adjustment block,2021.2.3,Win32,59.95922773,,,,,,,
,,,,,,,,,,,,,,,,,,,,,,65.55555556,-45,20,75,-136.4444444,88.55555556,88.55555556,0.384259288,-0.302777778,1,0,0,0.5888,submitButton,12.86419753,0.276851908,-0.401851908,1,0,0,0,59,59,29,1,45,68977,blockT,180,2022-02-16_21h19.33.409,orientation adjustment block,2021.2.3,Win32,59.95922773,continueButton,,,,,,
,,,,,,,,,,,,,,,,,,,,,,68.33333333,65,20,75,60.33333333,4.666666667,4.666666667,-0.114814758,-0.398148176,1,0,0,2.047,submitButton,12.68599034,-0.114814758,-0.400925954,0,0,0,1,0,60,49,1,65,68977,blockT,180,2022-02-16_21h19.33.409,orientation adjustment block,2021.2.3,Win32,59.95922773,,,,,,,
,,,,,,,,,,,,,,,,,,,,,,-48.33333333,72,20,75,63.66666667,8.333333333,8.333333333,-0.150925869,-0.401851908,1,0,0,0.6992,submitButton,12.59338061,-0.150925869,-0.403703732,0,0,0,1,1,61,56,1,72,68977,blockT,180,2022-02-16_21h19.33.409,orientation adjustment block,2021.2.3,Win32,59.95922773,,,,,,,
,,,,,,,,,,,,,,,,,,,,,,56.66666667,73,20,75,238.6666667,14.33333333,14.33333333,0.189814843,-0.318518575,1,0,0,0.3732,submitButton,12.62962963,-0.165740712,-0.410185242,0,0,0,1,2,62,57,1,73,68977,blockT,180,2022-02-16_21h19.33.409,orientation adjustment block,2021.2.3,Win32,59.95922773,,,,,,,
,,,,,,,,,,,,,,,,,,,,,,-68.88888889,-17,20,75,-10.88888889,6.111111111,6.111111111,-0.162962935,-0.396296353,1,0,0,1.8285,submitButton,12.49659864,-0.165740712,-0.403703732,0,0,0,1,3,63,1,1,17,68977,blockT,180,2022-02-16_21h19.33.409,orientation adjustment block,2021.2.3,Win32,59.95922773,,,,,,,
,,,,,,,,,,,,,,,,,,,,,,-63.33333333,-24,20,75,-23.33333333,0.666666667,0.666666667,0.241666667,-0.309259288,1,0,0,0.157,submitButton,12.26,-0.136111111,-0.396296353,0,0,0,1,4,64,8,1,24,68977,blockT,180,2022-02-16_21h19.33.409,orientation adjustment block,2021.2.3,Win32,59.95922773,,,,,,,
,,,,,,,,,,,,,,,,,,,,,,-20.55555556,29,20,75,29.44444444,0.444444444,0.444444444,-0.1,-0.410185242,1,0,0,0.784,submitButton,12.02832244,-0.1,-0.410185242,0,0,0,1,5,65,13,1,29,68977,blockT,180,2022-02-16_21h19.33.409,orientation adjustment block,2021.2.3,Win32,59.95922773,,,,,,,
,,,,,,,,,,,,,,,,,,,,,,55.55555556,-62,20,75,-42.44444444,19.55555556,19.55555556,-0.14351849,-0.408333333,1,0,0,0.4346,submitButton,12.17307692,-0.141666667,-0.410185242,0,0,0,1,6,66,46,1,62,68977,blockT,180,2022-02-16_21h19.33.409,orientation adjustment block,2021.2.3,Win32,59.95922773,,,,,,,
,,,,,,,,,,,,,,,,,,,,,,50,-50,20,75,-37,13,13,-0.134259203,-0.399074131,1,0,0,0.6165,submitButton,12.18867925,-0.133333333,-0.401851908,0,0,0,1,7,67,34,1,50,68977,blockT,180,2022-02-16_21h19.33.409,orientation adjustment block,2021.2.3,Win32,59.95922773,,,,,,,
,,,,,,,,,,,,,,,,,,,,,,44.44444444,-63,20,75,-56.55555556,6.444444444,6.444444444,0.414814843,-0.262963019,1,0,0,1.0009,submitButton,12.08230453,-0.192592578,-0.415740797,0,0,0,1,8,68,47,1,63,68977,blockT,180,2022-02-16_21h19.33.409,orientation adjustment block,2021.2.3,Win32,59.95922773,,,,,,,
,,,,,,,,,,,,,,,,,,,,,,52.22222222,-46,20,75,-41.77777778,4.222222222,4.222222222,0.415740797,-0.295370399,1,0,0,0.9141,submitButton,11.93939394,-0.126851824,-0.419444444,0,0,0,1,9,69,30,1,46,68977,blockT,180,2022-02-16_21h19.33.409,orientation adjustment block,2021.2.3,Win32,59.95922773,,,,,,,
,,,,,,,,,,,,,,,,,,,,,,-36.66666667,-70,20,75,-67.66666667,2.333333333,2.333333333,0.194444444,-0.292592621,1,0,0,0.0718,submitButton,11.76785714,-0.102777778,-0.426851908,0,0,0,1,10,70,54,1,70,68977,blockT,180,2022-02-16_21h19.33.409,orientation adjustment block,2021.2.3,Win32,59.95922773,,,,,,,
,,,,,,,,,,,,,,,,,,,,,,64.44444444,66,20,75,50.44444444,15.55555556,15.55555556,0.436111111,-0.285185242,1,0,0,1.0526,submitButton,11.83430799,-0.099074046,-0.409259288,0,0,0,1,11,71,50,1,66,68977,blockT,180,2022-02-16_21h19.33.409,orientation adjustment block,2021.2.3,Win32,59.95922773,,,,,,,
,,,,,,,,,,,,,,,,,,,,,,60.55555556,36,20,75,44.55555556,8.555555556,8.555555556,0.425,-0.294444444,1,0,0,0.2408,submitButton,11.77777778,-0.141666667,-0.418518575,0,0,0,1,12,72,20,1,36,68977,blockT,180,2022-02-16_21h19.33.409,orientation adjustment block,2021.2.3,Win32,59.95922773,,,,,,,
,,,,,,,,,,,,,,,,,,,,,,-28.33333333,-42,20,75,-43.33333333,1.333333333,1.333333333,-0.123148092,-0.353703732,1,0,0,0.7466,submitButton,11.6007533,-0.133333333,-0.376851908,0,0,0,1,13,73,26,1,42,68977,blockT,180,2022-02-16_21h19.33.409,orientation adjustment block,2021.2.3,Win32,59.95922773,,,,,,,
,,,,,,,,,,,,,,,,,,,,,,-56.11111111,45,20,75,-133.1111111,1.888888889,1.888888889,-0.187037023,-0.396296353,1,0,0,1.9172,submitButton,11.43888889,0.35648151,-0.397222222,1,0,0,1,14,74,29,1,45,68977,blockT,180,2022-02-16_21h19.33.409,orientation adjustment block,2021.2.3,Win32,59.95922773,continueButton,,,,,,
,,,,,,,,,,,,,,,,,,,,,,-42.22222222,35,20,75,40.77777778,5.777777778,5.777777778,0.214814843,-0.305555556,1,0,0,0.6667,submitButton,11.34608379,-0.241666667,-0.374074131,0,0,0,1,15,75,19,1,35,68977,blockT,180,2022-02-16_21h19.33.409,orientation adjustment block,2021.2.3,Win32,59.95922773,,,,,,,
,,,,,,,,,,,,,,,,,,,,,,31.11111111,-39,20,75,-45.88888889,6.888888889,6.888888889,0.4,-0.302777778,1,0,0,1.6499,submitButton,11.27419355,-0.131481425,-0.404629686,0,0,0,1,16,76,23,1,39,68977,blockT,180,2022-02-16_21h19.33.409,orientation adjustment block,2021.2.3,Win32,59.95922773,,,,,,,
,,,,,,,,,,,,,,,,,,,,,,-21.66666667,71,20,75,61.33333333,9.666666667,9.666666667,0.187037065,-0.286111111,1,0,0,0.4513,submitButton,11.24867725,-0.138888889,-0.373148176,0,0,0,1,17,77,55,1,71,68977,blockT,180,2022-02-16_21h19.33.409,orientation adjustment block,2021.2.3,Win32,59.95922773,,,,,,,
,,,,,,,,,,,,,,,,,,,,,,45,-67,20,75,-67,0,0,-0.130555556,-0.40648151,1,0,0,0.8279,submitButton,11.07291667,-0.125,-0.412037065,0,0,0,1,18,78,51,1,67,68977,blockT,180,2022-02-16_21h19.33.409,orientation adjustment block,2021.2.3,Win32,59.95922773,,,,,,,
,,,,,,,,,,,,,,,,,,,,,,25.55555556,16,20,75,17.55555556,1.555555556,1.555555556,0.425,-0.279629686,1,0,0,0.1016,submitButton,10.92649573,-0.149074046,-0.398148176,0,0,0,1,19,79,0,1,16,68977,blockT,180,2022-02-16_21h19.33.409,orientation adjustment block,2021.2.3,Win32,59.95922773,,,,,,,
,,,,,,,,,,,,,,,,,,,,,,58.88888889,28,20,75,34.88888889,6.888888889,6.888888889,0.367592621,-0.285185242,1,0,0,0.0678,submitButton,10.86531987,-0.135185157,-0.419444444,0,0,0,1,20,80,12,1,28,68977,blockT,180,2022-02-16_21h19.33.409,orientation adjustment block,2021.2.3,Win32,59.95922773,,,,,,,
,,,,,,,,,,,,,,,,,,,,,,30.55555556,-57,20,75,-50.44444444,6.555555556,6.555555556,-0.145370314,-0.408333333,1,0,0,0.5785,submitButton,10.80099502,-0.14351849,-0.409259288,0,0,0,1,21,81,41,1,57,68977,blockT,180,2022-02-16_21h19.33.409,orientation adjustment block,2021.2.3,Win32,59.95922773,,,,,,,
,,,,,,,,,,,,,,,,,,,,,,52.22222222,-69,20,75,-61.77777778,7.222222222,7.222222222,-0.127777778,-0.394444444,1,0,0,0.6258,submitButton,10.74836601,-0.125,-0.393518575,0,0,0,1,22,82,53,1,69,68977,blockT,180,2022-02-16_21h19.33.409,orientation adjustment block,2021.2.3,Win32,59.95922773,,,,,,,
,,,,,,,,,,,,,,,,,,,,,,53.33333333,30,20,75,206.3333333,3.666666667,3.666666667,-0.120370314,-0.372222222,1,0,0,2.2447,submitButton,10.64573269,-0.144444444,-0.403703732,0,0,0,1,23,83,14,1,30,68977,blockT,180,2022-02-16_21h19.33.409,orientation adjustment block,2021.2.3,Win32,59.95922773,,,,,,,
,,,,,,,,,,,,,,,,,,,,,,44.44444444,-27,20,75,-38.55555556,11.55555556,11.55555556,-0.153703647,-0.409259288,1,0,0,0.9838,submitButton,10.65873016,-0.15,-0.410185242,0,0,0,1,24,84,11,1,27,68977,blockT,180,2022-02-16_21h19.33.409,orientation adjustment block,2021.2.3,Win32,59.95922773,,,,,,,
,,,,,,,,,,,,,,,,,,,,,,-25.55555556,23,20,75,42.44444444,19.44444444,19.44444444,0.2,-0.305555556,1,0,0,0.0191,submitButton,10.78247261,-0.159259203,-0.395370399,0,0,0,1,25,85,7,1,23,68977,blockT,180,2022-02-16_21h19.33.409,orientation adjustment block,2021.2.3,Win32,59.95922773,,,,,,,
,,,,,,,,,,,,,,,,,,,,,,58.33333333,56,20,75,215.3333333,20.66666667,20.66666667,-0.148148092,-0.40648151,1,0,0,2.0489,submitButton,10.91975309,-0.148148092,-0.40648151,0,0,0,1,26,86,40,1,56,68977,blockT,180,2022-02-16_21h19.33.409,orientation adjustment block,2021.2.3,Win32,59.95922773,,,,,,,
,,,,,,,,,,,,,,,,,,,,,,22.77777778,61,20,75,44.77777778,16.22222222,16.22222222,-0.138888889,-0.367592621,1,0,0,0.9113,submitButton,10.99238965,-0.128703647,-0.412963019,0,0,0,1,27,87,45,1,61,68977,blockT,180,2022-02-16_21h19.33.409,orientation adjustment block,2021.2.3,Win32,59.95922773,,,,,,,
,,,,,,,,,,,,,,,,,,,,,,-66.66666667,33,20,75,29.33333333,3.666666667,3.666666667,-0.151851824,-0.438888889,1,0,0,1.0136,submitButton,10.89339339,-0.133333333,-0.419444444,0,0,0,1,28,88,17,1,33,68977,blockT,180,2022-02-16_21h19.33.409,orientation adjustment block,2021.2.3,Win32,59.95922773,,,,,,,
,,,,,,,,,,,,,,,,,,,,,,-20,-74,20,75,-72,2,2,0.15,-0.289814843,1,0,0,0.056,submitButton,10.77481481,0.400925954,-0.412963019,1,0,0,1,29,89,58,1,74,68977,blockT,180,2022-02-16_21h19.33.409,orientation adjustment block,2021.2.3,Win32,59.95922773,continueButton,,,,,,
,,,,,,,,,,,,,,,,,,,,,,64.44444444,-40,20,75,-35.55555556,4.444444444,4.444444444,-0.194444444,-0.368518575,1,0,0,1.0627,submitButton,10.69152047,-0.173148092,-0.387963019,0,0,0,1,30,90,24,1,40,68977,blockT,180,2022-02-16_21h19.33.409,orientation adjustment block,2021.2.3,Win32,59.95922773,,,,,,,
,,,,,,,,,,,,,,,,,,,,,,73.33333333,20,20,75,34.33333333,14.33333333,14.33333333,0.25,-0.364814843,1,0,0,0.7075,submitButton,10.73881674,-0.174074046,-0.383333333,0,0,0,1,31,91,4,1,20,68977,blockT,180,2022-02-16_21h19.33.409,orientation adjustment block,2021.2.3,Win32,59.95922773,,,,,,,
,,,,,,,,,,,,,,,,,,,,,,50.55555556,48,20,75,26.55555556,21.44444444,21.44444444,0.411111111,-0.275925954,1,0,0,0.8673,submitButton,10.87606838,-0.149074046,-0.400925954,0,0,0,1,32,92,32,1,48,68977,blockT,180,2022-02-16_21h19.33.409,orientation adjustment block,2021.2.3,Win32,59.95922773,,,,,,,
,,,,,,,,,,,,,,,,,,,,,,37.77777778,53,20,75,39.77777778,13.22222222,13.22222222,-0.087036981,-0.407407464,1,0,0,1.1971,submitButton,10.90576653,-0.125925869,-0.412037065,0,0,0,1,33,93,37,1,53,68977,blockT,180,2022-02-16_21h19.33.409,orientation adjustment block,2021.2.3,Win32,59.95922773,,,,,,,
,,,,,,,,,,,,,,,,,,,,,,-25,47,20,75,49,2,2,-0.081481425,-0.432407464,1,0,0,0.6774,submitButton,10.79444444,-0.169444444,-0.411111111,0,0,0,1,34,94,31,1,47,68977,blockT,180,2022-02-16_21h19.33.409,orientation adjustment block,2021.2.3,Win32,59.95922773,,,,,,,
,,,,,,,,,,,,,,,,,,,,,,-47.77777778,-19,20,75,-24.77777778,5.777777778,5.777777778,-0.161111111,-0.414814843,1,0,0,0.9282,submitButton,10.73251029,-0.154629601,-0.416666667,0,0,0,1,35,95,3,1,19,68977,blockT,180,2022-02-16_21h19.33.409,orientation adjustment block,2021.2.3,Win32,59.95922773,,,,,,,
,,,,,,,,,,,,,,,,,,,,,,48.88888889,26,20,75,35.88888889,9.888888889,9.888888889,-0.133333333,-0.382407464,1,0,0,1.1958,submitButton,10.72222222,-0.133333333,-0.386111111,0,0,0,1,36,96,10,1,26,68977,blockT,180,2022-02-16_21h19.33.409,orientation adjustment block,2021.2.3,Win32,59.95922773,,,,,,,
,,,,,,,,,,,,,,,,,,,,,,-58.33333333,22,20,75,21.66666667,0.333333333,0.333333333,-0.149074046,-0.390740797,1,0,0,1.5282,submitButton,10.59705489,-0.152777778,-0.393518575,0,0,0,1,37,97,6,1,22,68977,blockT,180,2022-02-16_21h19.33.409,orientation adjustment block,2021.2.3,Win32,59.95922773,,,,,,,
,,,,,,,,,,,,,,,,,,,,,,28.88888889,-54,20,75,-53.11111111,0.888888889,0.888888889,-0.115740712,-0.420370399,1,0,0,0.8498,submitButton,10.48148148,-0.113888889,-0.422222222,0,0,0,1,38,98,38,1,54,68977,blockT,180,2022-02-16_21h19.33.409,orientation adjustment block,2021.2.3,Win32,59.95922773,,,,,,,
,,,,,,,,,,,,,,,,,,,,,,61.11111111,38,20,75,219.1111111,1.111111111,1.111111111,0.177777778,-0.25648151,1,0,0,1.5334,submitButton,10.37124183,-0.105555556,-0.394444444,0,0,0,1,39,99,22,1,38,68977,blockT,180,2022-02-16_21h19.33.409,orientation adjustment block,2021.2.3,Win32,59.95922773,,,,,,,
,,,,,,,,,,,,,,,,,,,,,,-67.77777778,25,20,75,37.22222222,12.22222222,12.22222222,0.184259288,-0.284259288,1,0,0,1.1529,submitButton,10.39276486,-0.147222222,-0.373148176,0,0,0,1,40,100,9,1,25,68977,blockT,180,2022-02-16_21h19.33.409,orientation adjustment block,2021.2.3,Win32,59.95922773,,,,,,,
,,,,,,,,,,,,,,,,,,,,,,-23.88888889,-18,20,75,-35.88888889,17.88888889,17.88888889,0.23148151,-0.309259288,1,0,0,0.0108,submitButton,10.4789272,-0.138888889,-0.38148151,0,0,0,1,41,101,2,1,18,68977,blockT,180,2022-02-16_21h19.33.409,orientation adjustment block,2021.2.3,Win32,59.95922773,,,,,,,
,,,,,,,,,,,,,,,,,,,,,,-25.55555556,75,20,75,60.44444444,14.55555556,14.55555556,-0.145370314,-0.394444444,1,0,0,0.6559,submitButton,10.52525253,-0.145370314,-0.394444444,0,0,0,1,42,102,59,1,75,68977,blockT,180,2022-02-16_21h19.33.409,orientation adjustment block,2021.2.3,Win32,59.95922773,,,,,,,
,,,,,,,,,,,,,,,,,,,,,,40.55555556,-68,20,75,-47.44444444,20.55555556,20.55555556,0.440740797,-0.292592621,1,0,0,0.2226,submitButton,10.63795256,-0.191666667,-0.407407464,0,0,0,1,43,103,52,1,68,68977,blockT,180,2022-02-16_21h19.33.409,orientation adjustment block,2021.2.3,Win32,59.95922773,,,,,,,
,,,,,,,,,,,,,,,,,,,,,,-73.33333333,-64,20,75,-232.3333333,11.66666667,11.66666667,-0.17870369,-0.397222222,1,0,0,1.8487,submitButton,10.64938272,0.480555556,-0.388888889,1,0,0,1,44,104,48,1,64,68977,blockT,180,2022-02-16_21h19.33.409,orientation adjustment block,2021.2.3,Win32,59.95922773,continueButton,,,,,,
,,,,,,,,,,,,,,,,,,,,,,45,49,20,75,60,11,11,0.439814843,-0.316666667,1,0,0,0.3564,submitButton,10.65323565,-0.187962935,-0.394444444,0,0,0,1,45,105,33,1,49,68977,blockT,180,2022-02-16_21h19.33.409,orientation adjustment block,2021.2.3,Win32,59.95922773,,,,,,,
,,,,,,,,,,,,,,,,,,,,,,20.55555556,-41,20,75,-20.44444444,20.55555556,20.55555556,-0.131481425,-0.4,1,0,0,1.3507,submitButton,10.76086957,-0.134259203,-0.400925954,0,0,0,1,46,106,25,1,41,68977,blockT,180,2022-02-16_21h19.33.409,orientation adjustment block,2021.2.3,Win32,59.95922773,,,,,,,
,,,,,,,,,,,,,,,,,,,,,,22.77777778,-21,20,75,-38.22222222,17.22222222,17.22222222,-0.152777778,-0.417592621,1,0,0,0.9163,submitButton,10.83034648,-0.150925869,-0.420370399,0,0,0,1,47,107,5,1,21,68977,blockT,180,2022-02-16_21h19.33.409,orientation adjustment block,2021.2.3,Win32,59.95922773,,,,,,,
,,,,,,,,,,,,,,,,,,,,,,55,-52,20,75,-37,15,15,-0.138888889,-0.445370399,1,0,0,0.8996,submitButton,10.87470449,-0.121296268,-0.422222222,0,0,0,1,48,108,36,1,52,68977,blockT,180,2022-02-16_21h19.33.409,orientation adjustment block,2021.2.3,Win32,59.95922773,,,,,,,
,,,,,,,,,,,,,,,,,,,,,,21.66666667,-59,20,75,-43.33333333,15.66666667,15.66666667,0.399074131,-0.286111111,1,0,0,0.2003,submitButton,10.9251462,-0.117592536,-0.410185242,0,0,0,1,49,109,43,1,59,68977,blockT,180,2022-02-16_21h19.33.409,orientation adjustment block,2021.2.3,Win32,59.95922773,,,,,,,
,,,,,,,,,,,,,,,,,,,,,,-26.66666667,-58,20,75,-53.66666667,4.333333333,4.333333333,0.212963019,-0.285185242,1,0,0,0.1,submitButton,10.85648148,-0.122222222,-0.427777778,0,0,0,1,50,110,42,1,58,68977,blockT,180,2022-02-16_21h19.33.409,orientation adjustment block,2021.2.3,Win32,59.95922773,,,,,,,
,,,,,,,,,,,,,,,,,,,,,,50.55555556,34,20,75,43.55555556,9.555555556,9.555555556,0.203703732,-0.287963019,1,0,0,0.9011,submitButton,10.84306987,-0.136111111,-0.412037065,0,0,0,1,51,111,18,1,34,68977,blockT,180,2022-02-16_21h19.33.409,orientation adjustment block,2021.2.3,Win32,59.95922773,,,,,,,
,,,,,,,,,,,,,,,,,,,,,,-34.44444444,43,20,75,35.55555556,7.444444444,7.444444444,-0.130555556,-0.40648151,1,0,0,0.9835,submitButton,10.80839002,-0.130555556,-0.408333333,0,0,0,1,52,112,27,1,43,68977,blockT,180,2022-02-16_21h19.33.409,orientation adjustment block,2021.2.3,Win32,59.95922773,,,,,,,
,,,,,,,,,,,,,,,,,,,,,,-75,31,20,75,36,5,5,-0.136111111,-0.415740797,1,0,0,1.9357,submitButton,10.74971942,-0.136111111,-0.415740797,0,0,0,1,53,113,15,1,31,68977,blockT,180,2022-02-16_21h19.33.409,orientation adjustment block,2021.2.3,Win32,59.95922773,,,,,,,
,,,,,,,,,,,,,,,,,,,,,,-23.33333333,60,20,75,36.66666667,23.33333333,23.33333333,-0.109259203,-0.427777778,1,0,0,0.8838,submitButton,10.87555556,-0.106481425,-0.419444444,0,0,0,1,54,114,44,1,60,68977,blockT,180,2022-02-16_21h19.33.409,orientation adjustment block,2021.2.3,Win32,59.95922773,,,,,,,
,,,,,,,,,,,,,,,,,,,,,,-53.88888889,-44,20,75,-219.8888889,4.111111111,4.111111111,-0.150925869,-0.435185242,1,0,0,1.9826,submitButton,10.80858086,-0.114814758,-0.397222222,0,0,0,1,55,115,28,1,44,68977,blockT,180,2022-02-16_21h19.33.409,orientation adjustment block,2021.2.3,Win32,59.95922773,,,,,,,
,,,,,,,,,,,,,,,,,,,,,,-65.55555556,-51,20,75,-213.5555556,17.44444444,17.44444444,-0.209259245,-0.378703732,1,0,0,1.7503,submitButton,10.87363834,-0.209259245,-0.378703732,0,0,0,1,56,116,35,1,51,68977,blockT,180,2022-02-16_21h19.33.409,orientation adjustment block,2021.2.3,Win32,59.95922773,,,,,,,
,,,,,,,,,,,,,,,,,,,,,,-38.33333333,32,20,75,34.66666667,2.666666667,2.666666667,-0.090740712,-0.386111111,1,0,0,0.482,submitButton,10.79395901,-0.104629601,-0.383333333,0,0,0,1,57,117,16,1,32,68977,blockT,180,2022-02-16_21h19.33.409,orientation adjustment block,2021.2.3,Win32,59.95922773,,,,,,,
,,,,,,,,,,,,,,,,,,,,,,45.55555556,-55,20,75,-69.44444444,14.44444444,14.44444444,0.432407464,-0.282407464,1,0,0,0.6176,submitButton,10.82905983,-0.144444444,-0.380555556,0,0,0,1,58,118,39,1,55,68977,blockT,180,2022-02-16_21h19.33.409,orientation adjustment block,2021.2.3,Win32,59.95922773,,,,,,,
,,,,,,,,,,,,,,,,,,,,,,-72.22222222,-37,20,75,-205.2222222,11.77777778,11.77777778,0.201851908,-0.266666667,1,0,0,0.0665,submitButton,10.83809524,0.298148176,-0.413888889,1,0,0,1,59,119,21,1,37,68977,blockT,180,2022-02-16_21h19.33.409,orientation adjustment block,2021.2.3,Win32,59.95922773,continueButton,,,,,,
,,,,,,,,,,,,,,,,,,,,,,-51.11111111,-18,20,75,-36.11111111,18.11111111,18.11111111,-0.066666667,-0.389814843,1,0,0,0.697,submitButton,10.9067086,-0.124074046,-0.393518575,0,0,0,2,0,120,2,1,18,68977,blockT,180,2022-02-16_21h19.33.409,orientation adjustment block,2021.2.3,Win32,59.95922773,,,,,,,
,,,,,,,,,,,,,,,,,,,,,,-72.77777778,33,20,75,37.22222222,4.222222222,4.222222222,0.200925954,-0.284259288,1,0,0,0.4837,submitButton,10.84423676,-0.138888889,-0.400925954,0,0,0,2,1,121,17,1,33,68977,blockT,180,2022-02-16_21h19.33.409,orientation adjustment block,2021.2.3,Win32,59.95922773,,,,,,,
,,,,,,,,,,,,,,,,,,,,,,40.55555556,-46,20,75,-58.44444444,12.44444444,12.44444444,-0.113888889,-0.403703732,1,0,0,0.6507,submitButton,10.8590535,-0.112036981,-0.402777778,0,0,0,2,2,122,30,1,46,68977,blockT,180,2022-02-16_21h19.33.409,orientation adjustment block,2021.2.3,Win32,59.95922773,,,,,,,
,,,,,,,,,,,,,,,,,,,,,,60.55555556,16,20,75,217.5555556,21.55555556,21.55555556,0.161111111,-0.3,1,0,0,2.4009,submitButton,10.95718654,-0.155555556,-0.425925954,0,0,0,2,3,123,0,1,16,68977,blockT,180,2022-02-16_21h19.33.409,orientation adjustment block,2021.2.3,Win32,59.95922773,,,,,,,
,,,,,,,,,,,,,,,,,,,,,,21.11111111,27,20,75,48.11111111,21.11111111,21.11111111,-0.077777778,-0.403703732,1,0,0,1.0843,submitButton,11.04949495,-0.119444444,-0.40648151,0,0,0,2,4,124,11,1,27,68977,blockT,180,2022-02-16_21h19.33.409,orientation adjustment block,2021.2.3,Win32,59.95922773,,,,,,,
,,,,,,,,,,,,,,,,,,,,,,53.88888889,-62,20,75,-79.11111111,17.11111111,17.11111111,0.432407464,-0.326851908,1,0,0,0.8999,submitButton,11.1041041,-0.197222222,-0.399074131,0,0,0,2,5,125,46,1,62,68977,blockT,180,2022-02-16_21h19.33.409,orientation adjustment block,2021.2.3,Win32,59.95922773,,,,,,,
,,,,,,,,,,,,,,,,,,,,,,-61.66666667,30,20,75,31.33333333,1.333333333,1.333333333,0.204629686,-0.305555556,1,0,0,0.1671,submitButton,11.01686508,-0.165740712,-0.409259288,0,0,0,2,6,126,14,1,30,68977,blockT,180,2022-02-16_21h19.33.409,orientation adjustment block,2021.2.3,Win32,59.95922773,,,,,,,
,,,,,,,,,,,,,,,,,,,,,,-22.22222222,43,20,75,43.77777778,0.777777778,0.777777778,0.218518575,-0.302777778,1,0,0,0.1661,submitButton,10.92625369,-0.106481425,-0.394444444,0,0,0,2,7,127,27,1,43,68977,blockT,180,2022-02-16_21h19.33.409,orientation adjustment block,2021.2.3,Win32,59.95922773,,,,,,,
,,,,,,,,,,,,,,,,,,,,,,62.77777778,-40,20,75,-37.22222222,2.777777778,2.777777778,-0.225,-0.368518575,1,0,0,0.8671,submitButton,10.85477583,-0.162962935,-0.417592621,0,0,0,2,8,128,24,1,40,68977,blockT,180,2022-02-16_21h19.33.409,orientation adjustment block,2021.2.3,Win32,59.95922773,,,,,,,
,,,,,,,,,,,,,,,,,,,,,,-38.88888889,-75,20,75,-246.8888889,8.111111111,8.111111111,-0.176851824,-0.360185242,1,0,0,1.621,submitButton,10.83091787,-0.188888889,-0.404629686,0,0,0,2,9,129,59,1,75,68977,blockT,180,2022-02-16_21h19.33.409,orientation adjustment block,2021.2.3,Win32,59.95922773,,,,,,,
,,,,,,,,,,,,,,,,,,,,,,41.66666667,-48,20,75,-54.33333333,6.333333333,6.333333333,-0.154629601,-0.392592621,1,0,0,1.1329,submitButton,10.79214559,-0.15,-0.394444444,0,0,0,2,10,130,32,1,48,68977,blockT,180,2022-02-16_21h19.33.409,orientation adjustment block,2021.2.3,Win32,59.95922773,,,,,,,
,,,,,,,,,,,,,,,,,,,,,,-35,-35,20,75,-36,1,1,-0.142592536,-0.392592621,1,0,0,0.5167,submitButton,10.70845204,-0.141666667,-0.396296353,0,0,0,2,11,131,19,1,35,68977,blockT,180,2022-02-16_21h19.33.409,orientation adjustment block,2021.2.3,Win32,59.95922773,,,,,,,
,,,,,,,,,,,,,,,,,,,,,,28.33333333,36,20,75,44.33333333,8.333333333,8.333333333,0.383333333,-0.304629686,1,0,0,0.033,submitButton,10.68832392,-0.159259203,-0.393518575,0,0,0,2,12,132,20,1,36,68977,blockT,180,2022-02-16_21h19.33.409,orientation adjustment block,2021.2.3,Win32,59.95922773,,,,,,,
,,,,,,,,,,,,,,,,,,,,,,-47.22222222,53,20,75,50.77777778,2.222222222,2.222222222,-0.107407379,-0.401851908,1,0,0,0.5009,submitButton,10.61718021,-0.108333333,-0.399074131,0,0,0,2,13,133,37,1,53,68977,blockT,180,2022-02-16_21h19.33.409,orientation adjustment block,2021.2.3,Win32,59.95922773,,,,,,,
,,,,,,,,,,,,,,,,,,,,,,-66.11111111,-49,20,75,-216.1111111,12.88888889,12.88888889,-0.160185157,-0.401851908,1,0,0,1.4505,submitButton,10.63611111,0.532407464,-0.402777778,1,0,0,2,14,134,33,1,49,68977,blockT,180,2022-02-16_21h19.33.409,orientation adjustment block,2021.2.3,Win32,59.95922773,continueButton,,,,,,
,,,,,,,,,,,,,,,,,,,,,,29.44444444,70,20,75,44.44444444,25.55555556,25.55555556,0.391666667,-0.253703732,1,0,0,0.5335,submitButton,10.7594123,-0.144444444,-0.390740797,0,0,0,2,15,135,54,1,70,68977,blockT,180,2022-02-16_21h19.33.409,orientation adjustment block,2021.2.3,Win32,59.95922773,,,,,,,
,,,,,,,,,,,,,,,,,,,,,,-46.66666667,-17,20,75,-28.66666667,11.66666667,11.66666667,-0.087036981,-0.416666667,1,0,0,0.5774,submitButton,10.76684882,-0.125,-0.400925954,0,0,0,2,16,136,1,1,17,68977,blockT,180,2022-02-16_21h19.33.409,orientation adjustment block,2021.2.3,Win32,59.95922773,,,,,,,
,,,,,,,,,,,,,,,,,,,,,,58.88888889,-21,20,75,-34.11111111,13.11111111,13.11111111,0.427777778,-0.269444444,1,0,0,0.0137,submitButton,10.78590786,-0.158333333,-0.412037065,0,0,0,2,17,137,5,1,21,68977,blockT,180,2022-02-16_21h19.33.409,orientation adjustment block,2021.2.3,Win32,59.95922773,,,,,,,
,,,,,,,,,,,,,,,,,,,,,,-47.22222222,-44,20,75,-4.222222222,39.77777778,39.77777778,-0.136111111,-0.419444444,1,0,0,1.7827,submitButton,11.01971326,-0.136111111,-0.419444444,0,0,0,2,18,138,28,1,44,68977,blockT,180,2022-02-16_21h19.33.409,orientation adjustment block,2021.2.3,Win32,59.95922773,,,,,,,
,,,,,,,,,,,,,,,,,,,,,,-24.44444444,39,20,75,36.55555556,2.444444444,2.444444444,-0.148148092,-0.389814843,1,0,0,0.5863,submitButton,10.95111111,-0.144444444,-0.387963019,0,0,0,2,19,139,23,1,39,68977,blockT,180,2022-02-16_21h19.33.409,orientation adjustment block,2021.2.3,Win32,59.95922773,,,,,,,
,,,,,,,,,,,,,,,,,,,,,,-21.66666667,-52,20,75,-47.66666667,4.333333333,4.333333333,-0.137962935,-0.417592621,1,0,0,0.7173,submitButton,10.89858907,-0.138888889,-0.419444444,0,0,0,2,20,140,36,1,52,68977,blockT,180,2022-02-16_21h19.33.409,orientation adjustment block,2021.2.3,Win32,59.95922773,,,,,,,
,,,,,,,,,,,,,,,,,,,,,,-55.55555556,29,20,75,33.44444444,4.444444444,4.444444444,-0.150925869,-0.382407464,1,0,0,0.9034,submitButton,10.84776903,-0.153703647,-0.380555556,0,0,0,2,21,141,13,1,29,68977,blockT,180,2022-02-16_21h19.33.409,orientation adjustment block,2021.2.3,Win32,59.95922773,,,,,,,
,,,,,,,,,,,,,,,,,,,,,,43.88888889,45,20,75,52.88888889,7.888888889,7.888888889,-0.17870369,-0.433333333,1,0,0,0.8336,submitButton,10.82465278,-0.115740712,-0.375925954,0,0,0,2,22,142,29,1,45,68977,blockT,180,2022-02-16_21h19.33.409,orientation adjustment block,2021.2.3,Win32,59.95922773,,,,,,,
,,,,,,,,,,,,,,,,,,,,,,-57.22222222,-22,20,75,-47.22222222,25.22222222,25.22222222,-0.138888889,-0.392592621,1,0,0,0.6826,submitButton,10.93626184,-0.140740712,-0.394444444,0,0,0,2,23,143,6,1,22,68977,blockT,180,2022-02-16_21h19.33.409,orientation adjustment block,2021.2.3,Win32,59.95922773,,,,,,,
,,,,,,,,,,,,,,,,,,,,,,-46.11111111,-41,20,75,-42.11111111,1.111111111,1.111111111,0.413888889,-0.302777778,1,0,0,0.2991,submitButton,10.86068376,-0.196296268,-0.415740797,0,0,0,2,24,144,25,1,41,68977,blockT,180,2022-02-16_21h19.33.409,orientation adjustment block,2021.2.3,Win32,59.95922773,,,,,,,
,,,,,,,,,,,,,,,,,,,,,,-56.11111111,-66,20,75,-48.11111111,17.88888889,17.88888889,-0.170370314,-0.430555556,1,0,0,1.3819,submitButton,10.91433418,-0.211111111,-0.421296353,0,0,0,2,25,145,50,1,66,68977,blockT,180,2022-02-16_21h19.33.409,orientation adjustment block,2021.2.3,Win32,59.95922773,,,,,,,
,,,,,,,,,,,,,,,,,,,,,,-52.77777778,-37,20,75,-27.77777778,9.222222222,9.222222222,-0.136111111,-0.410185242,1,0,0,0.7842,submitButton,10.90151515,-0.125925869,-0.403703732,0,0,0,2,26,146,21,1,37,68977,blockT,180,2022-02-16_21h19.33.409,orientation adjustment block,2021.2.3,Win32,59.95922773,,,,,,,
,,,,,,,,,,,,,,,,,,,,,,-46.11111111,-50,20,75,-42.11111111,7.888888889,7.888888889,-0.16851849,-0.348148176,1,0,0,0.6674,submitButton,10.87886383,-0.185185157,-0.387037065,0,0,0,2,27,147,34,1,50,68977,blockT,180,2022-02-16_21h19.33.409,orientation adjustment block,2021.2.3,Win32,59.95922773,,,,,,,
,,,,,,,,,,,,,,,,,,,,,,39.44444444,-24,20,75,-37.55555556,13.55555556,13.55555556,-0.136111111,-0.399074131,1,0,0,1.1344,submitButton,10.89883914,-0.137962935,-0.4,0,0,0,2,28,148,8,1,24,68977,blockT,180,2022-02-16_21h19.33.409,orientation adjustment block,2021.2.3,Win32,59.95922773,,,,,,,
,,,,,,,,,,,,,,,,,,,,,,41.66666667,-74,20,75,-65.33333333,8.666666667,8.666666667,0.234259288,-0.269444444,1,0,0,0.0841,submitButton,10.88230453,0.286111111,-0.407407464,1,0,0,2,29,149,58,1,74,68977,blockT,180,2022-02-16_21h19.33.409,orientation adjustment block,2021.2.3,Win32,59.95922773,continueButton,,,,,,
,,,,,,,,,,,,,,,,,,,,,,-38.33333333,57,20,75,59.66666667,2.666666667,2.666666667,-0.089814758,-0.399074131,1,0,0,0.5672,submitButton,10.82189542,-0.127777778,-0.420370399,0,0,0,2,30,150,41,1,57,68977,blockT,180,2022-02-16_21h19.33.409,orientation adjustment block,2021.2.3,Win32,59.95922773,,,,,,,
,,,,,,,,,,,,,,,,,,,,,,37.77777778,-67,20,75,-60.22222222,6.777777778,6.777777778,-0.172222222,-0.385185242,1,0,0,0.3501,submitButton,10.79237632,-0.172222222,-0.385185242,0,0,0,2,31,151,51,1,67,68977,blockT,180,2022-02-16_21h19.33.409,orientation adjustment block,2021.2.3,Win32,59.95922773,,,,,,,
,,,,,,,,,,,,,,,,,,,,,,29.44444444,65,20,75,251.4444444,6.444444444,6.444444444,-0.173148092,-0.428703732,1,0,0,1.9329,submitButton,10.76086957,-0.142592536,-0.393518575,0,0,0,2,32,152,49,1,65,68977,blockT,180,2022-02-16_21h19.33.409,orientation adjustment block,2021.2.3,Win32,59.95922773,,,,,,,
,,,,,,,,,,,,,,,,,,,,,,28.88888889,-61,20,75,-43.11111111,17.88888889,17.88888889,0.451851908,-0.326851908,1,0,0,0.1524,submitButton,10.81215028,-0.112036981,-0.425,0,0,0,2,33,153,45,1,61,68977,blockT,180,2022-02-16_21h19.33.409,orientation adjustment block,2021.2.3,Win32,59.95922773,,,,,,,
,,,,,,,,,,,,,,,,,,,,,,61.66666667,71,20,75,252.6666667,1.666666667,1.666666667,-0.097222222,-0.423148176,1,0,0,1.6336,submitButton,10.7468254,-0.145370314,-0.402777778,0,0,0,2,34,154,55,1,71,68977,blockT,180,2022-02-16_21h19.33.409,orientation adjustment block,2021.2.3,Win32,59.95922773,,,,,,,
,,,,,,,,,,,,,,,,,,,,,,-52.22222222,54,20,75,54.77777778,0.777777778,0.777777778,0.162037065,-0.310185242,1,0,0,1.0378,submitButton,10.67612293,-0.155555556,-0.375925954,0,0,0,2,35,155,38,1,54,68977,blockT,180,2022-02-16_21h19.33.409,orientation adjustment block,2021.2.3,Win32,59.95922773,,,,,,,
,,,,,,,,,,,,,,,,,,,,,,-25,59,20,75,60,1,1,-0.135185157,-0.429629686,1,0,0,0.65,submitButton,10.60798122,-0.225,-0.400925954,0,0,0,2,36,156,43,1,59,68977,blockT,180,2022-02-16_21h19.33.409,orientation adjustment block,2021.2.3,Win32,59.95922773,,,,,,,
,,,,,,,,,,,,,,,,,,,,,,63.33333333,28,20,75,38.33333333,10.33333333,10.33333333,0.360185242,-0.335185242,1,0,0,0.0692,submitButton,10.60606061,-0.192592578,-0.408333333,0,0,0,2,37,157,12,1,28,68977,blockT,180,2022-02-16_21h19.33.409,orientation adjustment block,2021.2.3,Win32,59.95922773,,,,,,,
,,,,,,,,,,,,,,,,,,,,,,-33.33333333,-20,20,75,-14.33333333,5.666666667,5.666666667,0.193518575,-0.28148151,1,0,0,0.0339,submitButton,10.57175926,-0.217592578,-0.376851908,0,0,0,2,38,158,4,1,20,68977,blockT,180,2022-02-16_21h19.33.409,orientation adjustment block,2021.2.3,Win32,59.95922773,,,,,,,
,,,,,,,,,,,,,,,,,,,,,,-66.11111111,-56,20,75,-60.11111111,4.111111111,4.111111111,0.20648151,-0.298148176,1,0,0,0.2338,submitButton,10.52720307,-0.213888889,-0.380555556,0,0,0,2,39,159,40,1,56,68977,blockT,180,2022-02-16_21h19.33.409,orientation adjustment block,2021.2.3,Win32,59.95922773,,,,,,,
,,,,,,,,,,,,,,,,,,,,,,-20,26,20,75,37,11,11,0.182407464,-0.25,1,0,0,0.437,submitButton,10.5304414,-0.120370314,-0.394444444,0,0,0,2,40,160,10,1,26,68977,blockT,180,2022-02-16_21h19.33.409,orientation adjustment block,2021.2.3,Win32,59.95922773,,,,,,,
,,,,,,,,,,,,,,,,,,,,,,-60.55555556,-58,20,75,-48.55555556,9.444444444,9.444444444,0.203703732,-0.3,1,0,0,0.0328,submitButton,10.52305367,-0.158333333,-0.388888889,0,0,0,2,41,161,42,1,58,68977,blockT,180,2022-02-16_21h19.33.409,orientation adjustment block,2021.2.3,Win32,59.95922773,,,,,,,
,,,,,,,,,,,,,,,,,,,,,,43.88888889,-19,20,75,-32.11111111,13.11111111,13.11111111,0.387963019,-0.279629686,1,0,0,0.3844,submitButton,10.54054054,-0.144444444,-0.407407464,0,0,0,2,42,162,3,1,19,68977,blockT,180,2022-02-16_21h19.33.409,orientation adjustment block,2021.2.3,Win32,59.95922773,,,,,,,
,,,,,,,,,,,,,,,,,,,,,,52.77777778,25,20,75,40.77777778,15.77777778,15.77777778,0.380555556,-0.264814843,1,0,0,0.3325,submitButton,10.57568978,-0.131481425,-0.425925954,0,0,0,2,43,163,9,1,25,68977,blockT,180,2022-02-16_21h19.33.409,orientation adjustment block,2021.2.3,Win32,59.95922773,,,,,,,
,,,,,,,,,,,,,,,,,,,,,,70.55555556,51,20,75,215.5555556,15.44444444,15.44444444,-0.134259203,-0.384259288,1,0,0,1.5524,submitButton,10.60814815,0.463888889,-0.399074131,1,0,0,2,44,164,35,1,51,68977,blockT,180,2022-02-16_21h19.33.409,orientation adjustment block,2021.2.3,Win32,59.95922773,continueButton,,,,,,
,,,,,,,,,,,,,,,,,,,,,,73.88888889,-72,20,75,-56.11111111,15.88888889,15.88888889,-0.177777778,-0.398148176,1,0,0,1.0966,submitButton,10.64311994,-0.17870369,-0.4,0,0,0,2,45,165,56,1,72,68977,blockT,180,2022-02-16_21h19.33.409,orientation adjustment block,2021.2.3,Win32,59.95922773,,,,,,,
,,,,,,,,,,,,,,,,,,,,,,33.88888889,-47,20,75,-53.11111111,6.111111111,6.111111111,-0.158333333,-0.418518575,1,0,0,0.5998,submitButton,10.61330409,-0.161111111,-0.419444444,0,0,0,2,46,166,31,1,47,68977,blockT,180,2022-02-16_21h19.33.409,orientation adjustment block,2021.2.3,Win32,59.95922773,,,,,,,
,,,,,,,,,,,,,,,,,,,,,,-66.66666667,34,20,75,36.33333333,2.333333333,2.333333333,-0.137962935,-0.419444444,1,0,0,0.6512,submitButton,10.55918664,-0.141666667,-0.419444444,0,0,0,2,47,167,18,1,34,68977,blockT,180,2022-02-16_21h19.33.409,orientation adjustment block,2021.2.3,Win32,59.95922773,,,,,,,
,,,,,,,,,,,,,,,,,,,,,,65,38,20,75,246,28,28,0.214814843,-0.352777778,1,0,0,0.0682,submitButton,10.67243867,-0.112036981,-0.407407464,0,0,0,2,48,168,22,1,38,68977,blockT,180,2022-02-16_21h19.33.409,orientation adjustment block,2021.2.3,Win32,59.95922773,,,,,,,
,,,,,,,,,,,,,,,,,,,,,,-36.66666667,-73,20,75,-257.6666667,4.666666667,4.666666667,-0.164814758,-0.407407464,1,0,0,2.1813,submitButton,10.63369176,-0.157407379,-0.410185242,0,0,0,2,49,169,57,1,73,68977,blockT,180,2022-02-16_21h19.33.409,orientation adjustment block,2021.2.3,Win32,59.95922773,,,,,,,
,,,,,,,,,,,,,,,,,,,,,,24.44444444,55,20,75,42.44444444,12.55555556,12.55555556,0.391666667,-0.289814843,1,0,0,0.4441,submitButton,10.6460114,-0.161111111,-0.424074131,0,0,0,2,50,170,39,1,55,68977,blockT,180,2022-02-16_21h19.33.409,orientation adjustment block,2021.2.3,Win32,59.95922773,,,,,,,
,,,,,,,,,,,,,,,,,,,,,,-49.44444444,31,20,75,36.55555556,5.555555556,5.555555556,-0.167592536,-0.395370399,1,0,0,1.0346,submitButton,10.61358811,-0.174074046,-0.393518575,0,0,0,2,51,171,15,1,31,68977,blockT,180,2022-02-16_21h19.33.409,orientation adjustment block,2021.2.3,Win32,59.95922773,,,,,,,
,,,,,,,,,,,,,,,,,,,,,,61.11111111,23,20,75,22.11111111,0.888888889,0.888888889,-0.127777778,-0.394444444,1,0,0,1.3525,submitButton,10.55203938,-0.128703647,-0.394444444,0,0,0,2,52,172,7,1,23,68977,blockT,180,2022-02-16_21h19.33.409,orientation adjustment block,2021.2.3,Win32,59.95922773,,,,,,,
,,,,,,,,,,,,,,,,,,,,,,-20,60,20,75,59,1,1,0.227777778,-0.337037065,1,0,0,0.1173,submitButton,10.49196366,-0.128703647,-0.418518575,0,0,0,2,53,173,44,1,60,68977,blockT,180,2022-02-16_21h19.33.409,orientation adjustment block,2021.2.3,Win32,59.95922773,,,,,,,
,,,,,,,,,,,,,,,,,,,,,,21.11111111,-68,20,75,-64.88888889,3.111111111,3.111111111,0.121296353,-0.313888889,1,0,0,0.2344,submitButton,10.44583333,-0.150925869,-0.426851908,0,0,0,2,54,174,52,1,68,68977,blockT,180,2022-02-16_21h19.33.409,orientation adjustment block,2021.2.3,Win32,59.95922773,,,,,,,
,,,,,,,,,,,,,,,,,,,,,,61.66666667,69,20,75,225.6666667,23.33333333,23.33333333,-0.135185157,-0.419444444,1,0,0,1.578,submitButton,10.52587992,-0.137036981,-0.419444444,0,0,0,2,55,175,53,1,69,68977,blockT,180,2022-02-16_21h19.33.409,orientation adjustment block,2021.2.3,Win32,59.95922773,,,,,,,
,,,,,,,,,,,,,,,,,,,,,,42.22222222,-42,20,75,-48.77777778,6.777777778,6.777777778,-0.188888889,-0.373148176,1,0,0,0.8293,submitButton,10.50274348,-0.198148134,-0.375,0,0,0,2,56,176,26,1,42,68977,blockT,180,2022-02-16_21h19.33.409,orientation adjustment block,2021.2.3,Win32,59.95922773,,,,,,,
,,,,,,,,,,,,,,,,,,,,,,-53.33333333,63,20,75,65.66666667,2.666666667,2.666666667,0.198148176,-0.278703732,1,0,0,0.1219,submitButton,10.45466939,-0.165740712,-0.411111111,0,0,0,2,57,177,47,1,63,68977,blockT,180,2022-02-16_21h19.33.409,orientation adjustment block,2021.2.3,Win32,59.95922773,,,,,,,
,,,,,,,,,,,,,,,,,,,,,,60,-64,20,75,-76,12,12,-0.144444444,-0.374074131,1,0,0,0.9496,submitButton,10.46409214,-0.140740712,-0.376851908,0,0,0,2,58,178,48,1,64,68977,blockT,180,2022-02-16_21h19.33.409,orientation adjustment block,2021.2.3,Win32,59.95922773,,,,,,,
,,,,,,,,,,,,,,,,,,,,,,-61.11111111,32,20,75,47.88888889,15.88888889,15.88888889,-0.128703647,-0.391666667,1,0,0,0.7779,submitButton,10.4969697,-0.124074046,-0.392592621,0,0,0,2,59,179,16,1,32,68977,blockT,180,2022-02-16_21h19.33.409,orientation adjustment block,2021.2.3,Win32,59.95922773,,,,,,,
,,,,,,,,,,,,,,,,,,,,,,,,,,,,,,,,,,,,,,,,,,,,,,,,68977,blockT,180,2022-02-16_21h19.33.409,orientation adjustment block,2021.2.3,Win32,59.95922773,,0.241666667,-0.414814843,1,0,0,EndButtonTxt
