consentMouse1.x,consentMouse1.y,consentMouse1.leftButton,consentMouse1.midButton,consentMouse1.rightButton,consentMouse1.clicked_name,consent_Mouse.x,consent_Mouse.y,consent_Mouse.leftButton,consent_Mouse.midButton,consent_Mouse.rightButton,consent_Mouse.clicked_name,startMouse.x,startMouse.y,startMouse.leftButton,startMouse.midButton,startMouse.rightButton,startMouse_2.x,startMouse_2.y,startMouse_2.leftButton,startMouse_2.midButton,startMouse_2.rightButton,start_distance,fixedOri,minimalDistance,maxOri,this_ori,accuracy,presented_accuracy,submitMouse.x,submitMouse.y,submitMouse.leftButton,submitMouse.midButton,submitMouse.rightButton,submitMouse.time,submitMouse.clicked_name,block_accuracy,continueMouse.x,continueMouse.y,continueMouse.leftButton,continueMouse.midButton,continueMouse.rightButton,trials.thisRepN,trials.thisTrialN,trials.thisN,trials.thisIndex,trials.ran,startOri,participant,condition,nTrials,date,expName,psychopyVersion,OS,frameRate,continueMouse.clicked_name,EndButtonMouse.x,EndButtonMouse.y,EndButtonMouse.leftButton,EndButtonMouse.midButton,EndButtonMouse.rightButton,EndButtonMouse.clicked_name
0.315740777,-0.390740824,1,0,0,consent_button1,0.364814852,-0.389814841,1,0,0,consent_button,0.370370408,-0.259259282,1,0,0,0.121296326,-0.299074154,1,0,0,39.44444444,-49,20,75,3.444444444,52.44444444,52.44444444,0.234259293,-0.303703728,1,0,0,1.9481,submitButton,52.44444444,0.130555586,-0.361111137,0,0,0,0,0,0,33,1,49,69094,blockT,180,2022-02-15_10h45.54.557,orientation adjustment block,2021.2.3,Win32,60.28454304,,,,,,,
,,,,,,,,,,,,,,,,,,,,,,-63.88888889,20,20,75,21.11111111,1.111111111,1.111111111,0.217592626,-0.286111135,1,0,0,0.1329,submitButton,26.77777778,0.16388892,-0.297222246,0,0,0,0,1,1,4,1,20,69094,blockT,180,2022-02-15_10h45.54.557,orientation adjustment block,2021.2.3,Win32,60.28454304,,,,,,,
,,,,,,,,,,,,,,,,,,,,,,-45,39,20,75,30,9,9,-0.293518501,-0.414814842,1,0,0,1.7496,submitButton,20.85185185,0.099074104,-0.30555558,0,0,0,0,2,2,23,1,39,69094,blockT,180,2022-02-15_10h45.54.557,orientation adjustment block,2021.2.3,Win32,60.28454304,,,,,,,
,,,,,,,,,,,,,,,,,,,,,,-30.55555556,-19,20,75,-24.55555556,5.555555556,5.555555556,0.210185218,-0.297222246,1,0,0,0.1837,submitButton,5.555555556,-0.196296276,-0.404629713,0,0,0,0,3,3,3,1,19,69094,blockT,180,2022-02-15_10h45.54.557,orientation adjustment block,2021.2.3,Win32,60.28454304,,,,,,,
,,,,,,,,,,,,,,,,,,,,,,-30,25,20,75,18,7,7,-0.19074072,-0.404629713,1,0,0,1.5657,submitButton,6.277777778,-0.087036957,-0.364814841,0,0,0,0,4,4,9,1,25,69094,blockT,180,2022-02-15_10h45.54.557,orientation adjustment block,2021.2.3,Win32,60.28454304,,,,,,,
,,,,,,,,,,,,,,,,,,,,,,-21.11111111,-74,20,75,-83.11111111,9.111111111,9.111111111,0.165740772,-0.328703728,1,0,0,0.4334,submitButton,7.222222222,-0.118518496,-0.368518601,0,0,0,0,5,5,58,1,74,69094,blockT,180,2022-02-15_10h45.54.557,orientation adjustment block,2021.2.3,Win32,60.28454304,,,,,,,
,,,,,,,,,,,,,,,,,,,,,,-73.88888889,-64,20,75,-240.8888889,3.111111111,3.111111111,0.371296334,-0.29166669,1,0,0,0.3329,submitButton,3.111111111,0.041666694,-0.319444469,0,0,0,0,6,6,48,1,64,69094,blockT,180,2022-02-15_10h45.54.557,orientation adjustment block,2021.2.3,Win32,60.28454304,,,,,,,
,,,,,,,,,,,,,,,,,,,,,,28.88888889,-31,20,75,-28.11111111,2.888888889,2.888888889,0.393518557,-0.274074154,1,0,0,0.7832,submitButton,3,-0.153703625,-0.399074157,0,0,0,0,7,7,15,1,31,69094,blockT,180,2022-02-15_10h45.54.557,orientation adjustment block,2021.2.3,Win32,60.28454304,,,,,,,
,,,,,,,,,,,,,,,,,,,,,,68.33333333,-43,20,75,-19.66666667,23.33333333,23.33333333,0.350000037,-0.262963042,1,0,0,0.0998,submitButton,9.777777778,-0.014814732,-0.33055558,0,0,0,0,8,8,27,1,43,69094,blockT,180,2022-02-15_10h45.54.557,orientation adjustment block,2021.2.3,Win32,60.28454304,,,,,,,
,,,,,,,,,,,,,,,,,,,,,,-72.77777778,-30,20,75,-219.7777778,9.777777778,9.777777778,0.398148187,-0.274074154,1,0,0,1.033,submitButton,9.777777778,-0.077777754,-0.407407491,0,0,0,0,9,9,14,1,30,69094,blockT,180,2022-02-15_10h45.54.557,orientation adjustment block,2021.2.3,Win32,60.28454304,,,,,,,
,,,,,,,,,,,,,,,,,,,,,,20.55555556,52,20,75,72.55555556,20.55555556,20.55555556,-0.22037035,-0.406481508,1,0,0,1.0329,submitButton,15.16666667,0.091666696,-0.307407488,0,0,0,0,10,10,36,1,52,69094,blockT,180,2022-02-15_10h45.54.557,orientation adjustment block,2021.2.3,Win32,60.28454304,,,,,,,
,,,,,,,,,,,,,,,,,,,,,,72.22222222,-72,20,75,-62.77777778,9.222222222,9.222222222,0.36759263,-0.275000023,1,0,0,0.0999,submitButton,13.18518519,-0.092592512,-0.403703731,0,0,0,0,11,11,56,1,72,69094,blockT,180,2022-02-15_10h45.54.557,orientation adjustment block,2021.2.3,Win32,60.28454304,,,,,,,
,,,,,,,,,,,,,,,,,,,,,,-32.77777778,42,20,75,26.22222222,15.77777778,15.77777778,0.380555593,-0.321296377,1,0,0,1.067,submitButton,15.77777778,0.124074104,-0.334259284,0,0,0,0,12,12,26,1,42,69094,blockT,180,2022-02-15_10h45.54.557,orientation adjustment block,2021.2.3,Win32,60.28454304,,,,,,,
,,,,,,,,,,,,,,,,,,,,,,-35,47,20,75,35,12,12,-0.213888869,-0.460185214,1,0,0,0.8499,submitButton,13.88888889,-0.016666641,-0.375925952,0,0,0,0,13,13,31,1,47,69094,blockT,180,2022-02-15_10h45.54.557,orientation adjustment block,2021.2.3,Win32,60.28454304,,,,,,,
,,,,,,,,,,,,,,,,,,,,,,-30.55555556,-23,20,75,-27.55555556,4.555555556,4.555555556,0.15925929,-0.315740822,1,0,0,0.7001,submitButton,10.77777778,0.282407442,-0.404629713,1,0,0,0,14,14,7,1,23,69094,blockT,180,2022-02-15_10h45.54.557,orientation adjustment block,2021.2.3,Win32,60.28454304,continueButton,,,,,,
,,,,,,,,,,,,,,,,,,,,,,60.55555556,-29,20,75,-27.44444444,1.555555556,1.555555556,0.395370409,-0.268518598,1,0,0,0.6322,submitButton,1.555555556,-0.031481399,-0.323148173,0,0,0,0,15,15,13,1,29,69094,blockT,180,2022-02-15_10h45.54.557,orientation adjustment block,2021.2.3,Win32,60.28454304,,,,,,,
,,,,,,,,,,,,,,,,,,,,,,-34.44444444,-70,20,75,-61.44444444,8.555555556,8.555555556,0.225925959,-0.295370394,1,0,0,2.1499,submitButton,5.055555556,0.13888892,-0.354629712,0,0,0,0,16,16,54,1,70,69094,blockT,180,2022-02-15_10h45.54.557,orientation adjustment block,2021.2.3,Win32,60.28454304,,,,,,,
,,,,,,,,,,,,,,,,,,,,,,-26.11111111,-36,20,75,-48.11111111,12.11111111,12.11111111,-0.162962941,-0.438888917,1,0,0,1.15,submitButton,7.407407407,0.169444476,-0.26203706,0,0,0,0,17,17,20,1,36,69094,blockT,180,2022-02-15_10h45.54.557,orientation adjustment block,2021.2.3,Win32,60.28454304,,,,,,,
,,,,,,,,,,,,,,,,,,,,,,-46.66666667,18,20,75,13.33333333,4.666666667,4.666666667,-0.149999978,-0.381481508,1,0,0,1.85,submitButton,6.722222222,-0.042592511,-0.325925951,0,0,0,0,18,18,2,1,18,69094,blockT,180,2022-02-15_10h45.54.557,orientation adjustment block,2021.2.3,Win32,60.28454304,,,,,,,
,,,,,,,,,,,,,,,,,,,,,,75,-22,20,75,-22,0,0,0.358333371,-0.28703706,1,0,0,0.0502,submitButton,5.377777778,0.277777813,-0.29166669,0,0,0,0,19,19,6,1,22,69094,blockT,180,2022-02-15_10h45.54.557,orientation adjustment block,2021.2.3,Win32,60.28454304,,,,,,,
,,,,,,,,,,,,,,,,,,,,,,32.77777778,58,20,75,76.77777778,18.77777778,18.77777778,0.396296335,-0.275925949,1,0,0,0.5828,submitButton,7.611111111,0.28518522,-0.22685193,0,0,0,0,20,20,42,1,58,69094,blockT,180,2022-02-15_10h45.54.557,orientation adjustment block,2021.2.3,Win32,60.28454304,,,,,,,
,,,,,,,,,,,,,,,,,,,,,,66.66666667,65,20,75,231.6666667,13.33333333,13.33333333,0.248148182,-0.289814838,1,0,0,1.7832,submitButton,8.428571429,0.262962997,-0.250925948,0,0,0,0,21,21,49,1,65,69094,blockT,180,2022-02-15_10h45.54.557,orientation adjustment block,2021.2.3,Win32,60.28454304,,,,,,,
,,,,,,,,,,,,,,,,,,,,,,-60.55555556,-48,20,75,-65.55555556,17.55555556,17.55555556,0.217592626,-0.312037061,1,0,0,0.4333,submitButton,9.569444444,0.186111143,-0.333333358,0,0,0,0,22,22,32,1,48,69094,blockT,180,2022-02-15_10h45.54.557,orientation adjustment block,2021.2.3,Win32,60.28454304,,,,,,,
,,,,,,,,,,,,,,,,,,,,,,73.88888889,-45,20,75,-34.11111111,10.88888889,10.88888889,0.444444484,-0.275000023,1,0,0,0.2165,submitButton,9.716049383,0.131481512,-0.298148172,0,0,0,0,23,23,29,1,45,69094,blockT,180,2022-02-15_10h45.54.557,orientation adjustment block,2021.2.3,Win32,60.28454304,,,,,,,
,,,,,,,,,,,,,,,,,,,,,,46.66666667,38,20,75,62.66666667,24.66666667,24.66666667,0.380555593,-0.264814838,1,0,0,0.0996,submitButton,11.21111111,0.230555589,-0.306481506,0,0,0,0,24,24,22,1,38,69094,blockT,180,2022-02-15_10h45.54.557,orientation adjustment block,2021.2.3,Win32,60.28454304,,,,,,,
,,,,,,,,,,,,,,,,,,,,,,69.44444444,26,20,75,58.44444444,32.44444444,32.44444444,0.191666699,-0.323148173,1,0,0,1.332,submitButton,13.14141414,0.240740774,-0.227777799,0,0,0,0,25,25,10,1,26,69094,blockT,180,2022-02-15_10h45.54.557,orientation adjustment block,2021.2.3,Win32,60.28454304,,,,,,,
,,,,,,,,,,,,,,,,,,,,,,-71.11111111,44,20,75,30.88888889,13.11111111,13.11111111,0.149074105,-0.270370393,1,0,0,0.0165,submitButton,13.13888889,-0.061111086,-0.337963044,0,0,0,0,26,26,28,1,44,69094,blockT,180,2022-02-15_10h45.54.557,orientation adjustment block,2021.2.3,Win32,60.28454304,,,,,,,
,,,,,,,,,,,,,,,,,,,,,,25,-63,20,75,-64,1,1,0.296296332,-0.293518599,1,0,0,0.2165,submitButton,12.20512821,-0.250925907,-0.395370397,0,0,0,0,27,27,47,1,63,69094,blockT,180,2022-02-15_10h45.54.557,orientation adjustment block,2021.2.3,Win32,60.28454304,,,,,,,
,,,,,,,,,,,,,,,,,,,,,,26.66666667,28,20,75,41.66666667,13.66666667,13.66666667,0.437037077,-0.249074153,1,0,0,0.399,submitButton,12.30952381,-0.139814736,-0.389814841,0,0,0,0,28,28,12,1,28,69094,blockT,180,2022-02-15_10h45.54.557,orientation adjustment block,2021.2.3,Win32,60.28454304,,,,,,,
,,,,,,,,,,,,,,,,,,,,,,73.88888889,67,20,75,237.8888889,9.111111111,9.111111111,0.192592625,-0.318518599,1,0,0,0.1334,submitButton,12.0962963,0.345370407,-0.389814841,1,0,0,0,29,29,51,1,67,69094,blockT,180,2022-02-15_10h45.54.557,orientation adjustment block,2021.2.3,Win32,60.28454304,continueButton,,,,,,
,,,,,,,,,,,,,,,,,,,,,,29.44444444,-40,20,75,-34.55555556,5.444444444,5.444444444,-0.146296274,-0.391666693,1,0,0,1.0838,submitButton,11.68055556,0.113888919,-0.312963044,0,0,0,0,30,30,24,1,40,69094,blockT,180,2022-02-15_10h45.54.557,orientation adjustment block,2021.2.3,Win32,60.28454304,,,,,,,
,,,,,,,,,,,,,,,,,,,,,,68.88888889,-35,20,75,-26.11111111,8.888888889,8.888888889,0.353703741,-0.264814838,1,0,0,0.6664,submitButton,11.51633987,0.101851881,-0.350925951,0,0,0,0,31,31,19,1,35,69094,blockT,180,2022-02-15_10h45.54.557,orientation adjustment block,2021.2.3,Win32,60.28454304,,,,,,,
,,,,,,,,,,,,,,,,,,,,,,-33.88888889,16,20,75,26.11111111,10.11111111,10.11111111,0.151851883,-0.315740822,1,0,0,1.283,submitButton,11.4382716,0.105555585,-0.298148172,0,0,0,0,32,32,0,1,16,69094,blockT,180,2022-02-15_10h45.54.557,orientation adjustment block,2021.2.3,Win32,60.28454304,,,,,,,
,,,,,,,,,,,,,,,,,,,,,,46.66666667,-69,20,75,-65.33333333,3.666666667,3.666666667,-0.199999979,-0.373148174,1,0,0,1.533,submitButton,11.02923977,0.152777809,-0.281481505,0,0,0,0,33,33,53,1,69,69094,blockT,180,2022-02-15_10h45.54.557,orientation adjustment block,2021.2.3,Win32,60.28454304,,,,,,,
,,,,,,,,,,,,,,,,,,,,,,41.66666667,-33,20,75,-38.33333333,5.333333333,5.333333333,0.363888926,-0.277777801,1,0,0,0.7656,submitButton,10.74444444,0.033333361,-0.296296377,0,0,0,0,34,34,17,1,33,69094,blockT,180,2022-02-15_10h45.54.557,orientation adjustment block,2021.2.3,Win32,60.28454304,,,,,,,
,,,,,,,,,,,,,,,,,,,,,,51.11111111,68,20,75,75.11111111,7.111111111,7.111111111,0.192592625,-0.316666691,1,0,0,1.5998,submitButton,10.57142857,0.088888918,-0.303703728,0,0,0,0,35,35,52,1,68,69094,blockT,180,2022-02-15_10h45.54.557,orientation adjustment block,2021.2.3,Win32,60.28454304,,,,,,,
,,,,,,,,,,,,,,,,,,,,,,40.55555556,-75,20,75,-67.44444444,7.555555556,7.555555556,0.380555593,-0.276851932,1,0,0,0.0334,submitButton,10.43434343,0.175000032,-0.351851934,0,0,0,0,36,36,59,1,75,69094,blockT,180,2022-02-15_10h45.54.557,orientation adjustment block,2021.2.3,Win32,60.28454304,,,,,,,
,,,,,,,,,,,,,,,,,,,,,,67.77777778,60,20,75,73.77777778,13.77777778,13.77777778,0.365740778,-0.319444469,1,0,0,0.1501,submitButton,10.57971014,0.133333364,-0.341666692,0,0,0,0,37,37,44,1,60,69094,blockT,180,2022-02-15_10h45.54.557,orientation adjustment block,2021.2.3,Win32,60.28454304,,,,,,,
,,,,,,,,,,,,,,,,,,,,,,-60.55555556,-34,20,75,-61.55555556,27.55555556,27.55555556,0.146296327,-0.318518599,1,0,0,0.3829,submitButton,11.28703704,0.124074104,-0.348148173,0,0,0,0,38,38,18,1,34,69094,blockT,180,2022-02-15_10h45.54.557,orientation adjustment block,2021.2.3,Win32,60.28454304,,,,,,,
,,,,,,,,,,,,,,,,,,,,,,39.44444444,27,20,75,52.44444444,25.44444444,25.44444444,-0.128703625,-0.364814841,1,0,0,0.9664,submitButton,11.85333333,0.29444448,-0.293518599,0,0,0,0,39,39,11,1,27,69094,blockT,180,2022-02-15_10h45.54.557,orientation adjustment block,2021.2.3,Win32,60.28454304,,,,,,,
,,,,,,,,,,,,,,,,,,,,,,-41.66666667,-24,20,75,-31.66666667,7.666666667,7.666666667,0.232407441,-0.30555558,1,0,0,0.1172,submitButton,11.69230769,0.180555587,-0.349074156,0,0,0,0,40,40,8,1,24,69094,blockT,180,2022-02-15_10h45.54.557,orientation adjustment block,2021.2.3,Win32,60.28454304,,,,,,,
,,,,,,,,,,,,,,,,,,,,,,-43.88888889,-53,20,75,-65.88888889,12.88888889,12.88888889,0.194444477,-0.332407489,1,0,0,0.0505,submitButton,11.73662551,0.069444473,-0.375925952,0,0,0,0,41,41,37,1,53,69094,blockT,180,2022-02-15_10h45.54.557,orientation adjustment block,2021.2.3,Win32,60.28454304,,,,,,,
,,,,,,,,,,,,,,,,,,,,,,53.33333333,-73,20,75,-70.66666667,2.333333333,2.333333333,0.368518556,-0.287963043,1,0,0,0.4833,submitButton,11.40079365,0.109259289,-0.38333336,0,0,0,0,42,42,57,1,73,69094,blockT,180,2022-02-15_10h45.54.557,orientation adjustment block,2021.2.3,Win32,60.28454304,,,,,,,
,,,,,,,,,,,,,,,,,,,,,,40.55555556,-71,20,75,-62.44444444,8.555555556,8.555555556,-0.199074054,-0.407407491,1,0,0,1.3666,submitButton,11.30268199,0.250000034,-0.314814839,0,0,0,0,43,43,55,1,71,69094,blockT,180,2022-02-15_10h45.54.557,orientation adjustment block,2021.2.3,Win32,60.28454304,,,,,,,
,,,,,,,,,,,,,,,,,,,,,,-51.66666667,-50,20,75,-55.66666667,5.666666667,5.666666667,0.186111143,-0.309259283,1,0,0,0.1669,submitButton,11.11481481,0.457407448,-0.391666693,1,0,0,0,44,44,34,1,50,69094,blockT,180,2022-02-15_10h45.54.557,orientation adjustment block,2021.2.3,Win32,60.28454304,continueButton,,,,,,
,,,,,,,,,,,,,,,,,,,,,,-63.33333333,-21,20,75,-43.33333333,22.33333333,22.33333333,0.16851855,-0.303703728,1,0,0,0.6331,submitButton,11.47670251,0.214814848,-0.306481506,0,0,0,0,45,45,5,1,21,69094,blockT,180,2022-02-15_10h45.54.557,orientation adjustment block,2021.2.3,Win32,60.28454304,,,,,,,
,,,,,,,,,,,,,,,,,,,,,,20.55555556,-56,20,75,-48.44444444,7.555555556,7.555555556,0.374074112,-0.277777801,1,0,0,0.0153,submitButton,11.35416667,0.306481517,-0.307407488,0,0,0,0,46,46,40,1,56,69094,blockT,180,2022-02-15_10h45.54.557,orientation adjustment block,2021.2.3,Win32,60.28454304,,,,,,,
,,,,,,,,,,,,,,,,,,,,,,-29.44444444,-17,20,75,-2.444444444,14.55555556,14.55555556,0.190740773,-0.269444467,1,0,0,0.1166,submitButton,11.45117845,0.162037068,-0.318518599,0,0,0,0,47,47,1,1,17,69094,blockT,180,2022-02-15_10h45.54.557,orientation adjustment block,2021.2.3,Win32,60.28454304,,,,,,,
,,,,,,,,,,,,,,,,,,,,,,39.44444444,-46,20,75,-37.55555556,8.444444444,8.444444444,-0.209259239,-0.381481508,1,0,0,1.1663,submitButton,11.3627451,0.179629661,-0.323148173,0,0,0,0,48,48,30,1,46,69094,blockT,180,2022-02-15_10h45.54.557,orientation adjustment block,2021.2.3,Win32,60.28454304,,,,,,,
,,,,,,,,,,,,,,,,,,,,,,-26.66666667,-37,20,75,-43.66666667,6.666666667,6.666666667,-0.207407387,-0.384259286,1,0,0,0.6501,submitButton,11.22857143,0.199074106,-0.298148172,0,0,0,0,49,49,21,1,37,69094,blockT,180,2022-02-15_10h45.54.557,orientation adjustment block,2021.2.3,Win32,60.28454304,,,,,,,
,,,,,,,,,,,,,,,,,,,,,,65,55,20,75,63,8,8,0.394444483,-0.28703706,1,0,0,0.3499,submitButton,11.13888889,0.105555585,-0.319444469,0,0,0,0,50,50,39,1,55,69094,blockT,180,2022-02-15_10h45.54.557,orientation adjustment block,2021.2.3,Win32,60.28454304,,,,,,,
,,,,,,,,,,,,,,,,,,,,,,-31.11111111,57,20,75,48.88888889,8.111111111,8.111111111,-0.224074054,-0.424074158,1,0,0,1.2663,submitButton,11.05705706,0.013888916,-0.341666692,0,0,0,0,51,51,41,1,57,69094,blockT,180,2022-02-15_10h45.54.557,orientation adjustment block,2021.2.3,Win32,60.28454304,,,,,,,
,,,,,,,,,,,,,,,,,,,,,,37.77777778,-41,20,75,-36.22222222,4.777777778,4.777777778,0.397222261,-0.283333357,1,0,0,0.3331,submitButton,10.89181287,0.311111147,-0.33981484,0,0,0,0,52,52,25,1,41,69094,blockT,180,2022-02-15_10h45.54.557,orientation adjustment block,2021.2.3,Win32,60.28454304,,,,,,,
,,,,,,,,,,,,,,,,,,,,,,67.77777778,-54,20,75,-50.22222222,3.777777778,3.777777778,0.366666704,-0.302777802,1,0,0,0.3658,submitButton,10.70940171,-0.153703625,-0.390740824,0,0,0,0,53,53,38,1,54,69094,blockT,180,2022-02-15_10h45.54.557,orientation adjustment block,2021.2.3,Win32,60.28454304,,,,,,,
,,,,,,,,,,,,,,,,,,,,,,-61.66666667,-61,20,75,-66.66666667,5.666666667,5.666666667,0.21203707,-0.338888914,1,0,0,0.1499,submitButton,10.58333333,0.232407441,-0.306481506,0,0,0,0,54,54,45,1,61,69094,blockT,180,2022-02-15_10h45.54.557,orientation adjustment block,2021.2.3,Win32,60.28454304,,,,,,,
,,,,,,,,,,,,,,,,,,,,,,40.55555556,-32,20,75,-24.44444444,7.555555556,7.555555556,-0.122222199,-0.390740824,1,0,0,1.2495,submitButton,10.50948509,0.365740778,-0.272222245,0,0,0,0,55,55,16,1,32,69094,blockT,180,2022-02-15_10h45.54.557,orientation adjustment block,2021.2.3,Win32,60.28454304,,,,,,,
,,,,,,,,,,,,,,,,,,,,,,64.44444444,66,20,75,64.44444444,1.555555556,1.555555556,0.409259298,-0.279629709,1,0,0,0.8664,submitButton,10.2962963,0.334259296,-0.30092595,0,0,0,0,56,56,50,1,66,69094,blockT,180,2022-02-15_10h45.54.557,orientation adjustment block,2021.2.3,Win32,60.28454304,,,,,,,
,,,,,,,,,,,,,,,,,,,,,,54.44444444,51,20,75,60.44444444,9.444444444,9.444444444,0.391666705,-0.300000024,1,0,0,0.1667,submitButton,10.27648579,-0.178703683,-0.410185269,0,0,0,0,57,57,35,1,51,69094,blockT,180,2022-02-15_10h45.54.557,orientation adjustment block,2021.2.3,Win32,60.28454304,,,,,,,
,,,,,,,,,,,,,,,,,,,,,,55.55555556,62,20,75,76.55555556,14.55555556,14.55555556,-0.236111092,-0.411111138,1,0,0,1.9663,submitButton,10.37373737,0.272222257,-0.319444469,0,0,0,0,58,58,46,1,62,69094,blockT,180,2022-02-15_10h45.54.557,orientation adjustment block,2021.2.3,Win32,60.28454304,,,,,,,
,,,,,,,,,,,,,,,,,,,,,,20.55555556,-59,20,75,-51.44444444,7.555555556,7.555555556,-0.154629608,-0.399074157,1,0,0,1.0498,submitButton,10.31111111,0.378703741,-0.400925953,1,0,0,0,59,59,43,1,59,69094,blockT,180,2022-02-15_10h45.54.557,orientation adjustment block,2021.2.3,Win32,60.28454304,continueButton,,,,,,
,,,,,,,,,,,,,,,,,,,,,,36.11111111,-43,20,75,-32.88888889,10.11111111,10.11111111,0.403703742,-0.318518599,1,0,0,0.4502,submitButton,10.30676329,0.395370409,-0.255555578,0,0,0,1,0,60,27,1,43,69094,blockT,180,2022-02-15_10h45.54.557,orientation adjustment block,2021.2.3,Win32,60.28454304,,,,,,,
,,,,,,,,,,,,,,,,,,,,,,27.77777778,-74,20,75,-69.22222222,4.777777778,4.777777778,-0.113888866,-0.393518602,1,0,0,1.0833,submitButton,10.1891253,0.360185222,-0.306481506,0,0,0,1,1,61,58,1,74,69094,blockT,180,2022-02-15_10h45.54.557,orientation adjustment block,2021.2.3,Win32,60.28454304,,,,,,,
,,,,,,,,,,,,,,,,,,,,,,22.77777778,69,20,75,73.77777778,4.777777778,4.777777778,0.219444477,-0.296296377,1,0,0,1.4003,submitButton,10.07638889,0.264814849,-0.334259284,0,0,0,1,2,62,53,1,69,69094,blockT,180,2022-02-15_10h45.54.557,orientation adjustment block,2021.2.3,Win32,60.28454304,,,,,,,
,,,,,,,,,,,,,,,,,,,,,,69.44444444,34,20,75,60.44444444,26.44444444,26.44444444,-0.156481403,-0.406481508,1,0,0,1.4834,submitButton,10.41043084,0.29444448,-0.331481506,0,0,0,1,3,63,18,1,34,69094,blockT,180,2022-02-15_10h45.54.557,orientation adjustment block,2021.2.3,Win32,60.28454304,,,,,,,
,,,,,,,,,,,,,,,,,,,,,,31.11111111,-63,20,75,-51.88888889,11.11111111,11.11111111,0.386111149,-0.294444468,1,0,0,0.0663,submitButton,10.42444444,0.245370404,-0.308333357,0,0,0,1,4,64,47,1,63,69094,blockT,180,2022-02-15_10h45.54.557,orientation adjustment block,2021.2.3,Win32,60.28454304,,,,,,,
,,,,,,,,,,,,,,,,,,,,,,-20.55555556,31,20,75,23.44444444,7.555555556,7.555555556,-0.199999979,-0.364814841,1,0,0,1.1669,submitButton,10.36819172,0.300000035,-0.294444468,0,0,0,1,5,65,15,1,31,69094,blockT,180,2022-02-15_10h45.54.557,orientation adjustment block,2021.2.3,Win32,60.28454304,,,,,,,
,,,,,,,,,,,,,,,,,,,,,,-50,16,20,75,18,2,2,0.225925959,-0.319444469,1,0,0,0.0827,submitButton,10.20726496,0.165740772,-0.295370394,0,0,0,1,6,66,0,1,16,69094,blockT,180,2022-02-15_10h45.54.557,orientation adjustment block,2021.2.3,Win32,60.28454304,,,,,,,
,,,,,,,,,,,,,,,,,,,,,,32.22222222,-60,20,75,-49.77777778,10.22222222,10.22222222,-0.103703624,-0.390740824,1,0,0,0.9161,submitButton,10.20754717,0.194444477,-0.295370394,0,0,0,1,7,67,44,1,60,69094,blockT,180,2022-02-15_10h45.54.557,orientation adjustment block,2021.2.3,Win32,60.28454304,,,,,,,
,,,,,,,,,,,,,,,,,,,,,,-41.66666667,52,20,75,32.33333333,19.66666667,19.66666667,-0.208333313,-0.402777805,1,0,0,1.0659,submitButton,10.38271605,0.16851855,-0.322222247,0,0,0,1,8,68,36,1,52,69094,blockT,180,2022-02-15_10h45.54.557,orientation adjustment block,2021.2.3,Win32,60.28454304,,,,,,,
,,,,,,,,,,,,,,,,,,,,,,21.11111111,-23,20,75,-23.88888889,0.888888889,0.888888889,-0.097222199,-0.380555582,1,0,0,0.8663,submitButton,10.21010101,0.266666701,-0.319444469,0,0,0,1,9,69,7,1,23,69094,blockT,180,2022-02-15_10h45.54.557,orientation adjustment block,2021.2.3,Win32,60.28454304,,,,,,,
,,,,,,,,,,,,,,,,,,,,,,55.55555556,56,20,75,67.55555556,11.55555556,11.55555556,0.365740778,-0.298148172,1,0,0,0.1335,submitButton,10.23412698,-0.13425918,-0.394444471,0,0,0,1,10,70,40,1,56,69094,blockT,180,2022-02-15_10h45.54.557,orientation adjustment block,2021.2.3,Win32,60.28454304,,,,,,,
,,,,,,,,,,,,,,,,,,,,,,-64.44444444,-18,20,75,-50.44444444,32.44444444,32.44444444,0.184259291,-0.261111134,1,0,0,0.2168,submitButton,10.62378168,0.033333361,-0.351851934,0,0,0,1,11,71,2,1,18,69094,blockT,180,2022-02-15_10h45.54.557,orientation adjustment block,2021.2.3,Win32,60.28454304,,,,,,,
,,,,,,,,,,,,,,,,,,,,,,73.88888889,-45,20,75,-35.11111111,9.888888889,9.888888889,0.434259299,-0.275925949,1,0,0,0.7665,submitButton,10.61111111,0.108333363,-0.329629711,0,0,0,1,12,72,29,1,45,69094,blockT,180,2022-02-15_10h45.54.557,orientation adjustment block,2021.2.3,Win32,60.28454304,,,,,,,
,,,,,,,,,,,,,,,,,,,,,,-27.22222222,-50,20,75,-64.22222222,14.22222222,14.22222222,-0.103703624,-0.394444471,1,0,0,0.7328,submitButton,10.67231638,0.018518602,-0.351851934,0,0,0,1,13,73,34,1,50,69094,blockT,180,2022-02-15_10h45.54.557,orientation adjustment block,2021.2.3,Win32,60.28454304,,,,,,,
,,,,,,,,,,,,,,,,,,,,,,63.33333333,24,20,75,66.33333333,42.33333333,42.33333333,0.345370407,-0.273148171,1,0,0,0.1166,submitButton,11.2,0.32870374,-0.403703731,1,0,0,1,14,74,8,1,24,69094,blockT,180,2022-02-15_10h45.54.557,orientation adjustment block,2021.2.3,Win32,60.28454304,continueButton,,,,,,
,,,,,,,,,,,,,,,,,,,,,,41.11111111,58,20,75,67.11111111,9.111111111,9.111111111,-0.131481402,-0.377777804,1,0,0,1.4833,submitButton,11.16575592,0.213888922,-0.319444469,0,0,0,1,15,75,42,1,58,69094,blockT,180,2022-02-15_10h45.54.557,orientation adjustment block,2021.2.3,Win32,60.28454304,,,,,,,
,,,,,,,,,,,,,,,,,,,,,,67.77777778,-30,20,75,-26.22222222,3.777777778,3.777777778,0.381481519,-0.306481506,1,0,0,1.6165,submitButton,11.04659498,0.32870374,-0.286111135,0,0,0,1,16,76,14,1,30,69094,blockT,180,2022-02-15_10h45.54.557,orientation adjustment block,2021.2.3,Win32,60.28454304,,,,,,,
,,,,,,,,,,,,,,,,,,,,,,-50,51,20,75,42,9,9,-0.241666647,-0.387963046,1,0,0,1.1329,submitButton,11.01410935,0.184259291,-0.268518598,0,0,0,1,17,77,35,1,51,69094,blockT,180,2022-02-15_10h45.54.557,orientation adjustment block,2021.2.3,Win32,60.28454304,,,,,,,
,,,,,,,,,,,,,,,,,,,,,,-41.66666667,-28,20,75,-56.66666667,28.66666667,28.66666667,0.203703736,-0.280555579,1,0,0,0.1333,submitButton,11.28993056,0.20277781,-0.311111135,0,0,0,1,18,78,12,1,28,69094,blockT,180,2022-02-15_10h45.54.557,orientation adjustment block,2021.2.3,Win32,60.28454304,,,,,,,
,,,,,,,,,,,,,,,,,,,,,,-24.44444444,22,20,75,29.55555556,7.555555556,7.555555556,-0.200925905,-0.387037063,1,0,0,1.4666,submitButton,11.23247863,0.094444474,-0.296296377,0,0,0,1,19,79,6,1,22,69094,blockT,180,2022-02-15_10h45.54.557,orientation adjustment block,2021.2.3,Win32,60.28454304,,,,,,,
,,,,,,,,,,,,,,,,,,,,,,64.44444444,55,20,75,67.44444444,12.44444444,12.44444444,0.365740778,-0.263888912,1,0,0,0.2822,submitButton,11.25084175,0.32407411,-0.312963044,0,0,0,1,20,80,39,1,55,69094,blockT,180,2022-02-15_10h45.54.557,orientation adjustment block,2021.2.3,Win32,60.28454304,,,,,,,
,,,,,,,,,,,,,,,,,,,,,,46.11111111,-57,20,75,-54.88888889,2.111111111,2.111111111,0.419444483,-0.300000024,1,0,0,0.9335,submitButton,11.11442786,0.325000036,-0.242592615,0,0,0,1,21,81,41,1,57,69094,blockT,180,2022-02-15_10h45.54.557,orientation adjustment block,2021.2.3,Win32,60.28454304,,,,,,,
,,,,,,,,,,,,,,,,,,,,,,-62.77777778,-33,20,75,-53.77777778,20.77777778,20.77777778,-0.177777757,-0.410185269,1,0,0,1.3668,submitButton,11.25653595,-0.177777757,-0.410185269,0,0,0,1,22,82,17,1,33,69094,blockT,180,2022-02-15_10h45.54.557,orientation adjustment block,2021.2.3,Win32,60.28454304,,,,,,,
,,,,,,,,,,,,,,,,,,,,,,25.55555556,68,20,75,61.55555556,6.444444444,6.444444444,0.262962997,-0.269444467,1,0,0,1.1332,submitButton,11.18679549,0.169444476,-0.254629709,0,0,0,1,23,83,52,1,68,69094,blockT,180,2022-02-15_10h45.54.557,orientation adjustment block,2021.2.3,Win32,60.28454304,,,,,,,
,,,,,,,,,,,,,,,,,,,,,,65.55555556,-42,20,75,-32.44444444,9.555555556,9.555555556,0.388888927,-0.286111135,1,0,0,0.233,submitButton,11.16349206,0.24629633,-0.320370395,0,0,0,1,24,84,26,1,42,69094,blockT,180,2022-02-15_10h45.54.557,orientation adjustment block,2021.2.3,Win32,60.28454304,,,,,,,
,,,,,,,,,,,,,,,,,,,,,,-33.88888889,-36,20,75,-46.88888889,10.88888889,10.88888889,-0.188888868,-0.414814842,1,0,0,0.9501,submitButton,11.15962441,0.111111141,-0.358333359,0,0,0,1,25,85,20,1,36,69094,blockT,180,2022-02-15_10h45.54.557,orientation adjustment block,2021.2.3,Win32,60.28454304,,,,,,,
,,,,,,,,,,,,,,,,,,,,,,68.33333333,65,20,75,71.33333333,6.333333333,6.333333333,0.40648152,-0.292592616,1,0,0,0.1998,submitButton,11.09259259,0.2166667,-0.307407488,0,0,0,1,26,86,49,1,65,69094,blockT,180,2022-02-15_10h45.54.557,orientation adjustment block,2021.2.3,Win32,60.28454304,,,,,,,
,,,,,,,,,,,,,,,,,,,,,,57.22222222,72,20,75,81.22222222,9.222222222,9.222222222,0.384259297,-0.300000024,1,0,0,0.05,submitButton,11.06697108,0.230555589,-0.30555558,0,0,0,1,27,87,56,1,72,69094,blockT,180,2022-02-15_10h45.54.557,orientation adjustment block,2021.2.3,Win32,60.28454304,,,,,,,
,,,,,,,,,,,,,,,,,,,,,,62.22222222,-62,20,75,-55.77777778,6.222222222,6.222222222,0.357407445,-0.28703706,1,0,0,0.7835,submitButton,11.0015015,0.183333365,-0.321296377,0,0,0,1,28,88,46,1,62,69094,blockT,180,2022-02-15_10h45.54.557,orientation adjustment block,2021.2.3,Win32,60.28454304,,,,,,,
,,,,,,,,,,,,,,,,,,,,,,66.66666667,-59,20,75,-51.33333333,7.666666667,7.666666667,0.40185189,-0.30555558,1,0,0,0.6332,submitButton,10.95703704,0.359259296,-0.389814841,1,0,0,1,29,89,43,1,59,69094,blockT,180,2022-02-15_10h45.54.557,orientation adjustment block,2021.2.3,Win32,60.28454304,continueButton,,,,,,
,,,,,,,,,,,,,,,,,,,,,,60.55555556,-71,20,75,-63.44444444,7.555555556,7.555555556,0.427777817,-0.324074155,1,0,0,0.1501,submitButton,10.9122807,0.136111142,-0.370370396,0,0,0,1,30,90,55,1,71,69094,blockT,180,2022-02-15_10h45.54.557,orientation adjustment block,2021.2.3,Win32,60.28454304,,,,,,,
,,,,,,,,,,,,,,,,,,,,,,-27.77777778,-67,20,75,-69.77777778,2.777777778,2.777777778,0.350925963,-0.338888914,1,0,0,1.0668,submitButton,10.80663781,0.365740778,-0.26666669,0,0,0,1,31,91,51,1,67,69094,blockT,180,2022-02-15_10h45.54.557,orientation adjustment block,2021.2.3,Win32,60.28454304,,,,,,,
,,,,,,,,,,,,,,,,,,,,,,-48.33333333,75,20,75,61.66666667,13.33333333,13.33333333,0.188888921,-0.323148173,1,0,0,0.2324,submitButton,10.83903134,0.261111145,-0.306481506,0,0,0,1,32,92,59,1,75,69094,blockT,180,2022-02-15_10h45.54.557,orientation adjustment block,2021.2.3,Win32,60.28454304,,,,,,,
,,,,,,,,,,,,,,,,,,,,,,41.11111111,-41,20,75,-43.88888889,2.888888889,2.888888889,0.360185222,-0.288888912,1,0,0,0.8011,submitButton,10.73839662,0.244444478,-0.256481504,0,0,0,1,33,93,25,1,41,69094,blockT,180,2022-02-15_10h45.54.557,orientation adjustment block,2021.2.3,Win32,60.28454304,,,,,,,
,,,,,,,,,,,,,,,,,,,,,,-71.66666667,46,20,75,45.33333333,0.666666667,0.666666667,-0.210185165,-0.355555581,1,0,0,1.5331,submitButton,10.6125,0.099074104,-0.315740822,0,0,0,1,34,94,30,1,46,69094,blockT,180,2022-02-15_10h45.54.557,orientation adjustment block,2021.2.3,Win32,60.28454304,,,,,,,
,,,,,,,,,,,,,,,,,,,,,,-56.66666667,25,20,75,20.33333333,4.666666667,4.666666667,0.231481515,-0.297222246,1,0,0,0.0328,submitButton,10.53909465,0.132407438,-0.3435186,0,0,0,1,35,95,9,1,25,69094,blockT,180,2022-02-15_10h45.54.557,orientation adjustment block,2021.2.3,Win32,60.28454304,,,,,,,
,,,,,,,,,,,,,,,,,,,,,,-68.88888889,73,20,75,60.11111111,12.88888889,12.88888889,0.217592626,-0.321296377,1,0,0,0.8988,submitButton,10.56775068,0.119444474,-0.337037062,0,0,0,1,36,96,57,1,73,69094,blockT,180,2022-02-15_10h45.54.557,orientation adjustment block,2021.2.3,Win32,60.28454304,,,,,,,
,,,,,,,,,,,,,,,,,,,,,,-20.55555556,-27,20,75,-23.55555556,3.444444444,3.444444444,-0.166666645,-0.39629638,1,0,0,1.3833,submitButton,10.48192771,0.079629658,-0.326851933,0,0,0,1,37,97,11,1,27,69094,blockT,180,2022-02-15_10h45.54.557,orientation adjustment block,2021.2.3,Win32,60.28454304,,,,,,,
,,,,,,,,,,,,,,,,,,,,,,49.44444444,-61,20,75,-47.55555556,13.44444444,13.44444444,0.375925964,-0.26574082,1,0,0,0.5161,submitButton,10.51719577,0.24629633,-0.326851933,0,0,0,1,38,98,45,1,61,69094,blockT,180,2022-02-15_10h45.54.557,orientation adjustment block,2021.2.3,Win32,60.28454304,,,,,,,
,,,,,,,,,,,,,,,,,,,,,,-73.33333333,39,20,75,30.66666667,8.333333333,8.333333333,-0.235185166,-0.375925952,1,0,0,1.7494,submitButton,10.49150327,0.365740778,-0.275925949,0,0,0,1,39,99,23,1,39,69094,blockT,180,2022-02-15_10h45.54.557,orientation adjustment block,2021.2.3,Win32,60.28454304,,,,,,,
,,,,,,,,,,,,,,,,,,,,,,21.11111111,32,20,75,40.11111111,8.111111111,8.111111111,0.288888924,-0.274074154,1,0,0,0.1668,submitButton,10.46382429,0.288888924,-0.270370393,0,0,0,1,40,100,16,1,32,69094,blockT,180,2022-02-15_10h45.54.557,orientation adjustment block,2021.2.3,Win32,60.28454304,,,,,,,
,,,,,,,,,,,,,,,,,,,,,,-72.22222222,64,20,75,72.77777778,8.777777778,8.777777778,0.170370402,-0.301851932,1,0,0,0.2663,submitButton,10.44444444,0.382407445,-0.288888912,0,0,0,1,41,101,48,1,64,69094,blockT,180,2022-02-15_10h45.54.557,orientation adjustment block,2021.2.3,Win32,60.28454304,,,,,,,
,,,,,,,,,,,,,,,,,,,,,,37.77777778,-17,20,75,-17.22222222,0.222222222,0.222222222,0.403703742,-0.293518599,1,0,0,0.1337,submitButton,10.32828283,0.24629633,-0.294444468,0,0,0,1,42,102,1,1,17,69094,blockT,180,2022-02-15_10h45.54.557,orientation adjustment block,2021.2.3,Win32,60.28454304,,,,,,,
,,,,,,,,,,,,,,,,,,,,,,33.33333333,-70,20,75,-59.66666667,10.33333333,10.33333333,-0.162036959,-0.412037064,1,0,0,0.9663,submitButton,10.32833958,0.199074106,-0.325925951,0,0,0,1,43,103,54,1,70,69094,blockT,180,2022-02-15_10h45.54.557,orientation adjustment block,2021.2.3,Win32,60.28454304,,,,,,,
,,,,,,,,,,,,,,,,,,,,,,-66.11111111,19,20,75,22.88888889,3.888888889,3.888888889,0.179629661,-0.312963044,1,0,0,0.3834,submitButton,10.25679012,0.408333372,-0.395370397,1,0,0,1,44,104,3,1,19,69094,blockT,180,2022-02-15_10h45.54.557,orientation adjustment block,2021.2.3,Win32,60.28454304,continueButton,,,,,,
,,,,,,,,,,,,,,,,,,,,,,-53.88888889,26,20,75,21.11111111,4.888888889,4.888888889,0.275925961,-0.324074155,1,0,0,0.1666,submitButton,10.1978022,0.242592626,-0.301851932,0,0,0,1,45,105,10,1,26,69094,blockT,180,2022-02-15_10h45.54.557,orientation adjustment block,2021.2.3,Win32,60.28454304,,,,,,,
,,,,,,,,,,,,,,,,,,,,,,56.66666667,-66,20,75,-61.33333333,4.666666667,4.666666667,0.339814851,-0.307407488,1,0,0,0.0165,submitButton,10.13768116,0.201851884,-0.317592617,0,0,0,1,46,106,50,1,66,69094,blockT,180,2022-02-15_10h45.54.557,orientation adjustment block,2021.2.3,Win32,60.28454304,,,,,,,
,,,,,,,,,,,,,,,,,,,,,,61.66666667,-40,20,75,-43.33333333,3.333333333,3.333333333,0.382407445,-0.278703727,1,0,0,0.8665,submitButton,10.06451613,0.341666703,-0.318518599,0,0,0,1,47,107,24,1,40,69094,blockT,180,2022-02-15_10h45.54.557,orientation adjustment block,2021.2.3,Win32,60.28454304,,,,,,,
,,,,,,,,,,,,,,,,,,,,,,-28.88888889,21,20,75,27.11111111,6.111111111,6.111111111,-0.256481463,-0.376851934,1,0,0,1.4334,submitButton,10.02245863,0.331481518,-0.22314817,0,0,0,1,48,108,5,1,21,69094,blockT,180,2022-02-15_10h45.54.557,orientation adjustment block,2021.2.3,Win32,60.28454304,,,,,,,
,,,,,,,,,,,,,,,,,,,,,,-27.77777778,-38,20,75,-53.77777778,15.77777778,15.77777778,0.247222256,-0.30462971,1,0,0,0.2498,submitButton,10.08304094,0.400000038,-0.319444469,0,0,0,1,49,109,22,1,38,69094,blockT,180,2022-02-15_10h45.54.557,orientation adjustment block,2021.2.3,Win32,60.28454304,,,,,,,
,,,,,,,,,,,,,,,,,,,,,,-65,49,20,75,34,15,15,0.203703736,-0.331481506,1,0,0,0.0162,submitButton,10.13425926,0.206481514,-0.288888912,0,0,0,1,50,110,33,1,49,69094,blockT,180,2022-02-15_10h45.54.557,orientation adjustment block,2021.2.3,Win32,60.28454304,,,,,,,
,,,,,,,,,,,,,,,,,,,,,,66.66666667,35,20,75,71.66666667,36.66666667,36.66666667,0.321296332,-0.292592616,1,0,0,0.6167,submitButton,10.40778923,0.229629663,-0.288888912,0,0,0,1,51,111,19,1,35,69094,blockT,180,2022-02-15_10h45.54.557,orientation adjustment block,2021.2.3,Win32,60.28454304,,,,,,,
,,,,,,,,,,,,,,,,,,,,,,-38.88888889,-54,20,75,-68.88888889,14.88888889,14.88888889,0.153703735,-0.302777802,1,0,0,0.3166,submitButton,10.45351474,0.231481515,-0.29166669,0,0,0,1,52,112,38,1,54,69094,blockT,180,2022-02-15_10h45.54.557,orientation adjustment block,2021.2.3,Win32,60.28454304,,,,,,,
,,,,,,,,,,,,,,,,,,,,,,65.55555556,-48,20,75,-24.44444444,23.55555556,23.55555556,-0.136111089,-0.363888915,1,0,0,1.533,submitButton,10.58585859,0.278703739,-0.298148172,0,0,0,1,53,113,32,1,48,69094,blockT,180,2022-02-15_10h45.54.557,orientation adjustment block,2021.2.3,Win32,60.28454304,,,,,,,
,,,,,,,,,,,,,,,,,,,,,,-25,-37,20,75,-49,12,12,-0.132407385,-0.397222249,1,0,0,0.7665,submitButton,10.6,0.311111147,-0.232407486,0,0,0,1,54,114,21,1,37,69094,blockT,180,2022-02-15_10h45.54.557,orientation adjustment block,2021.2.3,Win32,60.28454304,,,,,,,
,,,,,,,,,,,,,,,,,,,,,,-50,44,20,75,36,8,8,0.182407439,-0.313888913,1,0,0,0.1333,submitButton,10.57425743,0.251851886,-0.288888912,0,0,0,1,55,115,28,1,44,69094,blockT,180,2022-02-15_10h45.54.557,orientation adjustment block,2021.2.3,Win32,60.28454304,,,,,,,
,,,,,,,,,,,,,,,,,,,,,,54.44444444,29,20,75,69.44444444,40.44444444,40.44444444,0.393518557,-0.286111135,1,0,0,0.8334,submitButton,10.8671024,0.164814846,-0.351851934,0,0,0,1,56,116,13,1,29,69094,blockT,180,2022-02-15_10h45.54.557,orientation adjustment block,2021.2.3,Win32,60.28454304,,,,,,,
,,,,,,,,,,,,,,,,,,,,,,-40.55555556,-20,20,75,-47.55555556,27.55555556,27.55555556,0.249074108,-0.306481506,1,0,0,0.1,submitButton,11.02912621,0.170370402,-0.311111135,0,0,0,1,57,117,4,1,20,69094,blockT,180,2022-02-15_10h45.54.557,orientation adjustment block,2021.2.3,Win32,60.28454304,,,,,,,
,,,,,,,,,,,,,,,,,,,,,,-66.11111111,47,20,75,38.88888889,8.111111111,8.111111111,0.160185216,-0.318518599,1,0,0,0.7499,submitButton,11.00106838,0.097222252,-0.30555558,0,0,0,1,58,118,31,1,47,69094,blockT,180,2022-02-15_10h45.54.557,orientation adjustment block,2021.2.3,Win32,60.28454304,,,,,,,
,,,,,,,,,,,,,,,,,,,,,,-35,-53,20,75,-62,9,9,0.224074107,-0.288888912,1,0,0,0.2658,submitButton,10.98201058,0.303703739,-0.407407491,1,0,0,1,59,119,37,1,53,69094,blockT,180,2022-02-15_10h45.54.557,orientation adjustment block,2021.2.3,Win32,60.28454304,continueButton,,,,,,
,,,,,,,,,,,,,,,,,,,,,,53.88888889,-45,20,75,-43.11111111,1.888888889,1.888888889,0.37685189,-0.326851933,1,0,0,1.0663,submitButton,10.89622642,0.337963,-0.277777801,0,0,0,2,0,120,29,1,45,69094,blockT,180,2022-02-15_10h45.54.557,orientation adjustment block,2021.2.3,Win32,60.28454304,,,,,,,
,,,,,,,,,,,,,,,,,,,,,,51.11111111,-53,20,75,-53.88888889,0.888888889,0.888888889,0.435185225,-0.28703706,1,0,0,0.9166,submitButton,10.8026999,0.396296335,-0.277777801,0,0,0,2,1,121,37,1,53,69094,blockT,180,2022-02-15_10h45.54.557,orientation adjustment block,2021.2.3,Win32,60.28454304,,,,,,,
,,,,,,,,,,,,,,,,,,,,,,71.66666667,-73,20,75,-63.33333333,9.666666667,9.666666667,0.460185225,-0.260185264,1,0,0,0.2177,submitButton,10.79218107,0.265740775,-0.296296377,0,0,0,2,2,122,57,1,73,69094,blockT,180,2022-02-15_10h45.54.557,orientation adjustment block,2021.2.3,Win32,60.28454304,,,,,,,
,,,,,,,,,,,,,,,,,,,,,,70.55555556,47,20,75,220.5555556,6.444444444,6.444444444,-0.237962944,-0.406481508,1,0,0,2.7497,submitButton,10.75229358,0.334259296,-0.287963043,0,0,0,2,3,123,31,1,47,69094,blockT,180,2022-02-15_10h45.54.557,orientation adjustment block,2021.2.3,Win32,60.28454304,,,,,,,
,,,,,,,,,,,,,,,,,,,,,,48.88888889,-16,20,75,-20.11111111,4.111111111,4.111111111,0.449074114,-0.29166669,1,0,0,0.0323,submitButton,10.69191919,-0.202777757,-0.375925952,0,0,0,2,4,124,0,1,16,69094,blockT,180,2022-02-15_10h45.54.557,orientation adjustment block,2021.2.3,Win32,60.28454304,,,,,,,
,,,,,,,,,,,,,,,,,,,,,,41.66666667,-40,20,75,-39.33333333,0.666666667,0.666666667,-0.150925847,-0.350925951,1,0,0,1.5155,submitButton,10.6016016,0.299074109,-0.261111134,0,0,0,2,5,125,24,1,40,69094,blockT,180,2022-02-15_10h45.54.557,orientation adjustment block,2021.2.3,Win32,60.28454304,,,,,,,
,,,,,,,,,,,,,,,,,,,,,,-58.88888889,44,20,75,44.11111111,0.111111111,0.111111111,0.184259291,-0.310185266,1,0,0,0.45,submitButton,10.50793651,0.309259295,-0.286111135,0,0,0,2,6,126,28,1,44,69094,blockT,180,2022-02-15_10h45.54.557,orientation adjustment block,2021.2.3,Win32,60.28454304,,,,,,,
,,,,,,,,,,,,,,,,,,,,,,-47.77777778,-51,20,75,-67.77777778,16.77777778,16.77777778,0.20740744,-0.327777802,1,0,0,0.1667,submitButton,10.56342183,0.174074106,-0.282407487,0,0,0,2,7,127,35,1,51,69094,blockT,180,2022-02-15_10h45.54.557,orientation adjustment block,2021.2.3,Win32,60.28454304,,,,,,,
,,,,,,,,,,,,,,,,,,,,,,-52.77777778,-70,20,75,-62.77777778,7.222222222,7.222222222,0.179629661,-0.287963043,1,0,0,0.1166,submitButton,10.53411306,0.270370405,-0.212963041,0,0,0,2,8,128,54,1,70,69094,blockT,180,2022-02-15_10h45.54.557,orientation adjustment block,2021.2.3,Win32,60.28454304,,,,,,,
,,,,,,,,,,,,,,,,,,,,,,62.77777778,-30,20,75,-13.22222222,16.77777778,16.77777778,0.244444478,-0.294444468,1,0,0,0.0833,submitButton,10.5884058,-0.188888868,-0.405555583,0,0,0,2,9,129,14,1,30,69094,blockT,180,2022-02-15_10h45.54.557,orientation adjustment block,2021.2.3,Win32,60.28454304,,,,,,,
,,,,,,,,,,,,,,,,,,,,,,54.44444444,-64,20,75,-61.55555556,2.444444444,2.444444444,-0.166666645,-0.392592619,1,0,0,1.6997,submitButton,10.51819923,-0.163888867,-0.384259286,0,0,0,2,10,130,48,1,64,69094,blockT,180,2022-02-15_10h45.54.557,orientation adjustment block,2021.2.3,Win32,60.28454304,,,,,,,
,,,,,,,,,,,,,,,,,,,,,,41.66666667,59,20,75,75.66666667,16.66666667,16.66666667,0.427777817,-0.300000024,1,0,0,0.316,submitButton,10.57075024,-0.157407386,-0.416666694,0,0,0,2,11,131,43,1,59,69094,blockT,180,2022-02-15_10h45.54.557,orientation adjustment block,2021.2.3,Win32,60.28454304,,,,,,,
,,,,,,,,,,,,,,,,,,,,,,30,-27,20,75,-27,0,0,-0.180555534,-0.402777805,1,0,0,1.8158,submitButton,10.48116761,0.227777811,-0.316666691,0,0,0,2,12,132,11,1,27,69094,blockT,180,2022-02-15_10h45.54.557,orientation adjustment block,2021.2.3,Win32,60.28454304,,,,,,,
,,,,,,,,,,,,,,,,,,,,,,65,-31,20,75,-30,1,1,0.413888928,-0.274074154,1,0,0,0.5834,submitButton,10.40149393,0.349074111,-0.321296377,0,0,0,2,13,133,15,1,31,69094,blockT,180,2022-02-15_10h45.54.557,orientation adjustment block,2021.2.3,Win32,60.28454304,,,,,,,
,,,,,,,,,,,,,,,,,,,,,,47.22222222,-41,20,75,-30.77777778,10.22222222,10.22222222,-0.162036959,-0.38240749,1,0,0,1.0495,submitButton,10.4,0.236111145,-0.380555582,1,0,0,2,14,134,25,1,41,69094,blockT,180,2022-02-15_10h45.54.557,orientation adjustment block,2021.2.3,Win32,60.28454304,continueButton,,,,,,
,,,,,,,,,,,,,,,,,,,,,,-61.11111111,-46,20,75,-60.11111111,14.11111111,14.11111111,0.176851884,-0.363888915,1,0,0,0.0661,submitButton,10.43067034,0.262962997,-0.367592618,0,0,0,2,15,135,30,1,46,69094,blockT,180,2022-02-15_10h45.54.557,orientation adjustment block,2021.2.3,Win32,60.28454304,,,,,,,
,,,,,,,,,,,,,,,,,,,,,,63.33333333,-48,20,75,-34.66666667,13.33333333,13.33333333,-0.162962941,-0.388888915,1,0,0,1.3331,submitButton,10.45446266,0.305555591,-0.240740819,0,0,0,2,16,136,32,1,48,69094,blockT,180,2022-02-15_10h45.54.557,orientation adjustment block,2021.2.3,Win32,60.28454304,,,,,,,
,,,,,,,,,,,,,,,,,,,,,,-68.88888889,71,20,75,70.11111111,0.888888889,0.888888889,0.215740774,-0.296296377,1,0,0,0.2664,submitButton,10.37669377,0.302777813,-0.348148173,0,0,0,2,17,137,55,1,71,69094,blockT,180,2022-02-15_10h45.54.557,orientation adjustment block,2021.2.3,Win32,60.28454304,,,,,,,
,,,,,,,,,,,,,,,,,,,,,,-51.66666667,-43,20,75,-60.66666667,17.66666667,17.66666667,0.175000032,-0.337963044,1,0,0,0.0167,submitButton,10.43548387,0.303703739,-0.320370395,0,0,0,2,18,138,27,1,43,69094,blockT,180,2022-02-15_10h45.54.557,orientation adjustment block,2021.2.3,Win32,60.28454304,,,,,,,
,,,,,,,,,,,,,,,,,,,,,,66.66666667,-42,20,75,-36.33333333,5.666666667,5.666666667,0.412963002,-0.285185265,1,0,0,0.6496,submitButton,10.39733333,0.057407492,-0.413888916,0,0,0,2,19,139,26,1,42,69094,blockT,180,2022-02-15_10h45.54.557,orientation adjustment block,2021.2.3,Win32,60.28454304,,,,,,,
,,,,,,,,,,,,,,,,,,,,,,-24.44444444,-25,20,75,-23.44444444,1.555555556,1.555555556,0.20277781,-0.329629711,1,0,0,0.4498,submitButton,10.32716049,0.169444476,-0.297222246,0,0,0,2,20,140,9,1,25,69094,blockT,180,2022-02-15_10h45.54.557,orientation adjustment block,2021.2.3,Win32,60.28454304,,,,,,,
,,,,,,,,,,,,,,,,,,,,,,-45,-62,20,75,-67,5,5,-0.154629608,-0.376851934,1,0,0,1.3667,submitButton,10.28521435,-0.154629608,-0.376851934,0,0,0,2,21,141,46,1,62,69094,blockT,180,2022-02-15_10h45.54.557,orientation adjustment block,2021.2.3,Win32,60.28454304,,,,,,,
,,,,,,,,,,,,,,,,,,,,,,-40.55555556,-32,20,75,-49.55555556,17.55555556,17.55555556,-0.13425918,-0.411111138,1,0,0,0.7332,submitButton,10.34201389,0.150925957,-0.326851933,0,0,0,2,22,142,16,1,32,69094,blockT,180,2022-02-15_10h45.54.557,orientation adjustment block,2021.2.3,Win32,60.28454304,,,,,,,
,,,,,,,,,,,,,,,,,,,,,,-61.66666667,-38,20,75,-54.66666667,16.66666667,16.66666667,0.195370403,-0.303703728,1,0,0,0.4666,submitButton,10.3910422,-0.144444422,-0.393518602,0,0,0,2,23,143,22,1,38,69094,blockT,180,2022-02-15_10h45.54.557,orientation adjustment block,2021.2.3,Win32,60.28454304,,,,,,,
,,,,,,,,,,,,,,,,,,,,,,-27.77777778,-33,20,75,-39.77777778,6.777777778,6.777777778,-0.153703625,-0.38333336,1,0,0,0.7159,submitButton,10.36324786,-0.153703625,-0.38333336,0,0,0,2,24,144,17,1,33,69094,blockT,180,2022-02-15_10h45.54.557,orientation adjustment block,2021.2.3,Win32,60.28454304,,,,,,,
,,,,,,,,,,,,,,,,,,,,,,-35.55555556,-36,20,75,-50.55555556,14.55555556,14.55555556,0.165740772,-0.307407488,1,0,0,0.2326,submitButton,10.39525021,0.297222258,-0.287963043,0,0,0,2,25,145,20,1,36,69094,blockT,180,2022-02-15_10h45.54.557,orientation adjustment block,2021.2.3,Win32,60.28454304,,,,,,,
,,,,,,,,,,,,,,,,,,,,,,-68.88888889,28,20,75,38.11111111,10.11111111,10.11111111,0.189814847,-0.318518599,1,0,0,1.0497,submitButton,10.39309764,0.147222253,-0.33055558,0,0,0,2,26,146,12,1,28,69094,blockT,180,2022-02-15_10h45.54.557,orientation adjustment block,2021.2.3,Win32,60.28454304,,,,,,,
,,,,,,,,,,,,,,,,,,,,,,-71.66666667,37,20,75,41.33333333,4.333333333,4.333333333,0.233333367,-0.300000024,1,0,0,0.2829,submitButton,10.34753551,0.205555588,-0.342592618,0,0,0,2,27,147,21,1,37,69094,blockT,180,2022-02-15_10h45.54.557,orientation adjustment block,2021.2.3,Win32,60.28454304,,,,,,,
,,,,,,,,,,,,,,,,,,,,,,-66.66666667,-18,20,75,-21.66666667,3.666666667,3.666666667,0.221296329,-0.327777802,1,0,0,0.1499,submitButton,10.29767828,0.098148178,-0.342592618,0,0,0,2,28,148,2,1,18,69094,blockT,180,2022-02-15_10h45.54.557,orientation adjustment block,2021.2.3,Win32,60.28454304,,,,,,,
,,,,,,,,,,,,,,,,,,,,,,73.88888889,22,20,75,44.88888889,22.88888889,22.88888889,0.374074112,-0.276851932,1,0,0,0.1824,submitButton,10.3909465,0.334259296,-0.409259286,1,0,0,2,29,149,6,1,22,69094,blockT,180,2022-02-15_10h45.54.557,orientation adjustment block,2021.2.3,Win32,60.28454304,continueButton,,,,,,
,,,,,,,,,,,,,,,,,,,,,,-35.55555556,-69,20,75,-77.55555556,8.555555556,8.555555556,0.312037073,-0.293518599,1,0,0,1.0496,submitButton,10.37745098,0.186111143,-0.314814839,0,0,0,2,30,150,53,1,69,69094,blockT,180,2022-02-15_10h45.54.557,orientation adjustment block,2021.2.3,Win32,60.28454304,,,,,,,
,,,,,,,,,,,,,,,,,,,,,,-75,-55,20,75,-234,1,1,0.388888927,-0.281481505,1,0,0,0.3331,submitButton,10.30900243,0.311111147,-0.307407488,0,0,0,2,31,151,39,1,55,69094,blockT,180,2022-02-15_10h45.54.557,orientation adjustment block,2021.2.3,Win32,60.28454304,,,,,,,
,,,,,,,,,,,,,,,,,,,,,,46.11111111,-35,20,75,-27.88888889,7.111111111,7.111111111,-0.139814736,-0.39629638,1,0,0,1.0999,submitButton,10.28582931,0.345370407,-0.285185265,0,0,0,2,32,152,19,1,35,69094,blockT,180,2022-02-15_10h45.54.557,orientation adjustment block,2021.2.3,Win32,60.28454304,,,,,,,
,,,,,,,,,,,,,,,,,,,,,,-57.77777778,72,20,75,55.22222222,16.77777778,16.77777778,0.238888922,-0.289814838,1,0,0,0.0161,submitButton,10.33253397,0.336111148,-0.301851932,0,0,0,2,33,153,56,1,72,69094,blockT,180,2022-02-15_10h45.54.557,orientation adjustment block,2021.2.3,Win32,60.28454304,,,,,,,
,,,,,,,,,,,,,,,,,,,,,,71.11111111,52,20,75,228.1111111,3.888888889,3.888888889,0.242592626,-0.298148172,1,0,0,0.0333,submitButton,10.28650794,0.33333337,-0.362963045,0,0,0,2,34,154,36,1,52,69094,blockT,180,2022-02-15_10h45.54.557,orientation adjustment block,2021.2.3,Win32,60.28454304,,,,,,,
,,,,,,,,,,,,,,,,,,,,,,-68.88888889,-61,20,75,-229.8888889,11.11111111,11.11111111,0.407407446,-0.298148172,1,0,0,0.3833,submitButton,10.29235619,0.197222255,-0.353703729,0,0,0,2,35,155,45,1,61,69094,blockT,180,2022-02-15_10h45.54.557,orientation adjustment block,2021.2.3,Win32,60.28454304,,,,,,,
,,,,,,,,,,,,,,,,,,,,,,57.77777778,19,20,75,43.77777778,24.77777778,24.77777778,0.339814851,-0.280555579,1,0,0,0.2831,submitButton,10.3943662,0.264814849,-0.251851931,0,0,0,2,36,156,3,1,19,69094,blockT,180,2022-02-15_10h45.54.557,orientation adjustment block,2021.2.3,Win32,60.28454304,,,,,,,
,,,,,,,,,,,,,,,,,,,,,,-37.22222222,66,20,75,55.77777778,10.22222222,10.22222222,0.167592624,-0.295370394,1,0,0,0.0324,submitButton,10.39316239,0.13425929,-0.338888914,0,0,0,2,37,157,50,1,66,69094,blockT,180,2022-02-15_10h45.54.557,orientation adjustment block,2021.2.3,Win32,60.28454304,,,,,,,
,,,,,,,,,,,,,,,,,,,,,,50,65,20,75,75,10,10,0.393518557,-0.283333357,1,0,0,0.066,submitButton,10.3904321,0.108333363,-0.311111135,0,0,0,2,38,158,49,1,65,69094,blockT,180,2022-02-15_10h45.54.557,orientation adjustment block,2021.2.3,Win32,60.28454304,,,,,,,
,,,,,,,,,,,,,,,,,,,,,,28.33333333,29,20,75,43.33333333,14.33333333,14.33333333,0.29444448,-0.300000024,1,0,0,0.1496,submitButton,10.41762452,0.199074106,-0.353703729,0,0,0,2,39,159,13,1,29,69094,blockT,180,2022-02-15_10h45.54.557,orientation adjustment block,2021.2.3,Win32,60.28454304,,,,,,,
,,,,,,,,,,,,,,,,,,,,,,27.22222222,-26,20,75,-25.77777778,0.222222222,0.222222222,0.395370409,-0.276851932,1,0,0,0.4162,submitButton,10.347793,0.302777813,-0.302777802,0,0,0,2,40,160,10,1,26,69094,blockT,180,2022-02-15_10h45.54.557,orientation adjustment block,2021.2.3,Win32,60.28454304,,,,,,,
,,,,,,,,,,,,,,,,,,,,,,-23.88888889,49,20,75,47.11111111,1.888888889,1.888888889,-0.138888867,-0.367592618,1,0,0,0.8001,submitButton,10.29024943,0.321296332,-0.289814838,0,0,0,2,41,161,33,1,49,69094,blockT,180,2022-02-15_10h45.54.557,orientation adjustment block,2021.2.3,Win32,60.28454304,,,,,,,
,,,,,,,,,,,,,,,,,,,,,,68.88888889,56,20,75,65.88888889,9.888888889,9.888888889,0.400925964,-0.308333357,1,0,0,0.0168,submitButton,10.28753754,0.272222257,-0.311111135,0,0,0,2,42,162,40,1,56,69094,blockT,180,2022-02-15_10h45.54.557,orientation adjustment block,2021.2.3,Win32,60.28454304,,,,,,,
,,,,,,,,,,,,,,,,,,,,,,25,-23,20,75,-30,7,7,0.40648152,-0.263888912,1,0,0,0.3495,submitButton,10.26547353,0.338888925,-0.264814838,0,0,0,2,43,163,7,1,23,69094,blockT,180,2022-02-15_10h45.54.557,orientation adjustment block,2021.2.3,Win32,60.28454304,,,,,,,
,,,,,,,,,,,,,,,,,,,,,,42.77777778,-57,20,75,-44.22222222,12.77777778,12.77777778,0.392592631,-0.274074154,1,0,0,0.7832,submitButton,10.28222222,0.350000037,-0.389814841,1,0,0,2,44,164,41,1,57,69094,blockT,180,2022-02-15_10h45.54.557,orientation adjustment block,2021.2.3,Win32,60.28454304,continueButton,,,,,,
,,,,,,,,,,,,,,,,,,,,,,71.11111111,-58,20,75,-56.88888889,1.111111111,1.111111111,-0.10833331,-0.375925952,1,0,0,1.9993,submitButton,10.22148639,0.271296331,-0.34444447,0,0,0,2,45,165,42,1,58,69094,blockT,180,2022-02-15_10h45.54.557,orientation adjustment block,2021.2.3,Win32,60.28454304,,,,,,,
,,,,,,,,,,,,,,,,,,,,,,-72.77777778,21,20,75,34.22222222,13.22222222,13.22222222,0.223148181,-0.36944447,1,0,0,0.5164,submitButton,10.24122807,0.236111145,-0.268518598,0,0,0,2,46,166,5,1,21,69094,blockT,180,2022-02-15_10h45.54.557,orientation adjustment block,2021.2.3,Win32,60.28454304,,,,,,,
,,,,,,,,,,,,,,,,,,,,,,33.88888889,-68,20,75,-58.11111111,9.888888889,9.888888889,0.340740777,-0.289814838,1,0,0,0.4831,submitButton,10.2389252,0.252777812,-0.329629711,0,0,0,2,47,167,52,1,68,69094,blockT,180,2022-02-15_10h45.54.557,orientation adjustment block,2021.2.3,Win32,60.28454304,,,,,,,
,,,,,,,,,,,,,,,,,,,,,,31.66666667,54,20,75,59.66666667,5.666666667,5.666666667,0.325000036,-0.299074154,1,0,0,0.1996,submitButton,10.20923521,0.412963002,-0.263888912,0,0,0,2,48,168,38,1,54,69094,blockT,180,2022-02-15_10h45.54.557,orientation adjustment block,2021.2.3,Win32,60.28454304,,,,,,,
,,,,,,,,,,,,,,,,,,,,,,-62.22222222,50,20,75,49.77777778,0.222222222,0.222222222,0.215740774,-0.290740821,1,0,0,0.1002,submitButton,10.14480287,0.263888923,-0.302777802,0,0,0,2,49,169,34,1,50,69094,blockT,180,2022-02-15_10h45.54.557,orientation adjustment block,2021.2.3,Win32,60.28454304,,,,,,,
,,,,,,,,,,,,,,,,,,,,,,61.11111111,-63,20,75,-59.88888889,3.111111111,3.111111111,-0.116666644,-0.373148174,1,0,0,1.8498,submitButton,10.0997151,0.131481512,-0.274074154,0,0,0,2,50,170,47,1,63,69094,blockT,180,2022-02-15_10h45.54.557,orientation adjustment block,2021.2.3,Win32,60.28454304,,,,,,,
,,,,,,,,,,,,,,,,,,,,,,56.66666667,-20,20,75,-21.33333333,1.333333333,1.333333333,0.370370408,-0.301851932,1,0,0,0.0331,submitButton,10.04387827,0.32407411,-0.361111137,0,0,0,2,51,171,4,1,20,69094,blockT,180,2022-02-15_10h45.54.557,orientation adjustment block,2021.2.3,Win32,60.28454304,,,,,,,
,,,,,,,,,,,,,,,,,,,,,,54.44444444,75,20,75,70.44444444,4.555555556,4.555555556,0.423148187,-0.301851932,1,0,0,0.5665,submitButton,10.00914205,0.237962997,-0.299074154,0,0,0,2,52,172,59,1,75,69094,blockT,180,2022-02-15_10h45.54.557,orientation adjustment block,2021.2.3,Win32,60.28454304,,,,,,,
,,,,,,,,,,,,,,,,,,,,,,-53.88888889,-24,20,75,-46.88888889,22.88888889,22.88888889,-0.236111092,-0.405555583,1,0,0,0.9667,submitButton,10.09014675,0.089814844,-0.336111136,0,0,0,2,53,173,8,1,24,69094,blockT,180,2022-02-15_10h45.54.557,orientation adjustment block,2021.2.3,Win32,60.28454304,,,,,,,
,,,,,,,,,,,,,,,,,,,,,,54.44444444,17,20,75,28.44444444,11.44444444,11.44444444,0.332407444,-0.268518598,1,0,0,0.5334,submitButton,10.09861111,0.262962997,-0.293518599,0,0,0,2,54,174,1,1,17,69094,blockT,180,2022-02-15_10h45.54.557,orientation adjustment block,2021.2.3,Win32,60.28454304,,,,,,,
,,,,,,,,,,,,,,,,,,,,,,46.66666667,60,20,75,59.66666667,0.333333333,0.333333333,0.357407445,-0.263888912,1,0,0,0.0665,submitButton,10.03795721,0.20740744,-0.312963044,0,0,0,2,55,175,44,1,60,69094,blockT,180,2022-02-15_10h45.54.557,orientation adjustment block,2021.2.3,Win32,60.28454304,,,,,,,
,,,,,,,,,,,,,,,,,,,,,,-71.11111111,-74,20,75,-249.1111111,4.888888889,4.888888889,0.37685189,-0.277777801,1,0,0,0.3668,submitButton,10.00617284,0.293518554,-0.29166669,0,0,0,2,56,176,58,1,74,69094,blockT,180,2022-02-15_10h45.54.557,orientation adjustment block,2021.2.3,Win32,60.28454304,,,,,,,
,,,,,,,,,,,,,,,,,,,,,,75,-34,20,75,-36,2,2,0.186111143,-0.30555558,1,0,0,2.5002,submitButton,9.957055215,0.25555559,-0.30462971,0,0,0,2,57,177,18,1,34,69094,blockT,180,2022-02-15_10h45.54.557,orientation adjustment block,2021.2.3,Win32,60.28454304,,,,,,,
,,,,,,,,,,,,,,,,,,,,,,73.88888889,-67,20,75,-67.11111111,0.111111111,0.111111111,-0.132407385,-0.375000026,1,0,0,1.8831,submitButton,9.89701897,-0.132407385,-0.375000026,0,0,0,2,58,178,51,1,67,69094,blockT,180,2022-02-15_10h45.54.557,orientation adjustment block,2021.2.3,Win32,60.28454304,,,,,,,
,,,,,,,,,,,,,,,,,,,,,,-25.55555556,39,20,75,36.44444444,2.555555556,2.555555556,-0.183333312,-0.348148173,1,0,0,0.7671,submitButton,9.852525253,0.210185218,-0.268518598,0,0,0,2,59,179,23,1,39,69094,blockT,180,2022-02-15_10h45.54.557,orientation adjustment block,2021.2.3,Win32,60.28454304,,,,,,,
,,,,,,,,,,,,,,,,,,,,,,,,,,,,,,,,,,,,,,,,,,,,,,,,69094,blockT,180,2022-02-15_10h45.54.557,orientation adjustment block,2021.2.3,Win32,60.28454304,,0.28981485,-0.377777804,1,0,0,EndButtonTxt
