consentMouse1.x,consentMouse1.y,consentMouse1.leftButton,consentMouse1.midButton,consentMouse1.rightButton,consentMouse1.clicked_name,consent_Mouse.x,consent_Mouse.y,consent_Mouse.leftButton,consent_Mouse.midButton,consent_Mouse.rightButton,consent_Mouse.clicked_name,startMouse.x,startMouse.y,startMouse.leftButton,startMouse.midButton,startMouse.rightButton,startMouse_2.x,startMouse_2.y,startMouse_2.leftButton,startMouse_2.midButton,startMouse_2.rightButton,start_distance,fixedOri,minimalDistance,maxOri,this_ori,accuracy,presented_accuracy,submitMouse.x,submitMouse.y,submitMouse.leftButton,submitMouse.midButton,submitMouse.rightButton,submitMouse.time,submitMouse.clicked_name,block_accuracy,continueMouse.x,continueMouse.y,continueMouse.leftButton,continueMouse.midButton,continueMouse.rightButton,trials.thisRepN,trials.thisTrialN,trials.thisN,trials.thisIndex,trials.ran,startOri,participant,condition,nTrials,date,expName,psychopyVersion,OS,frameRate,continueMouse.clicked_name,EndButtonMouse.x,EndButtonMouse.y,EndButtonMouse.leftButton,EndButtonMouse.midButton,EndButtonMouse.rightButton,EndButtonMouse.clicked_name
0.354093967,-0.396358507,1,0,0,consent_button1,0.402708333,-0.416370985,1,0,0,consent_button,0.144912381,-0.25485121,1,0,0,0.095367974,-0.317116903,1,0,0,-34.44444444,65,20,75,-90.44444444,24.55555556,24.55555556,0.412336561,-0.308225369,1,0,0,3.579,submitButton,24.55555556,-0.341787855,-0.255549859,0,0,0,0,0,0,49,1,65,69298,blockT,180,2022-02-12_16h48.48.481,orientation adjustment block,2021.2.3,MacIntel,60.0024001,,,,,,,
,,,,,,,,,,,,,,,,,,,,,,67.22222222,-55,20,75,-47.77777778,7.222222222,7.222222222,0.381424696,-0.299364895,1,0,0,0.5321,submitButton,15.88888889,-0.549610104,-0.403636136,0,0,0,0,1,1,39,1,55,69298,blockT,180,2022-02-12_16h48.48.481,orientation adjustment block,2021.2.3,MacIntel,60.0024001,,,,,,,
,,,,,,,,,,,,,,,,,,,,,,37.77777778,72,20,75,63.77777778,8.222222222,8.222222222,0.392186144,-0.312252062,1,0,0,0.2845,submitButton,13.33333333,0.28032647,-0.378380466,0,0,0,0,2,2,56,1,72,69298,blockT,180,2022-02-12_16h48.48.481,orientation adjustment block,2021.2.3,MacIntel,60.0024001,,,,,,,
,,,,,,,,,,,,,,,,,,,,,,45,-50,20,75,128,2,2,0.229194132,-0.286842719,1,0,0,0.3644,submitButton,2,0.606706407,-0.317840508,0,0,0,0,3,3,34,1,50,69298,blockT,180,2022-02-12_16h48.48.481,orientation adjustment block,2021.2.3,MacIntel,60.0024001,,,,,,,
,,,,,,,,,,,,,,,,,,,,,,-21.66666667,-75,20,75,-82.66666667,7.666666667,7.666666667,0.42200019,-0.287485487,1,0,0,0.1009,submitButton,4.833333333,0.509439426,-0.314759861,0,0,0,0,4,4,59,1,75,69298,blockT,180,2022-02-12_16h48.48.481,orientation adjustment block,2021.2.3,MacIntel,60.0024001,,,,,,,
,,,,,,,,,,,,,,,,,,,,,,-34.44444444,-41,20,75,-45.44444444,4.444444444,4.444444444,0.203048503,-0.290049778,1,0,0,0.0662,submitButton,4.703703704,0.242759264,-0.36033332,0,0,0,0,5,5,25,1,41,69298,blockT,180,2022-02-12_16h48.48.481,orientation adjustment block,2021.2.3,MacIntel,60.0024001,,,,,,,
,,,,,,,,,,,,,,,,,,,,,,-33.33333333,-45,20,75,-42.33333333,2.666666667,2.666666667,0.213290744,-0.310593736,1,0,0,0.5348,submitButton,2.666666667,0.095375909,-0.273247884,0,0,0,0,6,6,29,1,45,69298,blockT,180,2022-02-12_16h48.48.481,orientation adjustment block,2021.2.3,MacIntel,60.0024001,,,,,,,
,,,,,,,,,,,,,,,,,,,,,,26.11111111,-37,20,75,-26.88888889,10.11111111,10.11111111,0.423474392,-0.311418932,1,0,0,0.5506,submitButton,6.388888889,-0.404226006,-0.370464003,0,0,0,0,7,7,21,1,37,69298,blockT,180,2022-02-12_16h48.48.481,orientation adjustment block,2021.2.3,MacIntel,60.0024001,,,,,,,
,,,,,,,,,,,,,,,,,,,,,,-22.77777778,35,20,75,32.22222222,2.777777778,2.777777778,0.216125692,-0.298389621,1,0,0,0.0323,submitButton,5.185185185,-0.379597778,-0.371386244,0,0,0,0,8,8,19,1,35,69298,blockT,180,2022-02-12_16h48.48.481,orientation adjustment block,2021.2.3,MacIntel,60.0024001,,,,,,,
,,,,,,,,,,,,,,,,,,,,,,-40,60,20,75,67,7,7,0.221544393,-0.28465861,1,0,0,0.0638,submitButton,7,-0.500691257,-0.418086141,0,0,0,0,9,9,44,1,60,69298,blockT,180,2022-02-12_16h48.48.481,orientation adjustment block,2021.2.3,MacIntel,60.0024001,,,,,,,
,,,,,,,,,,,,,,,,,,,,,,27.22222222,-17,20,75,-13.77777778,3.222222222,3.222222222,0.430077989,-0.299992608,1,0,0,0.8347,submitButton,5.111111111,-0.519421353,-0.415028687,0,0,0,0,10,10,1,1,17,69298,blockT,180,2022-02-12_16h48.48.481,orientation adjustment block,2021.2.3,MacIntel,60.0024001,,,,,,,
,,,,,,,,,,,,,,,,,,,,,,53.88888889,-43,20,75,137.8888889,0.888888889,0.888888889,0.213938124,-0.307411906,1,0,0,0.0669,submitButton,3.703703704,-0.528110945,-0.392164442,0,0,0,0,11,11,27,1,43,69298,blockT,180,2022-02-12_16h48.48.481,orientation adjustment block,2021.2.3,MacIntel,60.0024001,,,,,,,
,,,,,,,,,,,,,,,,,,,,,,67.22222222,16,20,75,48.22222222,32.22222222,32.22222222,0.325895454,-0.315880195,1,0,0,0.282,submitButton,32.22222222,-0.291638963,-0.386132541,0,0,0,0,12,12,0,1,16,69298,blockT,180,2022-02-12_16h48.48.481,orientation adjustment block,2021.2.3,MacIntel,60.0024001,,,,,,,
,,,,,,,,,,,,,,,,,,,,,,-41.11111111,-44,20,75,-45.11111111,1.111111111,1.111111111,0.190251058,-0.30232883,1,0,0,0.1328,submitButton,16.66666667,-0.400694512,-0.405492689,0,0,0,0,13,13,28,1,44,69298,blockT,180,2022-02-12_16h48.48.481,orientation adjustment block,2021.2.3,MacIntel,60.0024001,,,,,,,
,,,,,,,,,,,,,,,,,,,,,,-60,-36,20,75,-49,13,13,0.211257731,-0.316539307,1,0,0,0.117,submitButton,15.44444444,0.449599338,-0.392444933,1,0,0,0,14,14,20,1,36,69298,blockT,180,2022-02-12_16h48.48.481,orientation adjustment block,2021.2.3,MacIntel,60.0024001,continueButton,,,,,,
,,,,,,,,,,,,,,,,,,,,,,-68.33333333,-52,20,75,-231.3333333,0.666666667,0.666666667,0.425961236,-0.3191765,1,0,0,0.4505,submitButton,0.666666667,-0.375958082,-0.422450901,0,0,0,0,15,15,36,1,52,69298,blockT,180,2022-02-12_16h48.48.481,orientation adjustment block,2021.2.3,MacIntel,60.0024001,,,,,,,
,,,,,,,,,,,,,,,,,,,,,,-38.88888889,40,20,75,30.11111111,9.888888889,9.888888889,0.190228407,-0.313596937,1,0,0,0.048,submitButton,5.277777778,-0.510020142,-0.405829807,0,0,0,0,16,16,24,1,40,69298,blockT,180,2022-02-12_16h48.48.481,orientation adjustment block,2021.2.3,MacIntel,60.0024001,,,,,,,
,,,,,,,,,,,,,,,,,,,,,,-20.55555556,-61,20,75,-68.55555556,7.555555556,7.555555556,0.220894368,-0.301036784,1,0,0,1.9161,submitButton,6.037037037,-0.462672526,-0.411255764,0,0,0,0,17,17,45,1,61,69298,blockT,180,2022-02-12_16h48.48.481,orientation adjustment block,2021.2.3,MacIntel,60.0024001,,,,,,,
,,,,,,,,,,,,,,,,,,,,,,-43.88888889,-29,20,75,-28.88888889,0.111111111,0.111111111,0.379197049,-0.321625163,1,0,0,0.1154,submitButton,4.555555556,-0.578208126,-0.411858249,0,0,0,0,18,18,13,1,29,69298,blockT,180,2022-02-12_16h48.48.481,orientation adjustment block,2021.2.3,MacIntel,60.0024001,,,,,,,
,,,,,,,,,,,,,,,,,,,,,,28.33333333,26,20,75,31.33333333,5.333333333,5.333333333,0.181895074,-0.301123928,1,0,0,0.4986,submitButton,4.711111111,-0.408454929,-0.420490926,0,0,0,0,19,19,10,1,26,69298,blockT,180,2022-02-12_16h48.48.481,orientation adjustment block,2021.2.3,MacIntel,60.0024001,,,,,,,
,,,,,,,,,,,,,,,,,,,,,,66.11111111,27,20,75,211.1111111,4.111111111,4.111111111,0.216136882,-0.298823785,1,0,0,0.5667,submitButton,4.611111111,-0.412968241,-0.376905314,0,0,0,0,20,20,11,1,27,69298,blockT,180,2022-02-12_16h48.48.481,orientation adjustment block,2021.2.3,MacIntel,60.0024001,,,,,,,
,,,,,,,,,,,,,,,,,,,,,,64.44444444,42,20,75,192.4444444,29.55555556,29.55555556,0.186201986,-0.319667969,1,0,0,0.3834,submitButton,8.174603175,-0.45732232,-0.393815986,0,0,0,0,21,21,26,1,42,69298,blockT,180,2022-02-12_16h48.48.481,orientation adjustment block,2021.2.3,MacIntel,60.0024001,,,,,,,
,,,,,,,,,,,,,,,,,,,,,,-41.11111111,23,20,75,27.88888889,4.888888889,4.888888889,0.193377686,-0.293441026,1,0,0,0.0977,submitButton,7.763888889,0.324312405,-0.259275513,0,0,0,0,22,22,7,1,23,69298,blockT,180,2022-02-12_16h48.48.481,orientation adjustment block,2021.2.3,MacIntel,60.0024001,,,,,,,
,,,,,,,,,,,,,,,,,,,,,,-64.44444444,54,20,75,58.55555556,4.555555556,4.555555556,-0.338994208,-0.38528422,1,0,0,1.8491,submitButton,7.407407407,-0.226558363,-0.374255914,0,0,0,0,23,23,38,1,54,69298,blockT,180,2022-02-12_16h48.48.481,orientation adjustment block,2021.2.3,MacIntel,60.0024001,,,,,,,
,,,,,,,,,,,,,,,,,,,,,,31.66666667,57,20,75,219.6666667,17.33333333,17.33333333,-0.35376241,-0.377972005,1,0,0,3.0823,submitButton,8.4,-0.35376241,-0.377972005,0,0,0,0,24,24,41,1,57,69298,blockT,180,2022-02-12_16h48.48.481,orientation adjustment block,2021.2.3,MacIntel,60.0024001,,,,,,,
,,,,,,,,,,,,,,,,,,,,,,63.88888889,-18,20,75,-20.11111111,2.111111111,2.111111111,0.357558594,-0.282263048,1,0,0,1.2347,submitButton,7.828282828,-0.395694105,-0.413501655,0,0,0,0,25,25,2,1,18,69298,blockT,180,2022-02-12_16h48.48.481,orientation adjustment block,2021.2.3,MacIntel,60.0024001,,,,,,,
,,,,,,,,,,,,,,,,,,,,,,23.33333333,70,20,75,71.33333333,1.333333333,1.333333333,0.229533827,-0.308299086,1,0,0,0.2669,submitButton,7.287037037,-0.428298916,-0.405667589,0,0,0,0,26,26,54,1,70,69298,blockT,180,2022-02-12_16h48.48.481,orientation adjustment block,2021.2.3,MacIntel,60.0024001,,,,,,,
,,,,,,,,,,,,,,,,,,,,,,-52.77777778,67,20,75,60.22222222,6.777777778,6.777777778,0.193963081,-0.301033054,1,0,0,0.2332,submitButton,7.247863248,-0.362868856,-0.412196452,0,0,0,0,27,27,51,1,67,69298,blockT,180,2022-02-12_16h48.48.481,orientation adjustment block,2021.2.3,MacIntel,60.0024001,,,,,,,
,,,,,,,,,,,,,,,,,,,,,,-60.55555556,-48,20,75,-50.55555556,2.555555556,2.555555556,0.189282769,-0.30471205,1,0,0,0.8656,submitButton,6.912698413,-0.442475315,-0.382377116,0,0,0,0,28,28,32,1,48,69298,blockT,180,2022-02-12_16h48.48.481,orientation adjustment block,2021.2.3,MacIntel,60.0024001,,,,,,,
,,,,,,,,,,,,,,,,,,,,,,28.33333333,62,20,75,229.3333333,12.66666667,12.66666667,0.227494846,-0.303761325,1,0,0,0.1829,submitButton,7.296296296,0.333878649,-0.417783813,1,0,0,0,29,29,46,1,62,69298,blockT,180,2022-02-12_16h48.48.481,orientation adjustment block,2021.2.3,MacIntel,60.0024001,continueButton,,,,,,
,,,,,,,,,,,,,,,,,,,,,,25.55555556,-74,20,75,-60.44444444,13.55555556,13.55555556,0.155637139,-0.290693292,1,0,0,0.0353,submitButton,7.6875,0.376710205,-0.384674411,0,0,0,0,30,30,58,1,74,69298,blockT,180,2022-02-12_16h48.48.481,orientation adjustment block,2021.2.3,MacIntel,60.0024001,,,,,,,
,,,,,,,,,,,,,,,,,,,,,,73.88888889,-73,20,75,115.8888889,8.888888889,8.888888889,0.21964369,-0.324766778,1,0,0,0.2222,submitButton,7.758169935,0.513855794,-0.34120775,0,0,0,0,31,31,57,1,73,69298,blockT,180,2022-02-12_16h48.48.481,orientation adjustment block,2021.2.3,MacIntel,60.0024001,,,,,,,
,,,,,,,,,,,,,,,,,,,,,,63.33333333,-20,20,75,-21.66666667,1.666666667,1.666666667,0.412526042,-0.288735419,1,0,0,0.1044,submitButton,7.419753086,-0.393503011,-0.39142178,0,0,0,0,32,32,4,1,20,69298,blockT,180,2022-02-12_16h48.48.481,orientation adjustment block,2021.2.3,MacIntel,60.0024001,,,,,,,
,,,,,,,,,,,,,,,,,,,,,,60.55555556,63,20,75,243.5555556,0.555555556,0.555555556,0.195079346,-0.289263848,1,0,0,0.0518,submitButton,7.058479532,-0.216461385,-0.385520359,0,0,0,0,33,33,47,1,63,69298,blockT,180,2022-02-12_16h48.48.481,orientation adjustment block,2021.2.3,MacIntel,60.0024001,,,,,,,
,,,,,,,,,,,,,,,,,,,,,,-52.22222222,-64,20,75,-76.22222222,12.22222222,12.22222222,0.168896959,-0.280560574,1,0,0,0.1949,submitButton,7.316666667,-0.475983073,-0.407567952,0,0,0,0,34,34,48,1,64,69298,blockT,180,2022-02-12_16h48.48.481,orientation adjustment block,2021.2.3,MacIntel,60.0024001,,,,,,,
,,,,,,,,,,,,,,,,,,,,,,40,47,20,75,55,8,8,0.395539008,-0.307686225,1,0,0,0.2821,submitButton,7.349206349,-0.464083896,-0.385143568,0,0,0,0,35,35,31,1,47,69298,blockT,180,2022-02-12_16h48.48.481,orientation adjustment block,2021.2.3,MacIntel,60.0024001,,,,,,,
,,,,,,,,,,,,,,,,,,,,,,-59.44444444,34,20,75,25.55555556,8.444444444,8.444444444,0.213729655,-0.287513699,1,0,0,0.5997,submitButton,7.398989899,0.279179755,-0.234051581,0,0,0,0,36,36,18,1,34,69298,blockT,180,2022-02-12_16h48.48.481,orientation adjustment block,2021.2.3,MacIntel,60.0024001,,,,,,,
,,,,,,,,,,,,,,,,,,,,,,-36.66666667,-53,20,75,-63.66666667,10.66666667,10.66666667,0.204700928,-0.2925668,1,0,0,0.0342,submitButton,7.541062802,0.143254055,-0.265057102,0,0,0,0,37,37,37,1,53,69298,blockT,180,2022-02-12_16h48.48.481,orientation adjustment block,2021.2.3,MacIntel,60.0024001,,,,,,,
,,,,,,,,,,,,,,,,,,,,,,-52.77777778,49,20,75,29.22222222,19.77777778,19.77777778,0.196525201,-0.286807794,1,0,0,0.1683,submitButton,8.050925926,0.259396159,-0.263872613,0,0,0,0,38,38,33,1,49,69298,blockT,180,2022-02-12_16h48.48.481,orientation adjustment block,2021.2.3,MacIntel,60.0024001,,,,,,,
,,,,,,,,,,,,,,,,,,,,,,60.55555556,-66,20,75,-46.44444444,19.55555556,19.55555556,0.361903483,-0.278901435,1,0,0,0.1674,submitButton,8.511111111,0.262947795,-0.28884691,0,0,0,0,39,39,50,1,66,69298,blockT,180,2022-02-12_16h48.48.481,orientation adjustment block,2021.2.3,MacIntel,60.0024001,,,,,,,
,,,,,,,,,,,,,,,,,,,,,,-64.44444444,24,20,75,22.55555556,1.444444444,1.444444444,0.210750393,-0.28884691,1,0,0,0.8641,submitButton,8.239316239,0.300152656,-0.230437215,0,0,0,0,40,40,8,1,24,69298,blockT,180,2022-02-12_16h48.48.481,orientation adjustment block,2021.2.3,MacIntel,60.0024001,,,,,,,
,,,,,,,,,,,,,,,,,,,,,,-55,-69,20,75,-235,14,14,0.431146647,-0.296229248,1,0,0,0.067,submitButton,8.452674897,-0.178948568,-0.3806368,0,0,0,0,41,41,53,1,69,69298,blockT,180,2022-02-12_16h48.48.481,orientation adjustment block,2021.2.3,MacIntel,60.0024001,,,,,,,
,,,,,,,,,,,,,,,,,,,,,,48.88888889,59,20,75,68.88888889,9.888888889,9.888888889,0.216063368,-0.324235433,1,0,0,0.2196,submitButton,8.503968254,-0.311009047,-0.382342055,0,0,0,0,42,42,43,1,59,69298,blockT,180,2022-02-12_16h48.48.481,orientation adjustment block,2021.2.3,MacIntel,60.0024001,,,,,,,
,,,,,,,,,,,,,,,,,,,,,,60.55555556,58,20,75,219.5555556,18.44444444,18.44444444,0.1976808,-0.305764431,1,0,0,0.0494,submitButton,8.846743295,-0.01369656,-0.297427775,0,0,0,0,43,43,42,1,58,69298,blockT,180,2022-02-12_16h48.48.481,orientation adjustment block,2021.2.3,MacIntel,60.0024001,,,,,,,
,,,,,,,,,,,,,,,,,,,,,,21.11111111,-68,20,75,-53.88888889,14.11111111,14.11111111,0.402000054,-0.296496582,1,0,0,0.3128,submitButton,9.022222222,0.336118571,-0.394104886,1,0,0,0,44,44,52,1,68,69298,blockT,180,2022-02-12_16h48.48.481,orientation adjustment block,2021.2.3,MacIntel,60.0024001,continueButton,,,,,,
,,,,,,,,,,,,,,,,,,,,,,66.11111111,22,20,75,122.1111111,79.88888889,79.88888889,0.209190267,-0.316320462,1,0,0,0.1,submitButton,11.30824373,-0.462869466,-0.403589274,0,0,0,0,45,45,6,1,22,69298,blockT,180,2022-02-12_16h48.48.481,orientation adjustment block,2021.2.3,MacIntel,60.0024001,,,,,,,
,,,,,,,,,,,,,,,,,,,,,,-32.77777778,-39,20,75,-50.77777778,11.77777778,11.77777778,0.19082255,-0.345379096,1,0,0,0.1511,submitButton,11.32291667,-0.540620744,-0.3851631,0,0,0,0,46,46,23,1,39,69298,blockT,180,2022-02-12_16h48.48.481,orientation adjustment block,2021.2.3,MacIntel,60.0024001,,,,,,,
,,,,,,,,,,,,,,,,,,,,,,-20,30,20,75,39,9,9,0.19838345,-0.292702298,1,0,0,0.2655,submitButton,11.25252525,0.317039659,-0.248065728,0,0,0,0,47,47,14,1,30,69298,blockT,180,2022-02-12_16h48.48.481,orientation adjustment block,2021.2.3,MacIntel,60.0024001,,,,,,,
,,,,,,,,,,,,,,,,,,,,,,51.66666667,-31,20,75,-16.33333333,14.66666667,14.66666667,0.335028347,-0.311120266,1,0,0,0.4993,submitButton,11.35294118,-0.449025167,-0.39152832,0,0,0,0,48,48,15,1,31,69298,blockT,180,2022-02-12_16h48.48.481,orientation adjustment block,2021.2.3,MacIntel,60.0024001,,,,,,,
,,,,,,,,,,,,,,,,,,,,,,-68.88888889,-56,20,75,-223.8888889,12.11111111,12.11111111,0.411893175,-0.302252875,1,0,0,0.7826,submitButton,11.37460317,-0.368655531,-0.404286092,0,0,0,0,49,49,40,1,56,69298,blockT,180,2022-02-12_16h48.48.481,orientation adjustment block,2021.2.3,MacIntel,60.0024001,,,,,,,
,,,,,,,,,,,,,,,,,,,,,,21.66666667,-71,20,75,-61.33333333,9.666666667,9.666666667,0.192836846,-0.315318807,1,0,0,0.1635,submitButton,11.32716049,0.125095893,-0.184125434,0,0,0,0,50,50,55,1,71,69298,blockT,180,2022-02-12_16h48.48.481,orientation adjustment block,2021.2.3,MacIntel,60.0024001,,,,,,,
,,,,,,,,,,,,,,,,,,,,,,-57.77777778,-21,20,75,-32.77777778,11.77777778,11.77777778,0.163962809,-0.29047838,1,0,0,0.667,submitButton,11.33933934,0.216160482,-0.325209351,0,0,0,0,51,51,5,1,21,69298,blockT,180,2022-02-12_16h48.48.481,orientation adjustment block,2021.2.3,MacIntel,60.0024001,,,,,,,
,,,,,,,,,,,,,,,,,,,,,,62.22222222,38,20,75,50.22222222,12.22222222,12.22222222,0.385873074,-0.301225993,1,0,0,0.033,submitButton,11.3625731,-0.336213345,-0.399164564,0,0,0,0,52,52,22,1,38,69298,blockT,180,2022-02-12_16h48.48.481,orientation adjustment block,2021.2.3,MacIntel,60.0024001,,,,,,,
,,,,,,,,,,,,,,,,,,,,,,34.44444444,32,20,75,36.44444444,4.444444444,4.444444444,0.377060683,-0.317900798,1,0,0,0.583,submitButton,11.18518519,0.310243191,-0.173641697,0,0,0,0,53,53,16,1,32,69298,blockT,180,2022-02-12_16h48.48.481,orientation adjustment block,2021.2.3,MacIntel,60.0024001,,,,,,,
,,,,,,,,,,,,,,,,,,,,,,24.44444444,-33,20,75,-26.55555556,6.444444444,6.444444444,0.415264757,-0.294263306,1,0,0,0.1996,submitButton,11.06666667,0.091584473,-0.303015408,0,0,0,0,54,54,17,1,33,69298,blockT,180,2022-02-12_16h48.48.481,orientation adjustment block,2021.2.3,MacIntel,60.0024001,,,,,,,
,,,,,,,,,,,,,,,,,,,,,,-73.88888889,-19,20,75,-20.88888889,1.888888889,1.888888889,0.142236532,-0.304788547,1,0,0,0.8829,submitButton,10.84281843,-0.340533515,-0.396894803,0,0,0,0,55,55,3,1,19,69298,blockT,180,2022-02-12_16h48.48.481,orientation adjustment block,2021.2.3,MacIntel,60.0024001,,,,,,,
,,,,,,,,,,,,,,,,,,,,,,-56.66666667,-25,20,75,-31.66666667,6.666666667,6.666666667,0.212908122,-0.324338175,1,0,0,0.0829,submitButton,10.74338624,0.315832791,-0.257768962,0,0,0,0,56,56,9,1,25,69298,blockT,180,2022-02-12_16h48.48.481,orientation adjustment block,2021.2.3,MacIntel,60.0024001,,,,,,,
,,,,,,,,,,,,,,,,,,,,,,20,-28,20,75,-30,2,2,0.406645508,-0.296578708,1,0,0,0.0477,submitButton,10.54005168,-0.001004978,-0.201646796,0,0,0,0,57,57,12,1,28,69298,blockT,180,2022-02-12_16h48.48.481,orientation adjustment block,2021.2.3,MacIntel,60.0024001,,,,,,,
,,,,,,,,,,,,,,,,,,,,,,-51.11111111,-46,20,75,-58.11111111,12.11111111,12.11111111,0.191964722,-0.301109823,1,0,0,0.6834,submitButton,10.57575758,0.088661906,-0.241037259,0,0,0,0,58,58,30,1,46,69298,blockT,180,2022-02-12_16h48.48.481,orientation adjustment block,2021.2.3,MacIntel,60.0024001,,,,,,,
,,,,,,,,,,,,,,,,,,,,,,55,-51,20,75,-45,6,6,0.434371338,-0.272862617,1,0,0,0.3674,submitButton,10.47407407,0.508355035,-0.38321974,1,0,0,0,59,59,35,1,51,69298,blockT,180,2022-02-12_16h48.48.481,orientation adjustment block,2021.2.3,MacIntel,60.0024001,continueButton,,,,,,
,,,,,,,,,,,,,,,,,,,,,,30.55555556,-44,20,75,-35.44444444,8.555555556,8.555555556,0.407337511,-0.301353285,1,0,0,0.0994,submitButton,10.43236715,0.332149658,-0.229541558,0,0,0,1,0,60,28,1,44,69298,blockT,180,2022-02-12_16h48.48.481,orientation adjustment block,2021.2.3,MacIntel,60.0024001,,,,,,,
,,,,,,,,,,,,,,,,,,,,,,28.88888889,-55,20,75,-55.11111111,0.111111111,0.111111111,0.398852268,-0.299646539,1,0,0,0.1993,submitButton,10.21276596,0.250036011,-0.157911648,0,0,0,1,1,61,39,1,55,69298,blockT,180,2022-02-12_16h48.48.481,orientation adjustment block,2021.2.3,MacIntel,60.0024001,,,,,,,
,,,,,,,,,,,,,,,,,,,,,,-40,-26,20,75,-24,2,2,0.221591526,-0.288147583,1,0,0,0.0837,submitButton,10.04166667,-0.273006185,-0.418724094,0,0,0,1,2,62,10,1,26,69298,blockT,180,2022-02-12_16h48.48.481,orientation adjustment block,2021.2.3,MacIntel,60.0024001,,,,,,,
,,,,,,,,,,,,,,,,,,,,,,67.22222222,-22,20,75,-13.77777778,8.222222222,8.222222222,0.412260471,-0.289649862,1,0,0,1.2823,submitButton,10.00453515,-0.312898966,-0.400121731,0,0,0,1,3,63,6,1,22,69298,blockT,180,2022-02-12_16h48.48.481,orientation adjustment block,2021.2.3,MacIntel,60.0024001,,,,,,,
,,,,,,,,,,,,,,,,,,,,,,-70,61,20,75,39,22,22,0.218078478,-0.289392293,1,0,0,0.5645,submitButton,10.24444444,0.166647814,-0.311905314,0,0,0,1,4,64,45,1,61,69298,blockT,180,2022-02-12_16h48.48.481,orientation adjustment block,2021.2.3,MacIntel,60.0024001,,,,,,,
,,,,,,,,,,,,,,,,,,,,,,22.22222222,-31,20,75,-23.77777778,7.222222222,7.222222222,0.226198866,-0.300191243,1,0,0,1.0005,submitButton,10.18518519,-0.393508369,-0.401358168,0,0,0,1,5,65,15,1,31,69298,blockT,180,2022-02-12_16h48.48.481,orientation adjustment block,2021.2.3,MacIntel,60.0024001,,,,,,,
,,,,,,,,,,,,,,,,,,,,,,24.44444444,-66,20,75,-61.55555556,4.444444444,4.444444444,0.416299099,-0.299810791,1,0,0,0.0677,submitButton,10.07478632,0.372219781,-0.273538954,0,0,0,1,6,66,50,1,66,69298,blockT,180,2022-02-12_16h48.48.481,orientation adjustment block,2021.2.3,MacIntel,60.0024001,,,,,,,
,,,,,,,,,,,,,,,,,,,,,,-21.66666667,-68,20,75,-52.66666667,15.33333333,15.33333333,0.204906955,-0.305222846,1,0,0,0.2151,submitButton,10.17400419,-0.375338881,-0.402847154,0,0,0,1,7,67,52,1,68,69298,blockT,180,2022-02-12_16h48.48.481,orientation adjustment block,2021.2.3,MacIntel,60.0024001,,,,,,,
,,,,,,,,,,,,,,,,,,,,,,60,40,20,75,51,11,11,0.370961778,-0.301628621,1,0,0,0.1657,submitButton,10.18930041,0.023556315,-0.202851156,0,0,0,1,8,68,24,1,40,69298,blockT,180,2022-02-12_16h48.48.481,orientation adjustment block,2021.2.3,MacIntel,60.0024001,,,,,,,
,,,,,,,,,,,,,,,,,,,,,,36.11111111,38,20,75,44.11111111,6.111111111,6.111111111,0.395812988,-0.297245755,1,0,0,0.6529,submitButton,10.11515152,-0.415979004,-0.389027235,0,0,0,1,9,69,22,1,38,69298,blockT,180,2022-02-12_16h48.48.481,orientation adjustment block,2021.2.3,MacIntel,60.0024001,,,,,,,
,,,,,,,,,,,,,,,,,,,,,,-45.55555556,-56,20,75,-64.55555556,8.555555556,8.555555556,0.183604601,-0.313347507,1,0,0,0.3002,submitButton,10.08730159,-0.251737908,-0.420479126,0,0,0,1,10,70,40,1,56,69298,blockT,180,2022-02-12_16h48.48.481,orientation adjustment block,2021.2.3,MacIntel,60.0024001,,,,,,,
,,,,,,,,,,,,,,,,,,,,,,73.33333333,59,20,75,67.33333333,8.333333333,8.333333333,0.363854167,-0.285512356,1,0,0,0.2164,submitButton,10.05653021,-0.365464986,-0.395414293,0,0,0,1,11,71,43,1,59,69298,blockT,180,2022-02-12_16h48.48.481,orientation adjustment block,2021.2.3,MacIntel,60.0024001,,,,,,,
,,,,,,,,,,,,,,,,,,,,,,71.66666667,-17,20,75,-13.33333333,3.666666667,3.666666667,0.38345147,-0.298816935,1,0,0,0.2803,submitButton,9.946360153,-0.307039252,-0.389714016,0,0,0,1,12,72,1,1,17,69298,blockT,180,2022-02-12_16h48.48.481,orientation adjustment block,2021.2.3,MacIntel,60.0024001,,,,,,,
,,,,,,,,,,,,,,,,,,,,,,-43.33333333,-30,20,75,-33.33333333,3.333333333,3.333333333,0.224570855,-0.302630344,1,0,0,0.0502,submitButton,9.834274953,-0.440499742,-0.402377726,0,0,0,1,13,73,14,1,30,69298,blockT,180,2022-02-12_16h48.48.481,orientation adjustment block,2021.2.3,MacIntel,60.0024001,,,,,,,
,,,,,,,,,,,,,,,,,,,,,,-55.55555556,29,20,75,24.44444444,4.555555556,4.555555556,0.192416382,-0.322492269,1,0,0,1.0999,submitButton,9.746296296,0.355178901,-0.403813205,1,0,0,1,14,74,13,1,29,69298,blockT,180,2022-02-12_16h48.48.481,orientation adjustment block,2021.2.3,MacIntel,60.0024001,continueButton,,,,,,
,,,,,,,,,,,,,,,,,,,,,,69.44444444,-75,20,75,-56.55555556,18.44444444,18.44444444,0.426441243,-0.328182848,1,0,0,0.1678,submitButton,9.888888889,0.314849989,-0.171692912,0,0,0,1,15,75,59,1,75,69298,blockT,180,2022-02-12_16h48.48.481,orientation adjustment block,2021.2.3,MacIntel,60.0024001,,,,,,,
,,,,,,,,,,,,,,,,,,,,,,26.66666667,-52,20,75,-55.33333333,3.333333333,3.333333333,0.375957981,-0.303191325,1,0,0,0.0508,submitButton,9.783154122,0.339424371,-0.207277764,0,0,0,1,16,76,36,1,52,69298,blockT,180,2022-02-12_16h48.48.481,orientation adjustment block,2021.2.3,MacIntel,60.0024001,,,,,,,
,,,,,,,,,,,,,,,,,,,,,,33.88888889,-25,20,75,-29.11111111,4.111111111,4.111111111,0.433454725,-0.279815742,1,0,0,0.3348,submitButton,9.693121693,0.266200833,-0.221433038,0,0,0,1,17,77,9,1,25,69298,blockT,180,2022-02-12_16h48.48.481,orientation adjustment block,2021.2.3,MacIntel,60.0024001,,,,,,,
,,,,,,,,,,,,,,,,,,,,,,-63.88888889,-23,20,75,-30.88888889,7.888888889,7.888888889,0.217178955,-0.320927327,1,0,0,0.1041,submitButton,9.664930556,-0.31449646,-0.392824368,0,0,0,1,18,78,7,1,23,69298,blockT,180,2022-02-12_16h48.48.481,orientation adjustment block,2021.2.3,MacIntel,60.0024001,,,,,,,
,,,,,,,,,,,,,,,,,,,,,,26.11111111,48,20,75,64.11111111,16.11111111,16.11111111,0.399949409,-0.294649929,1,0,0,0.2538,submitButton,9.764102564,0.226706272,-0.225737915,0,0,0,1,19,79,32,1,48,69298,blockT,180,2022-02-12_16h48.48.481,orientation adjustment block,2021.2.3,MacIntel,60.0024001,,,,,,,
,,,,,,,,,,,,,,,,,,,,,,72.77777778,-28,20,75,-16.22222222,11.77777778,11.77777778,0.362993028,-0.269678413,1,0,0,0.1341,submitButton,9.794612795,-0.363263482,-0.403488024,0,0,0,1,20,80,12,1,28,69298,blockT,180,2022-02-12_16h48.48.481,orientation adjustment block,2021.2.3,MacIntel,60.0024001,,,,,,,
,,,,,,,,,,,,,,,,,,,,,,-72.77777778,-47,20,75,-226.7777778,0.222222222,0.222222222,0.395426975,-0.270850288,1,0,0,0.7173,submitButton,9.651741294,-0.418965115,-0.400101183,0,0,0,1,21,81,31,1,47,69298,blockT,180,2022-02-12_16h48.48.481,orientation adjustment block,2021.2.3,MacIntel,60.0024001,,,,,,,
,,,,,,,,,,,,,,,,,,,,,,-38.88888889,-72,20,75,-236.8888889,15.11111111,15.11111111,0.391927762,-0.299919434,1,0,0,0.0212,submitButton,9.732026144,0.189312609,-0.014182468,0,0,0,1,22,82,56,1,72,69298,blockT,180,2022-02-12_16h48.48.481,orientation adjustment block,2021.2.3,MacIntel,60.0024001,,,,,,,
,,,,,,,,,,,,,,,,,,,,,,-61.11111111,-62,20,75,-238.1111111,3.888888889,3.888888889,0.382450629,-0.306354777,1,0,0,0.4805,submitButton,9.647342995,0.061576063,-0.245445896,0,0,0,1,23,83,46,1,62,69298,blockT,180,2022-02-12_16h48.48.481,orientation adjustment block,2021.2.3,MacIntel,60.0024001,,,,,,,
,,,,,,,,,,,,,,,,,,,,,,-20.55555556,-35,20,75,-34.55555556,0.444444444,0.444444444,0.222319743,-0.299097968,1,0,0,0.1822,submitButton,9.515873016,0.114972059,-0.269175415,0,0,0,1,24,84,19,1,35,69298,blockT,180,2022-02-12_16h48.48.481,orientation adjustment block,2021.2.3,MacIntel,60.0024001,,,,,,,
,,,,,,,,,,,,,,,,,,,,,,40.55555556,-33,20,75,-36.44444444,3.444444444,3.444444444,-0.23332194,-0.401581896,1,0,0,1.2149,submitButton,9.430359937,0.173639594,-0.31481642,0,0,0,1,25,85,17,1,33,69298,blockT,180,2022-02-12_16h48.48.481,orientation adjustment block,2021.2.3,MacIntel,60.0024001,,,,,,,
,,,,,,,,,,,,,,,,,,,,,,-62.22222222,50,20,75,41.77777778,8.222222222,8.222222222,-0.27078064,-0.405176459,1,0,0,2.1521,submitButton,9.413580247,0.117636854,-0.258409695,0,0,0,1,26,86,34,1,50,69298,blockT,180,2022-02-12_16h48.48.481,orientation adjustment block,2021.2.3,MacIntel,60.0024001,,,,,,,
,,,,,,,,,,,,,,,,,,,,,,-31.11111111,-43,20,75,-48.11111111,5.111111111,5.111111111,0.193898858,-0.309699775,1,0,0,0.0495,submitButton,9.354642314,-0.349740533,-0.394935438,0,0,0,1,27,87,27,1,43,69298,blockT,180,2022-02-12_16h48.48.481,orientation adjustment block,2021.2.3,MacIntel,60.0024001,,,,,,,
,,,,,,,,,,,,,,,,,,,,,,-73.88888889,58,20,75,44.11111111,13.88888889,13.88888889,0.231098022,-0.308169556,1,0,0,1.2849,submitButton,9.415915916,-0.234581909,-0.390345052,0,0,0,1,28,88,42,1,58,69298,blockT,180,2022-02-12_16h48.48.481,orientation adjustment block,2021.2.3,MacIntel,60.0024001,,,,,,,
,,,,,,,,,,,,,,,,,,,,,,22.22222222,51,20,75,47.22222222,3.777777778,3.777777778,0.361385091,-0.291549954,1,0,0,0.299,submitButton,9.340740741,0.371084527,-0.416422255,1,0,0,1,29,89,35,1,51,69298,blockT,180,2022-02-12_16h48.48.481,orientation adjustment block,2021.2.3,MacIntel,60.0024001,continueButton,,,,,,
,,,,,,,,,,,,,,,,,,,,,,20,-53,20,75,-44,9,9,0.391259766,-0.299182265,1,0,0,0.1491,submitButton,9.33625731,0.360407172,-0.179707574,0,0,0,1,30,90,37,1,53,69298,blockT,180,2022-02-12_16h48.48.481,orientation adjustment block,2021.2.3,MacIntel,60.0024001,,,,,,,
,,,,,,,,,,,,,,,,,,,,,,-70,69,20,75,59,10,10,0.241536933,-0.311997613,1,0,0,0.0492,submitButton,9.344877345,0.332226427,-0.092991469,0,0,0,1,31,91,53,1,69,69298,blockT,180,2022-02-12_16h48.48.481,orientation adjustment block,2021.2.3,MacIntel,60.0024001,,,,,,,
,,,,,,,,,,,,,,,,,,,,,,-33.33333333,-42,20,75,-53.33333333,11.33333333,11.33333333,0.184922757,-0.29808804,1,0,0,0.3702,submitButton,9.37037037,0.09901652,-0.121845567,0,0,0,1,32,92,26,1,42,69298,blockT,180,2022-02-12_16h48.48.481,orientation adjustment block,2021.2.3,MacIntel,60.0024001,,,,,,,
,,,,,,,,,,,,,,,,,,,,,,-73.88888889,-37,20,75,-209.8888889,7.111111111,7.111111111,0.385309245,-0.273025716,1,0,0,0.2004,submitButton,9.341772152,-0.337111104,-0.402492133,0,0,0,1,33,93,21,1,37,69298,blockT,180,2022-02-12_16h48.48.481,orientation adjustment block,2021.2.3,MacIntel,60.0024001,,,,,,,
,,,,,,,,,,,,,,,,,,,,,,45,41,20,75,47,6,6,0.397682563,-0.300013156,1,0,0,0.5551,submitButton,9.3,-0.427745599,-0.416518487,0,0,0,1,34,94,25,1,41,69298,blockT,180,2022-02-12_16h48.48.481,orientation adjustment block,2021.2.3,MacIntel,60.0024001,,,,,,,
,,,,,,,,,,,,,,,,,,,,,,44.44444444,-39,20,75,-28.55555556,10.44444444,10.44444444,0.35815389,-0.272451104,1,0,0,0.1159,submitButton,9.314128944,-0.357546082,-0.39932156,0,0,0,1,35,95,23,1,39,69298,blockT,180,2022-02-12_16h48.48.481,orientation adjustment block,2021.2.3,MacIntel,60.0024001,,,,,,,
,,,,,,,,,,,,,,,,,,,,,,46.66666667,-34,20,75,-29.33333333,4.666666667,4.666666667,0.35573527,-0.311826647,1,0,0,0.0648,submitButton,9.257452575,0.07419949,-0.138806356,0,0,0,1,36,96,18,1,34,69298,blockT,180,2022-02-12_16h48.48.481,orientation adjustment block,2021.2.3,MacIntel,60.0024001,,,,,,,
,,,,,,,,,,,,,,,,,,,,,,-42.22222222,20,20,75,18.77777778,1.222222222,1.222222222,-0.23315389,-0.348505927,1,0,0,1.017,submitButton,9.16064257,-0.041289063,-0.120599026,0,0,0,1,37,97,4,1,20,69298,blockT,180,2022-02-12_16h48.48.481,orientation adjustment block,2021.2.3,MacIntel,60.0024001,,,,,,,
,,,,,,,,,,,,,,,,,,,,,,35.55555556,-46,20,75,-35.44444444,10.55555556,10.55555556,0.381660156,-0.278477444,1,0,0,0.4994,submitButton,9.177248677,0.035682373,-0.14758823,0,0,0,1,38,98,30,1,46,69298,blockT,180,2022-02-12_16h48.48.481,orientation adjustment block,2021.2.3,MacIntel,60.0024001,,,,,,,
,,,,,,,,,,,,,,,,,,,,,,-39.44444444,54,20,75,34.55555556,19.44444444,19.44444444,0.181111179,-0.296310967,1,0,0,0.1991,submitButton,9.298039216,-0.393839925,-0.402080485,0,0,0,1,39,99,38,1,54,69298,blockT,180,2022-02-12_16h48.48.481,orientation adjustment block,2021.2.3,MacIntel,60.0024001,,,,,,,
,,,,,,,,,,,,,,,,,,,,,,67.22222222,65,20,75,60.22222222,4.777777778,4.777777778,0.429076063,-0.310472819,1,0,0,0.4676,submitButton,9.245478036,-0.318950534,-0.384082777,0,0,0,1,40,100,49,1,65,69298,blockT,180,2022-02-12_16h48.48.481,orientation adjustment block,2021.2.3,MacIntel,60.0024001,,,,,,,
,,,,,,,,,,,,,,,,,,,,,,48.33333333,36,20,75,43.33333333,7.333333333,7.333333333,0.390604655,-0.297679986,1,0,0,0.1014,submitButton,9.223499361,-0.182719455,-0.419773492,0,0,0,1,41,101,20,1,36,69298,blockT,180,2022-02-12_16h48.48.481,orientation adjustment block,2021.2.3,MacIntel,60.0024001,,,,,,,
,,,,,,,,,,,,,,,,,,,,,,-40,-71,20,75,-69,2,2,0.188565742,-0.318292575,1,0,0,0.349,submitButton,9.141414141,-0.312703111,-0.423240085,0,0,0,1,42,102,55,1,71,69298,blockT,180,2022-02-12_16h48.48.481,orientation adjustment block,2021.2.3,MacIntel,60.0024001,,,,,,,
,,,,,,,,,,,,,,,,,,,,,,29.44444444,-60,20,75,-42.55555556,17.44444444,17.44444444,0.404797499,-0.302850613,1,0,0,0.6835,submitButton,9.234706617,0.214519518,-0.289071723,0,0,0,1,43,103,44,1,60,69298,blockT,180,2022-02-12_16h48.48.481,orientation adjustment block,2021.2.3,MacIntel,60.0024001,,,,,,,
,,,,,,,,,,,,,,,,,,,,,,56.66666667,-45,20,75,-33.33333333,11.66666667,11.66666667,0.404260932,-0.299653727,1,0,0,0.0807,submitButton,9.261728395,0.401133084,-0.40940762,1,0,0,1,44,104,29,1,45,69298,blockT,180,2022-02-12_16h48.48.481,orientation adjustment block,2021.2.3,MacIntel,60.0024001,continueButton,,,,,,
,,,,,,,,,,,,,,,,,,,,,,60.55555556,-21,20,75,-18.44444444,2.555555556,2.555555556,0.390451118,-0.303695407,1,0,0,0.7329,submitButton,9.188034188,-0.251700473,-0.407052544,0,0,0,1,45,105,5,1,21,69298,blockT,180,2022-02-12_16h48.48.481,orientation adjustment block,2021.2.3,MacIntel,60.0024001,,,,,,,
,,,,,,,,,,,,,,,,,,,,,,30.55555556,49,20,75,60.55555556,11.55555556,11.55555556,0.413393826,-0.314751926,1,0,0,0.1177,submitButton,9.213768116,0.40738661,-0.171721056,0,0,0,1,46,106,33,1,49,69298,blockT,180,2022-02-12_16h48.48.481,orientation adjustment block,2021.2.3,MacIntel,60.0024001,,,,,,,
,,,,,,,,,,,,,,,,,,,,,,63.88888889,-18,20,75,-22.11111111,4.111111111,4.111111111,-0.163973117,-0.414052395,1,0,0,1.9326,submitButton,9.158900836,0.278833483,-0.340424262,0,0,0,1,47,107,2,1,18,69298,blockT,180,2022-02-12_16h48.48.481,orientation adjustment block,2021.2.3,MacIntel,60.0024001,,,,,,,
,,,,,,,,,,,,,,,,,,,,,,-59.44444444,70,20,75,57.55555556,12.44444444,12.44444444,0.252098117,-0.318363851,1,0,0,0.8342,submitButton,9.193853428,0.187070584,-0.332266642,0,0,0,1,48,108,54,1,70,69298,blockT,180,2022-02-12_16h48.48.481,orientation adjustment block,2021.2.3,MacIntel,60.0024001,,,,,,,
,,,,,,,,,,,,,,,,,,,,,,-60,-57,20,75,-221,16,16,-0.133750949,-0.408377211,1,0,0,2.2837,submitButton,9.265497076,0.211114502,-0.272911919,0,0,0,1,49,109,41,1,57,69298,blockT,180,2022-02-12_16h48.48.481,orientation adjustment block,2021.2.3,MacIntel,60.0024001,,,,,,,
,,,,,,,,,,,,,,,,,,,,,,27.77777778,-73,20,75,-56.22222222,16.77777778,16.77777778,0.387182346,-0.284948256,1,0,0,0.135,submitButton,9.34375,0.121188829,-0.359873183,0,0,0,1,50,110,57,1,73,69298,blockT,180,2022-02-12_16h48.48.481,orientation adjustment block,2021.2.3,MacIntel,60.0024001,,,,,,,
,,,,,,,,,,,,,,,,,,,,,,26.66666667,-67,20,75,-57.33333333,9.666666667,9.666666667,0.377128499,-0.290146145,1,0,0,0.2662,submitButton,9.347079038,0.130033976,-0.158972304,0,0,0,1,51,111,51,1,67,69298,blockT,180,2022-02-12_16h48.48.481,orientation adjustment block,2021.2.3,MacIntel,60.0024001,,,,,,,
,,,,,,,,,,,,,,,,,,,,,,-52.22222222,63,20,75,46.77777778,16.22222222,16.22222222,0.216800062,-0.2687441,1,0,0,0.5336,submitButton,9.41723356,0.190630832,-0.222227173,0,0,0,1,52,112,47,1,63,69298,blockT,180,2022-02-12_16h48.48.481,orientation adjustment block,2021.2.3,MacIntel,60.0024001,,,,,,,
,,,,,,,,,,,,,,,,,,,,,,-56.11111111,-16,20,75,-27.11111111,11.11111111,11.11111111,0.204525418,-0.295401476,1,0,0,0.0499,submitButton,9.434343434,-0.029152357,-0.310228204,0,0,0,1,53,113,0,1,16,69298,blockT,180,2022-02-12_16h48.48.481,orientation adjustment block,2021.2.3,MacIntel,60.0024001,,,,,,,
,,,,,,,,,,,,,,,,,,,,,,60.55555556,-19,20,75,-19.44444444,0.444444444,0.444444444,0.411994358,-0.298473511,1,0,0,0.501,submitButton,9.344444444,-0.194555393,-0.402049357,0,0,0,1,54,114,3,1,19,69298,blockT,180,2022-02-12_16h48.48.481,orientation adjustment block,2021.2.3,MacIntel,60.0024001,,,,,,,
,,,,,,,,,,,,,,,,,,,,,,60,-32,20,75,-20,12,12,0.43475708,-0.272177056,1,0,0,0.3004,submitButton,9.370737074,0.176224365,-0.219196438,0,0,0,1,55,115,16,1,32,69298,blockT,180,2022-02-12_16h48.48.481,orientation adjustment block,2021.2.3,MacIntel,60.0024001,,,,,,,
,,,,,,,,,,,,,,,,,,,,,,50.55555556,-24,20,75,-16.44444444,7.555555556,7.555555556,0.376637641,-0.29789978,1,0,0,0.6335,submitButton,9.352941176,0.344915636,-0.227713284,0,0,0,1,56,116,8,1,24,69298,blockT,180,2022-02-12_16h48.48.481,orientation adjustment block,2021.2.3,MacIntel,60.0024001,,,,,,,
,,,,,,,,,,,,,,,,,,,,,,-41.11111111,-64,20,75,-69.11111111,5.111111111,5.111111111,0.188053996,-0.316443007,1,0,0,0.0335,submitButton,9.31175836,0.12750685,-0.305364176,0,0,0,1,57,117,48,1,64,69298,blockT,180,2022-02-12_16h48.48.481,orientation adjustment block,2021.2.3,MacIntel,60.0024001,,,,,,,
,,,,,,,,,,,,,,,,,,,,,,-54.44444444,-27,20,75,-34.44444444,7.444444444,7.444444444,-0.176727566,-0.41306566,1,0,0,1.8338,submitButton,9.293803419,0.060640055,-0.356979506,0,0,0,1,58,118,11,1,27,69298,blockT,180,2022-02-12_16h48.48.481,orientation adjustment block,2021.2.3,MacIntel,60.0024001,,,,,,,
,,,,,,,,,,,,,,,,,,,,,,56.11111111,-74,20,75,-57.88888889,16.11111111,16.11111111,0.406540799,-0.287575073,1,0,0,0.4158,submitButton,9.358730159,0.494456923,-0.405798408,1,0,0,1,59,119,58,1,74,69298,blockT,180,2022-02-12_16h48.48.481,orientation adjustment block,2021.2.3,MacIntel,60.0024001,continueButton,,,,,,
,,,,,,,,,,,,,,,,,,,,,,-66.66666667,41,20,75,29.33333333,11.66666667,11.66666667,0.211753743,-0.299024997,1,0,0,0.8846,submitButton,9.380503145,-0.190296224,-0.416483765,0,0,0,2,0,120,25,1,41,69298,blockT,180,2022-02-12_16h48.48.481,orientation adjustment block,2021.2.3,MacIntel,60.0024001,,,,,,,
,,,,,,,,,,,,,,,,,,,,,,-32.22222222,35,20,75,26.77777778,8.222222222,8.222222222,0.184823269,-0.274368761,1,0,0,0.0812,submitButton,9.369678089,-0.195691732,-0.409041341,0,0,0,2,1,121,19,1,35,69298,blockT,180,2022-02-12_16h48.48.481,orientation adjustment block,2021.2.3,MacIntel,60.0024001,,,,,,,
,,,,,,,,,,,,,,,,,,,,,,34.44444444,74,20,75,79.44444444,5.444444444,5.444444444,-0.307174072,-0.408594699,1,0,0,1.3155,submitButton,9.333333333,-0.307174072,-0.408594699,0,0,0,2,2,122,58,1,74,69298,blockT,180,2022-02-12_16h48.48.481,orientation adjustment block,2021.2.3,MacIntel,60.0024001,,,,,,,
,,,,,,,,,,,,,,,,,,,,,,-59.44444444,33,20,75,23.55555556,9.444444444,9.444444444,0.222243245,-0.293848945,1,0,0,0.6511,submitButton,9.334352701,-0.194611545,-0.413664551,0,0,0,2,3,123,17,1,33,69298,blockT,180,2022-02-12_16h48.48.481,orientation adjustment block,2021.2.3,MacIntel,60.0024001,,,,,,,
,,,,,,,,,,,,,,,,,,,,,,-41.11111111,-16,20,75,-28.11111111,12.11111111,12.11111111,0.196548801,-0.317620375,1,0,0,0.202,submitButton,9.35959596,0.341110162,-0.413982069,0,0,0,2,4,124,0,1,16,69298,blockT,180,2022-02-12_16h48.48.481,orientation adjustment block,2021.2.3,MacIntel,60.0024001,,,,,,,
,,,,,,,,,,,,,,,,,,,,,,38.33333333,-19,20,75,-12.66666667,6.333333333,6.333333333,0.428297255,-0.312146403,1,0,0,0.217,submitButton,9.332332332,-0.309494222,-0.389229126,0,0,0,2,5,125,3,1,19,69298,blockT,180,2022-02-12_16h48.48.481,orientation adjustment block,2021.2.3,MacIntel,60.0024001,,,,,,,
,,,,,,,,,,,,,,,,,,,,,,-36.11111111,-65,20,75,-74.11111111,9.111111111,9.111111111,0.4153125,-0.30239251,1,0,0,0.18,submitButton,9.330357143,-0.317221307,-0.415964762,0,0,0,2,6,126,49,1,65,69298,blockT,180,2022-02-12_16h48.48.481,orientation adjustment block,2021.2.3,MacIntel,60.0024001,,,,,,,
,,,,,,,,,,,,,,,,,,,,,,75,-46,20,75,109,25,25,0.166866048,-0.30520284,1,0,0,0.5811,submitButton,9.469026549,-0.271513943,-0.415355903,0,0,0,2,7,127,30,1,46,69298,blockT,180,2022-02-12_16h48.48.481,orientation adjustment block,2021.2.3,MacIntel,60.0024001,,,,,,,
,,,,,,,,,,,,,,,,,,,,,,-55,57,20,75,39,18,18,0.196625366,-0.305044691,1,0,0,1.4668,submitButton,9.543859649,-0.231624654,-0.396471151,0,0,0,2,8,128,41,1,57,69298,blockT,180,2022-02-12_16h48.48.481,orientation adjustment block,2021.2.3,MacIntel,60.0024001,,,,,,,
,,,,,,,,,,,,,,,,,,,,,,-45.55555556,-54,20,75,-68.55555556,14.55555556,14.55555556,0.169252184,-0.291854112,1,0,0,1.0155,submitButton,9.587439614,0.025224813,-0.357679986,0,0,0,2,9,129,38,1,54,69298,blockT,180,2022-02-12_16h48.48.481,orientation adjustment block,2021.2.3,MacIntel,60.0024001,,,,,,,
,,,,,,,,,,,,,,,,,,,,,,38.33333333,24,20,75,29.33333333,5.333333333,5.333333333,0.37726671,-0.304193997,1,0,0,0.0657,submitButton,9.550766284,-0.155955268,-0.401495226,0,0,0,2,10,130,8,1,24,69298,blockT,180,2022-02-12_16h48.48.481,orientation adjustment block,2021.2.3,MacIntel,60.0024001,,,,,,,
,,,,,,,,,,,,,,,,,,,,,,-56.66666667,-47,20,75,-61.66666667,14.66666667,14.66666667,0.172428453,-0.32997328,1,0,0,0.1655,submitButton,9.594491928,-0.269421183,-0.399108955,0,0,0,2,11,131,31,1,47,69298,blockT,180,2022-02-12_16h48.48.481,orientation adjustment block,2021.2.3,MacIntel,60.0024001,,,,,,,
,,,,,,,,,,,,,,,,,,,,,,-45,30,20,75,28,2,2,0.230107829,-0.314977146,1,0,0,0.1824,submitButton,9.530131827,-0.147412788,-0.402098728,0,0,0,2,12,132,14,1,30,69298,blockT,180,2022-02-12_16h48.48.481,orientation adjustment block,2021.2.3,MacIntel,60.0024001,,,,,,,
,,,,,,,,,,,,,,,,,,,,,,35,-36,20,75,-28,8,8,0.380413683,-0.288053657,1,0,0,0.3986,submitButton,9.517273576,-0.217037218,-0.413854234,0,0,0,2,13,133,20,1,36,69298,blockT,180,2022-02-12_16h48.48.481,orientation adjustment block,2021.2.3,MacIntel,60.0024001,,,,,,,
,,,,,,,,,,,,,,,,,,,,,,67.77777778,60,20,75,70.77777778,10.77777778,10.77777778,0.418224555,-0.284601034,1,0,0,0.4337,submitButton,9.527777778,0.448228895,-0.405406087,1,0,0,2,14,134,44,1,60,69298,blockT,180,2022-02-12_16h48.48.481,orientation adjustment block,2021.2.3,MacIntel,60.0024001,continueButton,,,,,,
,,,,,,,,,,,,,,,,,,,,,,56.11111111,48,20,75,48.11111111,0.111111111,0.111111111,0.37184177,-0.290945706,1,0,0,0.2282,submitButton,9.449954086,-0.195947537,-0.395619439,0,0,0,2,15,135,32,1,48,69298,blockT,180,2022-02-12_16h48.48.481,orientation adjustment block,2021.2.3,MacIntel,60.0024001,,,,,,,
,,,,,,,,,,,,,,,,,,,,,,33.88888889,34,20,75,31.88888889,2.111111111,2.111111111,0.358462321,-0.303693576,1,0,0,0.448,submitButton,9.389799636,-0.379230143,-0.409991862,0,0,0,2,16,136,18,1,34,69298,blockT,180,2022-02-12_16h48.48.481,orientation adjustment block,2021.2.3,MacIntel,60.0024001,,,,,,,
,,,,,,,,,,,,,,,,,,,,,,-39.44444444,56,20,75,38.55555556,17.44444444,17.44444444,0.199372559,-0.309523315,1,0,0,0.0726,submitButton,9.455284553,-0.267409193,-0.392822266,0,0,0,2,17,137,40,1,56,69298,blockT,180,2022-02-12_16h48.48.481,orientation adjustment block,2021.2.3,MacIntel,60.0024001,,,,,,,
,,,,,,,,,,,,,,,,,,,,,,-31.11111111,-28,20,75,-40.11111111,12.11111111,12.11111111,0.212908122,-0.287556152,1,0,0,0.6658,submitButton,9.476702509,-0.246043294,-0.391102498,0,0,0,2,18,138,12,1,28,69298,blockT,180,2022-02-12_16h48.48.481,orientation adjustment block,2021.2.3,MacIntel,60.0024001,,,,,,,
,,,,,,,,,,,,,,,,,,,,,,71.66666667,-49,20,75,-32.33333333,16.66666667,16.66666667,0.363558621,-0.296051568,1,0,0,0.9005,submitButton,9.534222222,-0.224581299,-0.409388089,0,0,0,2,19,139,33,1,49,69298,blockT,180,2022-02-12_16h48.48.481,orientation adjustment block,2021.2.3,MacIntel,60.0024001,,,,,,,
,,,,,,,,,,,,,,,,,,,,,,45,-75,20,75,-62,13,13,0.448279215,-0.294737481,1,0,0,0.1637,submitButton,9.561728395,-0.203720771,-0.39866489,0,0,0,2,20,140,59,1,75,69298,blockT,180,2022-02-12_16h48.48.481,orientation adjustment block,2021.2.3,MacIntel,60.0024001,,,,,,,
,,,,,,,,,,,,,,,,,,,,,,47.22222222,27,20,75,39.22222222,12.22222222,12.22222222,0.409692654,-0.313086751,1,0,0,0.2001,submitButton,9.582677165,-0.355448066,-0.398613959,0,0,0,2,21,141,11,1,27,69298,blockT,180,2022-02-12_16h48.48.481,orientation adjustment block,2021.2.3,MacIntel,60.0024001,,,,,,,
,,,,,,,,,,,,,,,,,,,,,,53.33333333,-69,20,75,-63.66666667,5.333333333,5.333333333,0.406801215,-0.307592434,1,0,0,0.5528,submitButton,9.549479167,-0.401185981,-0.407419095,0,0,0,2,22,142,53,1,69,69298,blockT,180,2022-02-12_16h48.48.481,orientation adjustment block,2021.2.3,MacIntel,60.0024001,,,,,,,
,,,,,,,,,,,,,,,,,,,,,,27.22222222,23,20,75,27.22222222,4.222222222,4.222222222,0.321731974,-0.301005249,1,0,0,0.0666,submitButton,9.508182601,-0.281697964,-0.388770549,0,0,0,2,23,143,7,1,23,69298,blockT,180,2022-02-12_16h48.48.481,orientation adjustment block,2021.2.3,MacIntel,60.0024001,,,,,,,
,,,,,,,,,,,,,,,,,,,,,,74.44444444,50,20,75,239.4444444,9.444444444,9.444444444,0.196748386,-0.304195285,1,0,0,1.0847,submitButton,9.507692308,-0.213224148,-0.421129829,0,0,0,2,24,144,34,1,50,69298,blockT,180,2022-02-12_16h48.48.481,orientation adjustment block,2021.2.3,MacIntel,60.0024001,,,,,,,
,,,,,,,,,,,,,,,,,,,,,,-68.88888889,42,20,75,43.11111111,1.111111111,1.111111111,0.1695558,-0.304617581,1,0,0,11.1019,submitButton,9.443596268,-0.368752238,-0.41035753,0,0,0,2,25,145,26,1,42,69298,blockT,180,2022-02-12_16h48.48.481,orientation adjustment block,2021.2.3,MacIntel,60.0024001,,,,,,,
,,,,,,,,,,,,,,,,,,,,,,-51.66666667,72,20,75,69.33333333,2.666666667,2.666666667,-0.195274523,-0.408422512,1,0,0,1.4994,submitButton,9.392255892,-0.195274523,-0.408422512,0,0,0,2,26,146,56,1,72,69298,blockT,180,2022-02-12_16h48.48.481,orientation adjustment block,2021.2.3,MacIntel,60.0024001,,,,,,,
,,,,,,,,,,,,,,,,,,,,,,-37.77777778,-20,20,75,-36.77777778,16.77777778,16.77777778,0.45709215,-0.323835517,1,0,0,1.0499,submitButton,9.447786132,-0.287709622,-0.400827433,0,0,0,2,27,147,4,1,20,69298,blockT,180,2022-02-12_16h48.48.481,orientation adjustment block,2021.2.3,MacIntel,60.0024001,,,,,,,
,,,,,,,,,,,,,,,,,,,,,,-25.55555556,64,20,75,59.44444444,4.555555556,4.555555556,0.192252333,-0.309775662,1,0,0,0.1335,submitButton,9.411276949,-0.389869961,-0.413160536,0,0,0,2,28,148,48,1,64,69298,blockT,180,2022-02-12_16h48.48.481,orientation adjustment block,2021.2.3,MacIntel,60.0024001,,,,,,,
,,,,,,,,,,,,,,,,,,,,,,29.44444444,-63,20,75,-47.55555556,15.44444444,15.44444444,0.415740967,-0.292098389,1,0,0,0.1493,submitButton,9.455967078,0.430731066,-0.395084771,1,0,0,2,29,149,47,1,63,69298,blockT,180,2022-02-12_16h48.48.481,orientation adjustment block,2021.2.3,MacIntel,60.0024001,continueButton,,,,,,
,,,,,,,,,,,,,,,,,,,,,,55,51,20,75,221,10,10,0.195140856,-0.281967502,1,0,0,0.2293,submitButton,9.45996732,-0.169328071,-0.404477878,0,0,0,2,30,150,35,1,51,69298,blockT,180,2022-02-12_16h48.48.481,orientation adjustment block,2021.2.3,MacIntel,60.0024001,,,,,,,
,,,,,,,,,,,,,,,,,,,,,,-71.66666667,-40,20,75,-211.6666667,8.333333333,8.333333333,0.388279351,-0.302676188,1,0,0,0.584,submitButton,9.451743715,-0.353288167,-0.409720662,0,0,0,2,31,151,24,1,40,69298,blockT,180,2022-02-12_16h48.48.481,orientation adjustment block,2021.2.3,MacIntel,60.0024001,,,,,,,
,,,,,,,,,,,,,,,,,,,,,,74.44444444,-73,20,75,-49.55555556,23.44444444,23.44444444,0.417886149,-0.306067098,1,0,0,0.2996,submitButton,9.553140097,-0.269015367,-0.398689372,0,0,0,2,32,152,57,1,73,69298,blockT,180,2022-02-12_16h48.48.481,orientation adjustment block,2021.2.3,MacIntel,60.0024001,,,,,,,
,,,,,,,,,,,,,,,,,,,,,,47.22222222,-62,20,75,-43.77777778,18.22222222,18.22222222,0.223700155,-0.308495076,1,0,0,0.0845,submitButton,9.615507594,-0.407079536,-0.410876397,0,0,0,2,33,153,46,1,62,69298,blockT,180,2022-02-12_16h48.48.481,orientation adjustment block,2021.2.3,MacIntel,60.0024001,,,,,,,
,,,,,,,,,,,,,,,,,,,,,,-67.77777778,21,20,75,18.22222222,2.777777778,2.777777778,-0.233806966,-0.391595052,1,0,0,1.7838,submitButton,9.566666667,-0.233806966,-0.391595052,0,0,0,2,34,154,5,1,21,69298,blockT,180,2022-02-12_16h48.48.481,orientation adjustment block,2021.2.3,MacIntel,60.0024001,,,,,,,
,,,,,,,,,,,,,,,,,,,,,,-24.44444444,55,20,75,51.55555556,3.444444444,3.444444444,0.184387004,-0.300031264,1,0,0,0.1001,submitButton,9.523246651,-0.42743693,-0.391482747,0,0,0,2,35,155,39,1,55,69298,blockT,180,2022-02-12_16h48.48.481,orientation adjustment block,2021.2.3,MacIntel,60.0024001,,,,,,,
,,,,,,,,,,,,,,,,,,,,,,27.22222222,-53,20,75,-48.77777778,4.222222222,4.222222222,0.418129747,-0.318930664,1,0,0,0.0325,submitButton,9.485915493,-0.346695523,-0.391741401,0,0,0,2,36,156,37,1,53,69298,blockT,180,2022-02-12_16h48.48.481,orientation adjustment block,2021.2.3,MacIntel,60.0024001,,,,,,,
,,,,,,,,,,,,,,,,,,,,,,-40,31,20,75,35,4,4,0.201113959,-0.287657878,1,0,0,0.6487,submitButton,9.447552448,-0.258420885,-0.410451592,0,0,0,2,37,157,15,1,31,69298,blockT,180,2022-02-12_16h48.48.481,orientation adjustment block,2021.2.3,MacIntel,60.0024001,,,,,,,
,,,,,,,,,,,,,,,,,,,,,,-33.33333333,-38,20,75,-52.33333333,14.33333333,14.33333333,0.168102892,-0.305624457,1,0,0,0.2167,submitButton,9.481481481,-0.326607937,-0.426045058,0,0,0,2,38,158,22,1,38,69298,blockT,180,2022-02-12_16h48.48.481,orientation adjustment block,2021.2.3,MacIntel,60.0024001,,,,,,,
,,,,,,,,,,,,,,,,,,,,,,62.77777778,18,20,75,27.77777778,9.777777778,9.777777778,0.403114963,-0.307834473,1,0,0,0.3158,submitButton,9.483524904,-0.405928887,-0.409405111,0,0,0,2,39,159,2,1,18,69298,blockT,180,2022-02-12_16h48.48.481,orientation adjustment block,2021.2.3,MacIntel,60.0024001,,,,,,,
,,,,,,,,,,,,,,,,,,,,,,-43.33333333,-17,20,75,-32.33333333,15.33333333,15.33333333,0.233225437,-0.314522773,1,0,0,0.1004,submitButton,9.523592085,-0.404385512,-0.421691149,0,0,0,2,40,160,1,1,17,69298,blockT,180,2022-02-12_16h48.48.481,orientation adjustment block,2021.2.3,MacIntel,60.0024001,,,,,,,
,,,,,,,,,,,,,,,,,,,,,,-43.88888889,-32,20,75,-32.88888889,0.888888889,0.888888889,0.215815837,-0.292308011,1,0,0,0.1335,submitButton,9.464852608,-0.298527222,-0.398592665,0,0,0,2,41,161,16,1,32,69298,blockT,180,2022-02-12_16h48.48.481,orientation adjustment block,2021.2.3,MacIntel,60.0024001,,,,,,,
,,,,,,,,,,,,,,,,,,,,,,22.22222222,-61,20,75,-62.77777778,1.777777778,1.777777778,0.389325494,-0.282083876,1,0,0,0.0157,submitButton,9.412912913,-0.385493639,-0.396088121,0,0,0,2,42,162,45,1,61,69298,blockT,180,2022-02-12_16h48.48.481,orientation adjustment block,2021.2.3,MacIntel,60.0024001,,,,,,,
,,,,,,,,,,,,,,,,,,,,,,73.33333333,66,20,75,66.33333333,0.333333333,0.333333333,-0.312131246,-0.406893989,1,0,0,2.4666,submitButton,9.351976137,-0.312131246,-0.406893989,0,0,0,2,43,163,50,1,66,69298,blockT,180,2022-02-12_16h48.48.481,orientation adjustment block,2021.2.3,MacIntel,60.0024001,,,,,,,
,,,,,,,,,,,,,,,,,,,,,,-53.88888889,-70,20,75,-73.88888889,3.888888889,3.888888889,0.22562188,-0.308950127,1,0,0,0.0987,submitButton,9.315555556,0.259456041,-0.403509725,1,0,0,2,44,164,54,1,70,69298,blockT,180,2022-02-12_16h48.48.481,orientation adjustment block,2021.2.3,MacIntel,60.0024001,continueButton,,,,,,
,,,,,,,,,,,,,,,,,,,,,,-33.33333333,39,20,75,26.66666667,12.33333333,12.33333333,0.228553399,-0.306270955,1,0,0,0.0509,submitButton,9.335540839,-0.071614787,-0.389713338,0,0,0,2,45,165,23,1,39,69298,blockT,180,2022-02-12_16h48.48.481,orientation adjustment block,2021.2.3,MacIntel,60.0024001,,,,,,,
,,,,,,,,,,,,,,,,,,,,,,-33.33333333,67,20,75,60.66666667,6.333333333,6.333333333,-0.295043844,-0.381816338,1,0,0,32.1152,submitButton,9.315789474,-0.295043844,-0.381816338,0,0,0,2,46,166,51,1,67,69298,blockT,180,2022-02-12_16h48.48.481,orientation adjustment block,2021.2.3,MacIntel,60.0024001,,,,,,,
,,,,,,,,,,,,,,,,,,,,,,29.44444444,44,20,75,49.44444444,5.444444444,5.444444444,0.383517388,-0.305926921,1,0,0,0.1008,submitButton,9.290486565,0.001388618,-0.177730645,0,0,0,2,47,167,28,1,44,69298,blockT,180,2022-02-12_16h48.48.481,orientation adjustment block,2021.2.3,MacIntel,60.0024001,,,,,,,
,,,,,,,,,,,,,,,,,,,,,,41.66666667,68,20,75,66.66666667,1.333333333,1.333333333,0.445101183,-0.313425836,1,0,0,0.3161,submitButton,9.238816739,-0.218347168,-0.408591919,0,0,0,2,48,168,52,1,68,69298,blockT,180,2022-02-12_16h48.48.481,orientation adjustment block,2021.2.3,MacIntel,60.0024001,,,,,,,
,,,,,,,,,,,,,,,,,,,,,,54.44444444,-22,20,75,-8.555555556,13.44444444,13.44444444,0.408040771,-0.29510159,1,0,0,0.1502,submitButton,9.265949821,-0.019023302,-0.353081801,0,0,0,2,49,169,6,1,22,69298,blockT,180,2022-02-12_16h48.48.481,orientation adjustment block,2021.2.3,MacIntel,60.0024001,,,,,,,
,,,,,,,,,,,,,,,,,,,,,,-73.33333333,-45,20,75,-63.33333333,18.33333333,18.33333333,0.218977525,-0.315169406,1,0,0,0.4498,submitButton,9.324074074,-0.325184292,-0.392377048,0,0,0,2,50,170,29,1,45,69298,blockT,180,2022-02-12_16h48.48.481,orientation adjustment block,2021.2.3,MacIntel,60.0024001,,,,,,,
,,,,,,,,,,,,,,,,,,,,,,-46.66666667,71,20,75,57.33333333,13.66666667,13.66666667,0.226522013,-0.321791178,1,0,0,0.1322,submitButton,9.3517339,-0.474190301,-0.418111369,0,0,0,2,51,171,55,1,71,69298,blockT,180,2022-02-12_16h48.48.481,orientation adjustment block,2021.2.3,MacIntel,60.0024001,,,,,,,
,,,,,,,,,,,,,,,,,,,,,,71.66666667,-52,20,75,-43.33333333,8.666666667,8.666666667,0.423239339,-0.294854058,1,0,0,1.2003,submitButton,9.347398031,-0.182084147,-0.395872599,0,0,0,2,52,172,36,1,52,69298,blockT,180,2022-02-12_16h48.48.481,orientation adjustment block,2021.2.3,MacIntel,60.0024001,,,,,,,
,,,,,,,,,,,,,,,,,,,,,,28.33333333,59,20,75,59.33333333,0.333333333,0.333333333,-0.252433472,-0.376374512,1,0,0,1.2511,submitButton,9.2907058,-0.252433472,-0.376374512,0,0,0,2,53,173,43,1,59,69298,blockT,180,2022-02-12_16h48.48.481,orientation adjustment block,2021.2.3,MacIntel,60.0024001,,,,,,,
,,,,,,,,,,,,,,,,,,,,,,28.88888889,-29,20,75,-25.11111111,3.888888889,3.888888889,0.403780924,-0.30202474,1,0,0,0.0166,submitButton,9.256944444,0.256130642,-0.165779487,0,0,0,2,54,174,13,1,29,69298,blockT,180,2022-02-12_16h48.48.481,orientation adjustment block,2021.2.3,MacIntel,60.0024001,,,,,,,
,,,,,,,,,,,,,,,,,,,,,,-61.66666667,-43,20,75,-43.66666667,0.666666667,0.666666667,0.211632351,-0.285397814,1,0,0,0.1314,submitButton,9.203588682,-0.231086561,-0.390539822,0,0,0,2,55,175,27,1,43,69298,blockT,180,2022-02-12_16h48.48.481,orientation adjustment block,2021.2.3,MacIntel,60.0024001,,,,,,,
,,,,,,,,,,,,,,,,,,,,,,63.33333333,26,20,75,32.33333333,6.333333333,6.333333333,0.364016113,-0.30528673,1,0,0,0.5335,submitButton,9.185871056,0.330410834,-0.261413574,0,0,0,2,56,176,10,1,26,69298,blockT,180,2022-02-12_16h48.48.481,orientation adjustment block,2021.2.3,MacIntel,60.0024001,,,,,,,
,,,,,,,,,,,,,,,,,,,,,,-61.66666667,-37,20,75,-60.66666667,23.66666667,23.66666667,-0.151236979,-0.400849474,1,0,0,1.5315,submitButton,9.274710293,-0.151236979,-0.400849474,0,0,0,2,57,177,21,1,37,69298,blockT,180,2022-02-12_16h48.48.481,orientation adjustment block,2021.2.3,MacIntel,60.0024001,,,,,,,
,,,,,,,,,,,,,,,,,,,,,,-26.11111111,25,20,75,28.88888889,3.888888889,3.888888889,0.21786655,-0.313590291,1,0,0,1.3155,submitButton,9.241869919,0.197713216,-0.190966187,0,0,0,2,58,178,9,1,25,69298,blockT,180,2022-02-12_16h48.48.481,orientation adjustment block,2021.2.3,MacIntel,60.0024001,,,,,,,
,,,,,,,,,,,,,,,,,,,,,,-38.88888889,-58,20,75,-58.88888889,0.888888889,0.888888889,-0.186078016,-0.427106798,1,0,0,1.0501,submitButton,9.191245791,0.054899563,-0.203767429,0,0,0,2,59,179,42,1,58,69298,blockT,180,2022-02-12_16h48.48.481,orientation adjustment block,2021.2.3,MacIntel,60.0024001,,,,,,,
,,,,,,,,,,,,,,,,,,,,,,,,,,,,,,,,,,,,,,,,,,,,,,,,69298,blockT,180,2022-02-12_16h48.48.481,orientation adjustment block,2021.2.3,MacIntel,60.0024001,,0.34427653,-0.397756009,1,0,0,EndButtonTxt
