consentMouse1.x,consentMouse1.y,consentMouse1.leftButton,consentMouse1.midButton,consentMouse1.rightButton,consentMouse1.clicked_name,consent_Mouse.x,consent_Mouse.y,consent_Mouse.leftButton,consent_Mouse.midButton,consent_Mouse.rightButton,consent_Mouse.clicked_name,startMouse.x,startMouse.y,startMouse.leftButton,startMouse.midButton,startMouse.rightButton,startMouse_2.x,startMouse_2.y,startMouse_2.leftButton,startMouse_2.midButton,startMouse_2.rightButton,start_distance,fixedOri,minimalDistance,maxOri,this_ori,accuracy,presented_accuracy,submitMouse.x,submitMouse.y,submitMouse.leftButton,submitMouse.midButton,submitMouse.rightButton,submitMouse.time,submitMouse.clicked_name,block_accuracy,continueMouse.x,continueMouse.y,continueMouse.leftButton,continueMouse.midButton,continueMouse.rightButton,trials.thisRepN,trials.thisTrialN,trials.thisN,trials.thisIndex,trials.ran,startOri,participant,condition,nTrials,date,expName,psychopyVersion,OS,frameRate,continueMouse.clicked_name,EndButtonMouse.x,EndButtonMouse.y,EndButtonMouse.leftButton,EndButtonMouse.midButton,EndButtonMouse.rightButton,EndButtonMouse.clicked_name
0.496296317,-0.399074087,1,0,0,consent_button1,0.419444464,-0.412037051,1,0,0,consent_button,0.062037051,-0.269444456,1,0,0,0.008333347,-0.27314816,1,0,0,39.44444444,66,20,75,125.4444444,59.44444444,59.44444444,0.214814831,-0.306481493,1,0,0,3.1158,submitButton,59.44444444,-0.236111101,-0.403703717,0,0,0,0,0,0,65,1,66,69388,blockT,180,2022-02-10_11h53.31.440,orientation adjustment block,2021.2.3,Win32,59.82292414,,,,,,,
,,,,,,,,,,,,,,,,,,,,,,-23.33333333,48,20,75,-116.3333333,15.66666667,15.66666667,0.425925946,-0.302777846,1,0,0,2.4813,submitButton,37.55555556,0.50462965,-0.415740754,0,0,0,0,1,1,47,1,48,69388,blockT,180,2022-02-10_11h53.31.440,orientation adjustment block,2021.2.3,Win32,59.82292414,,,,,,,
,,,,,,,,,,,,,,,,,,,,,,70,-71,20,75,-49,22,22,0.431481501,-0.309259271,1,0,0,0.5612,submitButton,32.37037037,-0.386111104,-0.425000014,0,0,0,0,2,2,145,1,71,69388,blockT,180,2022-02-10_11h53.31.440,orientation adjustment block,2021.2.3,Win32,59.82292414,,,,,,,
,,,,,,,,,,,,,,,,,,,,,,57.22222222,51,20,75,63.22222222,12.22222222,12.22222222,0.398148167,-0.308333345,1,0,0,0.6618,submitButton,12.22222222,-0.227777768,-0.410185199,0,0,0,0,3,3,50,1,51,69388,blockT,180,2022-02-10_11h53.31.440,orientation adjustment block,2021.2.3,Win32,59.82292414,,,,,,,
,,,,,,,,,,,,,,,,,,,,,,51.11111111,-70,20,75,-56.88888889,13.11111111,13.11111111,0.450925946,-0.300000012,1,0,0,0.2328,submitButton,12.66666667,-0.32314814,-0.428703718,0,0,0,0,4,4,69,1,70,69388,blockT,180,2022-02-10_11h53.31.440,orientation adjustment block,2021.2.3,Win32,59.82292414,,,,,,,
,,,,,,,,,,,,,,,,,,,,,,67.77777778,74,20,75,68.77777778,5.222222222,5.222222222,0.403703723,-0.308333345,1,0,0,0.6115,submitButton,10.18518519,-0.220370304,-0.401851865,0,0,0,0,5,5,148,1,74,69388,blockT,180,2022-02-10_11h53.31.440,orientation adjustment block,2021.2.3,Win32,59.82292414,,,,,,,
,,,,,,,,,,,,,,,,,,,,,,40,21,20,75,28,7,7,-0.249074065,-0.39629631,1,0,0,1.9161,submitButton,7,-0.235185175,-0.423148218,0,0,0,0,6,6,20,1,21,69388,blockT,180,2022-02-10_11h53.31.440,orientation adjustment block,2021.2.3,Win32,59.82292414,,,,,,,
,,,,,,,,,,,,,,,,,,,,,,32.77777778,42,20,75,41.77777778,0.222222222,0.222222222,-0.264814806,-0.376851921,1,0,0,0.9284,submitButton,3.611111111,-0.258333324,-0.382407421,0,0,0,0,7,7,41,1,42,69388,blockT,180,2022-02-10_11h53.31.440,orientation adjustment block,2021.2.3,Win32,59.82292414,,,,,,,
,,,,,,,,,,,,,,,,,,,,,,52.22222222,65,20,75,70.22222222,5.222222222,5.222222222,-0.234259193,-0.383333346,1,0,0,1.3166,submitButton,4.148148148,-0.218518509,-0.372222292,0,0,0,0,8,8,139,1,65,69388,blockT,180,2022-02-10_11h53.31.440,orientation adjustment block,2021.2.3,Win32,59.82292414,,,,,,,
,,,,,,,,,,,,,,,,,,,,,,-31.66666667,22,20,75,-152.6666667,5.333333333,5.333333333,0.441666686,-0.301851864,1,0,0,1.5492,submitButton,5.333333333,-0.187962896,-0.39629631,0,0,0,0,9,9,21,1,22,69388,blockT,180,2022-02-10_11h53.31.440,orientation adjustment block,2021.2.3,Win32,59.82292414,,,,,,,
,,,,,,,,,,,,,,,,,,,,,,48.33333333,-73,20,75,108.3333333,1.333333333,1.333333333,0.194444461,-0.313888901,1,0,0,1.7443,submitButton,3.333333333,-0.358333325,-0.392592606,0,0,0,0,10,10,147,1,73,69388,blockT,180,2022-02-10_11h53.31.440,orientation adjustment block,2021.2.3,Win32,59.82292414,,,,,,,
,,,,,,,,,,,,,,,,,,,,,,50.55555556,26,20,75,14.55555556,11.44444444,11.44444444,0.444444464,-0.312037106,1,0,0,0.2114,submitButton,6.037037037,-0.311111103,-0.401851865,0,0,0,0,11,11,100,1,26,69388,blockT,180,2022-02-10_11h53.31.440,orientation adjustment block,2021.2.3,Win32,59.82292414,,,,,,,
,,,,,,,,,,,,,,,,,,,,,,-20.55555556,82,20,75,103.4444444,21.44444444,21.44444444,0.200000016,-0.320370383,1,0,0,0.3951,submitButton,21.44444444,-0.193518508,-0.40000007,0,0,0,0,12,12,81,1,82,69388,blockT,180,2022-02-10_11h53.31.440,orientation adjustment block,2021.2.3,Win32,59.82292414,,,,,,,
,,,,,,,,,,,,,,,,,,,,,,25,36,20,75,25,11,11,-0.226851842,-0.415740754,1,0,0,0.9003,submitButton,16.22222222,-0.224074064,-0.418518589,0,0,0,0,13,13,110,1,36,69388,blockT,180,2022-02-10_11h53.31.440,orientation adjustment block,2021.2.3,Win32,59.82292414,,,,,,,
,,,,,,,,,,,,,,,,,,,,,,-31.66666667,66,20,75,64.33333333,1.666666667,1.666666667,0.219444461,-0.333333346,1,0,0,0.4607,submitButton,11.37037037,0.342592611,-0.410185199,1,0,0,0,14,14,140,1,66,69388,blockT,180,2022-02-10_11h53.31.440,orientation adjustment block,2021.2.3,Win32,59.82292414,continueButton,,,,,,
,,,,,,,,,,,,,,,,,,,,,,-67.77777778,64,20,75,-120.7777778,4.777777778,4.777777778,0.415740873,-0.330555624,1,0,0,1.5153,submitButton,4.777777778,-0.139814804,-0.437962977,0,0,0,0,15,15,63,1,64,69388,blockT,180,2022-02-10_11h53.31.440,orientation adjustment block,2021.2.3,Win32,59.82292414,,,,,,,
,,,,,,,,,,,,,,,,,,,,,,-57.22222222,74,20,75,67.77777778,6.222222222,6.222222222,0.234259276,-0.340740753,1,0,0,0.611,submitButton,5.5,-0.266666601,-0.408333347,0,0,0,0,16,16,73,1,74,69388,blockT,180,2022-02-10_11h53.31.440,orientation adjustment block,2021.2.3,Win32,59.82292414,,,,,,,
,,,,,,,,,,,,,,,,,,,,,,31.11111111,-44,20,75,-39.88888889,4.111111111,4.111111111,0.523148169,-0.290740753,1,0,0,0.0834,submitButton,5.037037037,-0.206481415,-0.398148162,0,0,0,0,17,17,43,1,44,69388,blockT,180,2022-02-10_11h53.31.440,orientation adjustment block,2021.2.3,Win32,59.82292414,,,,,,,
,,,,,,,,,,,,,,,,,,,,,,-21.11111111,-20,20,75,-16.11111111,3.888888889,3.888888889,0.234259276,-0.331481494,1,0,0,0.0451,submitButton,4.75,-0.12685184,-0.339814884,0,0,0,0,18,18,94,1,20,69388,blockT,180,2022-02-10_11h53.31.440,orientation adjustment block,2021.2.3,Win32,59.82292414,,,,,,,
,,,,,,,,,,,,,,,,,,,,,,71.11111111,-18,20,75,-20.88888889,2.888888889,2.888888889,-0.270370361,-0.412962977,1,0,0,2.3279,submitButton,4.377777778,-0.26388888,-0.410185199,0,0,0,0,19,19,92,1,18,69388,blockT,180,2022-02-10_11h53.31.440,orientation adjustment block,2021.2.3,Win32,59.82292414,,,,,,,
,,,,,,,,,,,,,,,,,,,,,,-37.22222222,-10,20,75,-17.22222222,7.222222222,7.222222222,-0.270370361,-0.4046297,1,0,0,1.2779,submitButton,4.851851852,0.31388902,-0.350925939,0,0,0,0,20,20,9,1,10,69388,blockT,180,2022-02-10_11h53.31.440,orientation adjustment block,2021.2.3,Win32,59.82292414,,,,,,,
,,,,,,,,,,,,,,,,,,,,,,43.33333333,-68,20,75,-59.66666667,8.333333333,8.333333333,0.411111244,-0.300000012,1,0,0,0.1612,submitButton,5.349206349,-0.335185177,-0.407407421,0,0,0,0,21,21,67,1,68,69388,blockT,180,2022-02-10_11h53.31.440,orientation adjustment block,2021.2.3,Win32,59.82292414,,,,,,,
,,,,,,,,,,,,,,,,,,,,,,31.11111111,-24,20,75,-36.88888889,12.88888889,12.88888889,0.200000016,-0.317592605,1,0,0,0.1715,submitButton,6.291666667,0.296296314,-0.322222234,0,0,0,0,22,22,98,1,24,69388,blockT,180,2022-02-10_11h53.31.440,orientation adjustment block,2021.2.3,Win32,59.82292414,,,,,,,
,,,,,,,,,,,,,,,,,,,,,,49.44444444,-16,20,75,-32.55555556,16.55555556,16.55555556,-0.209259249,-0.431481495,1,0,0,1.1997,submitButton,7.432098765,-0.148148137,-0.400925939,0,0,0,0,23,23,90,1,16,69388,blockT,180,2022-02-10_11h53.31.440,orientation adjustment block,2021.2.3,Win32,59.82292414,,,,,,,
,,,,,,,,,,,,,,,,,,,,,,-58.88888889,84,20,75,101.1111111,17.11111111,17.11111111,-0.255555546,-0.406481495,1,0,0,2.1827,submitButton,8.4,-0.212962953,-0.411111125,0,0,0,0,24,24,83,1,84,69388,blockT,180,2022-02-10_11h53.31.440,orientation adjustment block,2021.2.3,Win32,59.82292414,,,,,,,
,,,,,,,,,,,,,,,,,,,,,,-27.22222222,-31,20,75,-30.22222222,0.777777778,0.777777778,-0.350925918,-0.398148162,1,0,0,0.6116,submitButton,7.707070707,-0.055555543,-0.41666668,0,0,0,0,25,25,30,1,31,69388,blockT,180,2022-02-10_11h53.31.440,orientation adjustment block,2021.2.3,Win32,59.82292414,,,,,,,
,,,,,,,,,,,,,,,,,,,,,,48.88888889,77,20,75,79.88888889,2.888888889,2.888888889,-0.286111102,-0.412037051,1,0,0,1.6449,submitButton,7.305555556,-0.282407398,-0.411111125,0,0,0,0,26,26,76,1,77,69388,blockT,180,2022-02-10_11h53.31.440,orientation adjustment block,2021.2.3,Win32,59.82292414,,,,,,,
,,,,,,,,,,,,,,,,,,,,,,65,58,20,75,61,3,3,-0.203703693,-0.414814828,1,0,0,1.4776,submitButton,6.974358974,-0.162962952,-0.405555569,0,0,0,0,27,27,132,1,58,69388,blockT,180,2022-02-10_11h53.31.440,orientation adjustment block,2021.2.3,Win32,59.82292414,,,,,,,
,,,,,,,,,,,,,,,,,,,,,,-57.22222222,48,20,75,-113.2222222,18.77777778,18.77777778,0.422222242,-0.329629642,1,0,0,1.3837,submitButton,7.817460317,0.402777797,-0.346296309,0,0,0,0,28,28,122,1,48,69388,blockT,180,2022-02-10_11h53.31.440,orientation adjustment block,2021.2.3,Win32,59.82292414,,,,,,,
,,,,,,,,,,,,,,,,,,,,,,-38.88888889,75,20,75,66.11111111,8.888888889,8.888888889,-0.19074073,-0.373148161,1,0,0,1.0989,submitButton,7.888888889,0.417592612,-0.400925939,1,0,0,0,29,29,74,1,75,69388,blockT,180,2022-02-10_11h53.31.440,orientation adjustment block,2021.2.3,Win32,59.82292414,continueButton,,,,,,
,,,,,,,,,,,,,,,,,,,,,,-49.44444444,30,20,75,26.55555556,3.444444444,3.444444444,-0.317592584,-0.402777791,1,0,0,0.7939,submitButton,7.611111111,0.256481499,-0.345370383,0,0,0,0,30,30,29,1,30,69388,blockT,180,2022-02-10_11h53.31.440,orientation adjustment block,2021.2.3,Win32,59.82292414,,,,,,,
,,,,,,,,,,,,,,,,,,,,,,-20.55555556,-80,20,75,-75.55555556,4.444444444,4.444444444,-0.208333323,-0.375000013,1,0,0,0.7778,submitButton,7.424836601,0.45000002,-0.339814884,0,0,0,0,31,31,79,1,80,69388,blockT,180,2022-02-10_11h53.31.440,orientation adjustment block,2021.2.3,Win32,59.82292414,,,,,,,
,,,,,,,,,,,,,,,,,,,,,,71.66666667,-27,20,75,130.6666667,22.33333333,22.33333333,0.225925943,-0.310185197,1,0,0,1.212,submitButton,8.25308642,-0.205555545,-0.341666679,0,0,0,0,32,32,101,1,27,69388,blockT,180,2022-02-10_11h53.31.440,orientation adjustment block,2021.2.3,Win32,59.82292414,,,,,,,
,,,,,,,,,,,,,,,,,,,,,,-42.22222222,-46,20,75,-48.22222222,2.222222222,2.222222222,-0.300925917,-0.371296309,1,0,0,0.3953,submitButton,7.935672515,0.196296312,-0.350925939,0,0,0,0,33,33,45,1,46,69388,blockT,180,2022-02-10_11h53.31.440,orientation adjustment block,2021.2.3,Win32,59.82292414,,,,,,,
,,,,,,,,,,,,,,,,,,,,,,-51.11111111,-19,20,75,-8.111111111,10.88888889,10.88888889,0.175000016,-0.316666735,1,0,0,0.7827,submitButton,8.083333333,0.432407427,-0.316666735,0,0,0,0,34,34,93,1,19,69388,blockT,180,2022-02-10_11h53.31.440,orientation adjustment block,2021.2.3,Win32,59.82292414,,,,,,,
,,,,,,,,,,,,,,,,,,,,,,60.55555556,67,20,75,62.55555556,4.444444444,4.444444444,0.427777797,-0.298148217,1,0,0,0.4166,submitButton,7.91005291,0.224074091,-0.336111124,0,0,0,0,35,35,66,1,67,69388,blockT,180,2022-02-10_11h53.31.440,orientation adjustment block,2021.2.3,Win32,59.82292414,,,,,,,
,,,,,,,,,,,,,,,,,,,,,,60.55555556,52,20,75,58.55555556,6.555555556,6.555555556,-0.199074064,-0.428703718,1,0,0,0.7302,submitButton,7.848484848,0.256481499,-0.214814882,0,0,0,0,36,36,126,1,52,69388,blockT,180,2022-02-10_11h53.31.440,orientation adjustment block,2021.2.3,Win32,59.82292414,,,,,,,
,,,,,,,,,,,,,,,,,,,,,,66.11111111,41,20,75,36.11111111,4.888888889,4.888888889,-0.271296231,-0.42129631,1,0,0,1.0774,submitButton,7.719806763,0.094444459,-0.375000013,0,0,0,0,37,37,115,1,41,69388,blockT,180,2022-02-10_11h53.31.440,orientation adjustment block,2021.2.3,Win32,59.82292414,,,,,,,
,,,,,,,,,,,,,,,,,,,,,,67.77777778,5,20,75,15.77777778,10.77777778,10.77777778,-0.269444435,-0.435185199,1,0,0,1.027,submitButton,7.847222222,0.130555571,-0.310185197,0,0,0,0,38,38,4,1,5,69388,blockT,180,2022-02-10_11h53.31.440,orientation adjustment block,2021.2.3,Win32,59.82292414,,,,,,,
,,,,,,,,,,,,,,,,,,,,,,-47.22222222,49,20,75,35.77777778,13.22222222,13.22222222,-0.423148141,-0.333333346,1,0,0,1.278,submitButton,8.062222222,0.205555572,-0.353703773,0,0,0,0,39,39,48,1,49,69388,blockT,180,2022-02-10_11h53.31.440,orientation adjustment block,2021.2.3,Win32,59.82292414,,,,,,,
,,,,,,,,,,,,,,,,,,,,,,-61.66666667,-55,20,75,-61.66666667,6.666666667,6.666666667,-0.217592583,-0.4046297,1,0,0,0.7613,submitButton,8.008547009,0.161111127,-0.36203705,0,0,0,0,40,40,129,1,55,69388,blockT,180,2022-02-10_11h53.31.440,orientation adjustment block,2021.2.3,Win32,59.82292414,,,,,,,
,,,,,,,,,,,,,,,,,,,,,,66.11111111,20,20,75,14.11111111,5.888888889,5.888888889,-0.37314814,-0.408333347,1,0,0,1.261,submitButton,7.930041152,0.379629649,-0.335185254,0,0,0,0,41,41,19,1,20,69388,blockT,180,2022-02-10_11h53.31.440,orientation adjustment block,2021.2.3,Win32,59.82292414,,,,,,,
,,,,,,,,,,,,,,,,,,,,,,-67.77777778,-21,20,75,-12.77777778,8.222222222,8.222222222,0.219444461,-0.300000012,1,0,0,1.7659,submitButton,7.94047619,0.393518538,-0.32314816,0,0,0,0,42,42,95,1,21,69388,blockT,180,2022-02-10_11h53.31.440,orientation adjustment block,2021.2.3,Win32,59.82292414,,,,,,,
,,,,,,,,,,,,,,,,,,,,,,44.44444444,-3,20,75,-10.55555556,7.555555556,7.555555556,-0.461111105,-0.325000012,1,0,0,1.5437,submitButton,7.927203065,0.002777791,-0.274074086,0,0,0,0,43,43,2,1,3,69388,blockT,180,2022-02-10_11h53.31.440,orientation adjustment block,2021.2.3,Win32,59.82292414,,,,,,,
,,,,,,,,,,,,,,,,,,,,,,32.77777778,-28,20,75,-23.22222222,4.777777778,4.777777778,0.488888909,-0.278703715,1,0,0,0.1716,submitButton,7.822222222,0.321296314,-0.403703717,1,0,0,0,44,44,27,1,28,69388,blockT,180,2022-02-10_11h53.31.440,orientation adjustment block,2021.2.3,Win32,59.82292414,continueButton,,,,,,
,,,,,,,,,,,,,,,,,,,,,,-29.44444444,-18,20,75,-18.44444444,0.444444444,0.444444444,-0.287962954,-0.392592606,1,0,0,0.9446,submitButton,7.584229391,0.16944446,-0.214814882,0,0,0,0,45,45,17,1,18,69388,blockT,180,2022-02-10_11h53.31.440,orientation adjustment block,2021.2.3,Win32,59.82292414,,,,,,,
,,,,,,,,,,,,,,,,,,,,,,22.77777778,43,20,75,35.77777778,7.222222222,7.222222222,0.411111244,-0.284259327,1,0,0,0.4207,submitButton,7.572916667,0.100000015,-0.295370382,0,0,0,0,46,46,42,1,43,69388,blockT,180,2022-02-10_11h53.31.440,orientation adjustment block,2021.2.3,Win32,59.82292414,,,,,,,
,,,,,,,,,,,,,,,,,,,,,,-35.55555556,-26,20,75,-14.55555556,11.44444444,11.44444444,-0.175925915,-0.392592606,1,0,0,0.8009,submitButton,7.69023569,-0.199074064,-0.36203705,0,0,0,0,47,47,25,1,26,69388,blockT,180,2022-02-10_11h53.31.440,orientation adjustment block,2021.2.3,Win32,59.82292414,,,,,,,
,,,,,,,,,,,,,,,,,,,,,,60,58,20,75,215,23,23,-0.249074065,-0.381481551,1,0,0,1.6613,submitButton,8.140522876,0.344444463,-0.229629641,0,0,0,0,48,48,57,1,58,69388,blockT,180,2022-02-10_11h53.31.440,orientation adjustment block,2021.2.3,Win32,59.82292414,,,,,,,
,,,,,,,,,,,,,,,,,,,,,,64.44444444,63,20,75,228.4444444,14.55555556,14.55555556,0.207407424,-0.315740753,1,0,0,1.3112,submitButton,8.323809524,0.173148164,-0.350000013,0,0,0,0,49,49,137,1,63,69388,blockT,180,2022-02-10_11h53.31.440,orientation adjustment block,2021.2.3,Win32,59.82292414,,,,,,,
,,,,,,,,,,,,,,,,,,,,,,30,-6,20,75,-24,18,18,0.398148167,-0.296296308,1,0,0,0.4618,submitButton,8.592592593,0.192592609,-0.330555624,0,0,0,0,50,50,5,1,6,69388,blockT,180,2022-02-10_11h53.31.440,orientation adjustment block,2021.2.3,Win32,59.82292414,,,,,,,
,,,,,,,,,,,,,,,,,,,,,,-58.88888889,53,20,75,49.11111111,3.888888889,3.888888889,-0.447222216,-0.427777848,1,0,0,1.2493,submitButton,8.465465465,-0.12777771,-0.36666668,0,0,0,0,51,51,52,1,53,69388,blockT,180,2022-02-10_11h53.31.440,orientation adjustment block,2021.2.3,Win32,59.82292414,,,,,,,
,,,,,,,,,,,,,,,,,,,,,,35.55555556,35,20,75,42.55555556,7.555555556,7.555555556,0.389814834,-0.280555567,1,0,0,0.0331,submitButton,8.441520468,0.319444462,-0.303703716,0,0,0,0,52,52,109,1,35,69388,blockT,180,2022-02-10_11h53.31.440,orientation adjustment block,2021.2.3,Win32,59.82292414,,,,,,,
,,,,,,,,,,,,,,,,,,,,,,72.77777778,43,20,75,205.7777778,17.22222222,17.22222222,-0.205555545,-0.400925939,1,0,0,1.7497,submitButton,8.666666667,0.103703718,-0.325925995,0,0,0,0,53,53,117,1,43,69388,blockT,180,2022-02-10_11h53.31.440,orientation adjustment block,2021.2.3,Win32,59.82292414,,,,,,,
,,,,,,,,,,,,,,,,,,,,,,-66.11111111,29,20,75,38.88888889,9.888888889,9.888888889,-0.185185175,-0.393518532,1,0,0,1.1781,submitButton,8.697222222,0.236111128,-0.314814827,0,0,0,0,54,54,28,1,29,69388,blockT,180,2022-02-10_11h53.31.440,orientation adjustment block,2021.2.3,Win32,59.82292414,,,,,,,
,,,,,,,,,,,,,,,,,,,,,,-36.66666667,49,20,75,33.33333333,15.66666667,15.66666667,-0.299074065,-0.407407421,1,0,0,0.55,submitButton,8.867208672,0.097222237,-0.329629642,0,0,0,0,55,55,123,1,49,69388,blockT,180,2022-02-10_11h53.31.440,orientation adjustment block,2021.2.3,Win32,59.82292414,,,,,,,
,,,,,,,,,,,,,,,,,,,,,,60.55555556,14,20,75,23.55555556,9.555555556,9.555555556,0.367592611,-0.308333345,1,0,0,0.0341,submitButton,8.883597884,0.280555573,-0.305555568,0,0,0,0,56,56,13,1,14,69388,blockT,180,2022-02-10_11h53.31.440,orientation adjustment block,2021.2.3,Win32,59.82292414,,,,,,,
,,,,,,,,,,,,,,,,,,,,,,59.44444444,-60,20,75,-42.55555556,17.44444444,17.44444444,-0.205555545,-0.440740755,1,0,0,0.8999,submitButton,9.082687339,-0.121296285,-0.414814828,0,0,0,0,57,57,59,1,60,69388,blockT,180,2022-02-10_11h53.31.440,orientation adjustment block,2021.2.3,Win32,59.82292414,,,,,,,
,,,,,,,,,,,,,,,,,,,,,,53.33333333,-29,20,75,-33.66666667,4.666666667,4.666666667,-0.145370359,-0.449074088,1,0,0,0.9949,submitButton,8.982323232,-0.139814804,-0.401851865,0,0,0,0,58,58,103,1,29,69388,blockT,180,2022-02-10_11h53.31.440,orientation adjustment block,2021.2.3,Win32,59.82292414,,,,,,,
,,,,,,,,,,,,,,,,,,,,,,-75,-35,20,75,-215,0,0,-0.183333266,-0.394444458,1,0,0,1.8609,submitButton,8.782716049,0.460185205,-0.392592606,1,0,0,0,59,59,34,1,35,69388,blockT,180,2022-02-10_11h53.31.440,orientation adjustment block,2021.2.3,Win32,59.82292414,continueButton,,,,,,
,,,,,,,,,,,,,,,,,,,,,,-47.22222222,79,20,75,71.77777778,7.222222222,7.222222222,-0.17037036,-0.377777791,1,0,0,0.6838,submitButton,8.748792271,0.226851868,-0.433333347,0,0,0,0,60,60,78,1,79,69388,blockT,180,2022-02-10_11h53.31.440,orientation adjustment block,2021.2.3,Win32,59.82292414,,,,,,,
,,,,,,,,,,,,,,,,,,,,,,-45,-83,20,75,-241,22,22,0.429629762,-0.303703716,1,0,0,0.0837,submitButton,9.030732861,0.014814828,0.168518514,0,0,0,0,61,61,82,1,83,69388,blockT,180,2022-02-10_11h53.31.440,orientation adjustment block,2021.2.3,Win32,59.82292414,,,,,,,
,,,,,,,,,,,,,,,,,,,,,,-69.44444444,13,20,75,37.55555556,24.55555556,24.55555556,-0.093518507,-0.374074087,1,0,0,1.5497,submitButton,9.354166667,0.170370386,-0.305555568,0,0,0,0,62,62,12,1,13,69388,blockT,180,2022-02-10_11h53.31.440,orientation adjustment block,2021.2.3,Win32,59.82292414,,,,,,,
,,,,,,,,,,,,,,,,,,,,,,-40,38,20,75,46,8,8,-0.12314808,-0.381481551,1,0,0,0.5797,submitButton,9.326530612,0.202777794,-0.35277779,0,0,0,0,63,63,37,1,38,69388,blockT,180,2022-02-10_11h53.31.440,orientation adjustment block,2021.2.3,Win32,59.82292414,,,,,,,
,,,,,,,,,,,,,,,,,,,,,,23.88888889,62,20,75,38.88888889,23.11111111,23.11111111,-0.13240734,-0.389814828,1,0,0,1.0164,submitButton,9.602222222,0.378703836,-0.230555566,0,0,0,0,64,64,61,1,62,69388,blockT,180,2022-02-10_11h53.31.440,orientation adjustment block,2021.2.3,Win32,59.82292414,,,,,,,
,,,,,,,,,,,,,,,,,,,,,,35.55555556,-11,20,75,-29.44444444,18.44444444,18.44444444,-0.265740731,-0.411111125,1,0,0,0.978,submitButton,9.775599129,-0.159259248,-0.370370383,0,0,0,0,65,65,10,1,11,69388,blockT,180,2022-02-10_11h53.31.440,orientation adjustment block,2021.2.3,Win32,59.82292414,,,,,,,
,,,,,,,,,,,,,,,,,,,,,,-31.66666667,-16,20,75,-19.66666667,3.666666667,3.666666667,0.180555571,-0.310185197,1,0,0,0.0169,submitButton,9.658119658,0.259259276,-0.300925938,0,0,0,0,66,66,15,1,16,69388,blockT,180,2022-02-10_11h53.31.440,orientation adjustment block,2021.2.3,Win32,59.82292414,,,,,,,
,,,,,,,,,,,,,,,,,,,,,,64.44444444,-56,20,75,-44.55555556,11.44444444,11.44444444,-0.218518509,-0.39537044,1,0,0,0.9275,submitButton,9.691823899,-0.299074065,-0.08611112,0,0,0,0,67,67,130,1,56,69388,blockT,180,2022-02-10_11h53.31.440,orientation adjustment block,2021.2.3,Win32,59.82292414,,,,,,,
,,,,,,,,,,,,,,,,,,,,,,-53.33333333,61,20,75,38.66666667,22.33333333,22.33333333,0.209259276,-0.300000012,1,0,0,0.0613,submitButton,9.925925926,0.532407429,-0.305555568,0,0,0,0,68,68,60,1,61,69388,blockT,180,2022-02-10_11h53.31.440,orientation adjustment block,2021.2.3,Win32,59.82292414,,,,,,,
,,,,,,,,,,,,,,,,,,,,,,52.22222222,67,20,75,229.2222222,17.77777778,17.77777778,0.23333335,-0.311111123,1,0,0,1.4953,submitButton,10.06868687,0.350926057,-0.287962975,0,0,0,0,69,69,141,1,67,69388,blockT,180,2022-02-10_11h53.31.440,orientation adjustment block,2021.2.3,Win32,59.82292414,,,,,,,
,,,,,,,,,,,,,,,,,,,,,,65.55555556,-56,20,75,-61.44444444,5.444444444,5.444444444,-0.1361111,-0.408333347,1,0,0,1.0776,submitButton,9.986111111,0.037962977,-0.314814827,0,0,0,0,70,70,55,1,56,69388,blockT,180,2022-02-10_11h53.31.440,orientation adjustment block,2021.2.3,Win32,59.82292414,,,,,,,
,,,,,,,,,,,,,,,,,,,,,,63.88888889,-41,20,75,-50.11111111,9.111111111,9.111111111,-0.119444433,-0.39537044,1,0,0,1.3447,submitButton,9.970760234,0.003703717,-0.295370382,0,0,0,0,71,71,40,1,41,69388,blockT,180,2022-02-10_11h53.31.440,orientation adjustment block,2021.2.3,Win32,59.82292414,,,,,,,
,,,,,,,,,,,,,,,,,,,,,,48.88888889,54,20,75,234.8888889,0.888888889,0.888888889,-0.297222213,-0.42129631,1,0,0,1.8784,submitButton,9.814176245,0.161111127,-0.308333345,0,0,0,0,72,72,128,1,54,69388,blockT,180,2022-02-10_11h53.31.440,orientation adjustment block,2021.2.3,Win32,59.82292414,,,,,,,
,,,,,,,,,,,,,,,,,,,,,,38.33333333,9,20,75,16.33333333,7.333333333,7.333333333,-0.271296231,-0.407407421,1,0,0,0.7105,submitButton,9.77212806,0.375000019,-0.308333345,0,0,0,0,73,73,8,1,9,69388,blockT,180,2022-02-10_11h53.31.440,orientation adjustment block,2021.2.3,Win32,59.82292414,,,,,,,
,,,,,,,,,,,,,,,,,,,,,,23.33333333,-19,20,75,-37.66666667,18.66666667,18.66666667,-0.134259248,-0.407407421,1,0,0,0.5111,submitButton,9.92037037,0.425925946,-0.414814828,1,0,0,0,74,74,18,1,19,69388,blockT,180,2022-02-10_11h53.31.440,orientation adjustment block,2021.2.3,Win32,59.82292414,continueButton,,,,,,
,,,,,,,,,,,,,,,,,,,,,,45.55555556,33,20,75,23.55555556,9.444444444,9.444444444,0.460185205,-0.275000068,1,0,0,0.0494,submitButton,9.912568306,0.31388902,-0.345370383,0,0,0,0,75,75,32,1,33,69388,blockT,180,2022-02-10_11h53.31.440,orientation adjustment block,2021.2.3,Win32,59.82292414,,,,,,,
,,,,,,,,,,,,,,,,,,,,,,-61.66666667,-73,20,75,-242.6666667,10.33333333,10.33333333,-0.216666657,-0.402777791,1,0,0,1.9108,submitButton,9.919354839,0.270370388,-0.371296309,0,0,0,0,76,76,72,1,73,69388,blockT,180,2022-02-10_11h53.31.440,orientation adjustment block,2021.2.3,Win32,59.82292414,,,,,,,
,,,,,,,,,,,,,,,,,,,,,,66.11111111,-75,20,75,-72.88888889,2.111111111,2.111111111,-0.28518512,-0.380555569,1,0,0,0.8107,submitButton,9.795414462,0.425000133,-0.337962975,0,0,0,0,77,77,149,1,75,69388,blockT,180,2022-02-10_11h53.31.440,orientation adjustment block,2021.2.3,Win32,59.82292414,,,,,,,
,,,,,,,,,,,,,,,,,,,,,,66.66666667,62,20,75,227.6666667,14.33333333,14.33333333,-0.333333325,-0.390740811,1,0,0,1.4439,submitButton,9.866319444,0.349074093,-0.318518531,0,0,0,0,78,78,136,1,62,69388,blockT,180,2022-02-10_11h53.31.440,orientation adjustment block,2021.2.3,Win32,59.82292414,,,,,,,
,,,,,,,,,,,,,,,,,,,,,,-33.88888889,38,20,75,43.11111111,5.111111111,5.111111111,-0.225925916,-0.388888902,1,0,0,0.7446,submitButton,9.793162393,0.088888903,-0.330555624,0,0,0,0,79,79,112,1,38,69388,blockT,180,2022-02-10_11h53.31.440,orientation adjustment block,2021.2.3,Win32,59.82292414,,,,,,,
,,,,,,,,,,,,,,,,,,,,,,63.88888889,36,20,75,221.8888889,5.888888889,5.888888889,-0.185185175,-0.408333347,1,0,0,2.0112,submitButton,9.734006734,0.166666682,-0.315740753,0,0,0,0,80,80,35,1,36,69388,blockT,180,2022-02-10_11h53.31.440,orientation adjustment block,2021.2.3,Win32,59.82292414,,,,,,,
,,,,,,,,,,,,,,,,,,,,,,-30,85,20,75,71,14,14,0.401851984,-0.325925995,1,0,0,0.8942,submitButton,9.797678275,0.232407424,-0.350000013,0,0,0,0,81,81,84,1,85,69388,blockT,180,2022-02-10_11h53.31.440,orientation adjustment block,2021.2.3,Win32,59.82292414,,,,,,,
,,,,,,,,,,,,,,,,,,,,,,45.55555556,-8,20,75,-16.44444444,8.444444444,8.444444444,-0.219444434,-0.415740754,1,0,0,0.8285,submitButton,9.777777778,0.384259278,-0.316666735,0,0,0,0,82,82,7,1,8,69388,blockT,180,2022-02-10_11h53.31.440,orientation adjustment block,2021.2.3,Win32,59.82292414,,,,,,,
,,,,,,,,,,,,,,,,,,,,,,-42.22222222,90,20,75,89.77777778,0.222222222,0.222222222,0.405555575,-0.299074086,1,0,0,0.9445,submitButton,9.639291465,0.059259273,-0.340740753,0,0,0,0,83,83,89,1,90,69388,blockT,180,2022-02-10_11h53.31.440,orientation adjustment block,2021.2.3,Win32,59.82292414,,,,,,,
,,,,,,,,,,,,,,,,,,,,,,40,-69,20,75,125,14,14,0.17407409,-0.319444457,1,0,0,1.9444,submitButton,9.701587302,0.194444461,-0.32314816,0,0,0,0,84,84,143,1,69,69388,blockT,180,2022-02-10_11h53.31.440,orientation adjustment block,2021.2.3,Win32,59.82292414,,,,,,,
,,,,,,,,,,,,,,,,,,,,,,-25,-37,20,75,-33,4,4,-0.221296286,-0.364814828,1,0,0,0.5114,submitButton,9.621283255,0.194444461,-0.335185254,0,0,0,0,85,85,111,1,37,69388,blockT,180,2022-02-10_11h53.31.440,orientation adjustment block,2021.2.3,Win32,59.82292414,,,,,,,
,,,,,,,,,,,,,,,,,,,,,,-20,-39,20,75,-21,18,18,-0.114814803,-0.386111181,1,0,0,0.5611,submitButton,9.737654321,0.173148164,-0.325000012,0,0,0,0,86,86,38,1,39,69388,blockT,180,2022-02-10_11h53.31.440,orientation adjustment block,2021.2.3,Win32,59.82292414,,,,,,,
,,,,,,,,,,,,,,,,,,,,,,-56.66666667,-76,20,75,-222.6666667,33.33333333,33.33333333,0.425000133,-0.310185197,1,0,0,0.0714,submitButton,10.0608828,0.14444446,-0.353703773,0,0,0,0,87,87,75,1,76,69388,blockT,180,2022-02-10_11h53.31.440,orientation adjustment block,2021.2.3,Win32,59.82292414,,,,,,,
,,,,,,,,,,,,,,,,,,,,,,40.55555556,23,20,75,25.55555556,2.555555556,2.555555556,0.422222242,-0.300000012,1,0,0,0.1662,submitButton,9.959459459,0.30462976,-0.343518531,0,0,0,0,88,88,22,1,23,69388,blockT,180,2022-02-10_11h53.31.440,orientation adjustment block,2021.2.3,Win32,59.82292414,,,,,,,
,,,,,,,,,,,,,,,,,,,,,,-72.77777778,-87,20,75,-71.77777778,15.22222222,15.22222222,-0.338888881,-0.401851865,1,0,0,1.4108,submitButton,10.02962963,0.510185206,-0.417592606,1,0,0,0,89,89,86,1,87,69388,blockT,180,2022-02-10_11h53.31.440,orientation adjustment block,2021.2.3,Win32,59.82292414,continueButton,,,,,,
,,,,,,,,,,,,,,,,,,,,,,61.66666667,30,20,75,39.66666667,9.666666667,9.666666667,0.31851865,-0.282407419,1,0,0,0.0171,submitButton,10.0248538,0.371296315,-0.284259327,0,0,0,0,90,90,104,1,30,69388,blockT,180,2022-02-10_11h53.31.440,orientation adjustment block,2021.2.3,Win32,59.82292414,,,,,,,
,,,,,,,,,,,,,,,,,,,,,,75,57,20,75,213,24,24,-0.130555544,-0.398148162,1,0,0,1.7109,submitButton,10.20634921,0.678703727,-0.315740753,0,0,0,0,91,91,131,1,57,69388,blockT,180,2022-02-10_11h53.31.440,orientation adjustment block,2021.2.3,Win32,59.82292414,,,,,,,
,,,,,,,,,,,,,,,,,,,,,,-62.22222222,-52,20,75,-215.2222222,16.77777778,16.77777778,-0.274999991,-0.403703717,1,0,0,1.9942,submitButton,10.29059829,0.44537039,-0.340740753,0,0,0,0,92,92,51,1,52,69388,blockT,180,2022-02-10_11h53.31.440,orientation adjustment block,2021.2.3,Win32,59.82292414,,,,,,,
,,,,,,,,,,,,,,,,,,,,,,-71.66666667,12,20,75,20.33333333,8.333333333,8.333333333,-0.28425925,-0.406481495,1,0,0,1.3449,submitButton,10.26582278,0.597222244,-0.298148217,0,0,0,0,93,93,11,1,12,69388,blockT,180,2022-02-10_11h53.31.440,orientation adjustment block,2021.2.3,Win32,59.82292414,,,,,,,
,,,,,,,,,,,,,,,,,,,,,,-48.33333333,33,20,75,35.66666667,2.666666667,2.666666667,-0.245370361,-0.368518531,1,0,0,0.528,submitButton,10.17083333,0.334259277,-0.291666678,0,0,0,0,94,94,107,1,33,69388,blockT,180,2022-02-10_11h53.31.440,orientation adjustment block,2021.2.3,Win32,59.82292414,,,,,,,
,,,,,,,,,,,,,,,,,,,,,,68.88888889,59,20,75,214.8888889,24.11111111,24.11111111,-0.376851844,-0.413888959,1,0,0,1.7267,submitButton,10.34293553,0.179629646,-0.309259271,0,0,0,0,95,95,133,1,59,69388,blockT,180,2022-02-10_11h53.31.440,orientation adjustment block,2021.2.3,Win32,59.82292414,,,,,,,
,,,,,,,,,,,,,,,,,,,,,,32.22222222,-45,20,75,-24.77777778,20.22222222,20.22222222,-0.205555545,-0.351851865,1,0,0,0.329,submitButton,10.46341463,0.389814834,-0.27314816,0,0,0,0,96,96,119,1,45,69388,blockT,180,2022-02-10_11h53.31.440,orientation adjustment block,2021.2.3,Win32,59.82292414,,,,,,,
,,,,,,,,,,,,,,,,,,,,,,59.44444444,-46,20,75,-44.55555556,1.444444444,1.444444444,-0.276851843,-0.420370384,1,0,0,0.9943,submitButton,10.35475234,-0.166666656,-0.403703717,0,0,0,0,97,97,120,1,46,69388,blockT,180,2022-02-10_11h53.31.440,orientation adjustment block,2021.2.3,Win32,59.82292414,,,,,,,
,,,,,,,,,,,,,,,,,,,,,,-47.77777778,17,20,75,30.22222222,13.22222222,13.22222222,-0.214814805,-0.38703705,1,0,0,0.8001,submitButton,10.38888889,-0.160185118,-0.354629642,0,0,0,0,98,98,91,1,17,69388,blockT,180,2022-02-10_11h53.31.440,orientation adjustment block,2021.2.3,Win32,59.82292414,,,,,,,
,,,,,,,,,,,,,,,,,,,,,,52.77777778,-81,20,75,-60.22222222,20.77777778,20.77777778,-0.424074067,-0.439814829,1,0,0,0.4948,submitButton,10.51111111,0.821296322,-0.190740751,0,0,0,0,99,99,80,1,81,69388,blockT,180,2022-02-10_11h53.31.440,orientation adjustment block,2021.2.3,Win32,59.82292414,,,,,,,
,,,,,,,,,,,,,,,,,,,,,,-36.66666667,-17,20,75,-12.66666667,4.333333333,4.333333333,-0.231481472,-0.4046297,1,0,0,0.8952,submitButton,10.43927649,0.801851877,-0.184259269,0,0,0,0,100,100,16,1,17,69388,blockT,180,2022-02-10_11h53.31.440,orientation adjustment block,2021.2.3,Win32,59.82292414,,,,,,,
,,,,,,,,,,,,,,,,,,,,,,27.77777778,70,20,75,65.77777778,4.222222222,4.222222222,0.420370503,-0.295370382,1,0,0,0.2159,submitButton,10.36781609,0.062962977,-0.324074086,0,0,0,0,101,101,144,1,70,69388,blockT,180,2022-02-10_11h53.31.440,orientation adjustment block,2021.2.3,Win32,59.82292414,,,,,,,
,,,,,,,,,,,,,,,,,,,,,,21.66666667,-88,20,75,-93.33333333,5.333333333,5.333333333,0.354629648,-0.291666678,1,0,0,0.3498,submitButton,10.31060606,0.26296298,-0.368518531,0,0,0,0,102,102,87,1,88,69388,blockT,180,2022-02-10_11h53.31.440,orientation adjustment block,2021.2.3,Win32,59.82292414,,,,,,,
,,,,,,,,,,,,,,,,,,,,,,-45,-32,20,75,-39,7,7,0.19907409,-0.310185197,1,0,0,0.1829,submitButton,10.27340824,-0.196296286,-0.452777792,0,0,0,0,103,103,106,1,32,69388,blockT,180,2022-02-10_11h53.31.440,orientation adjustment block,2021.2.3,Win32,59.82292414,,,,,,,
,,,,,,,,,,,,,,,,,,,,,,-23.88888889,-39,20,75,-40.88888889,1.888888889,1.888888889,0.187962979,-0.32314816,1,0,0,0.2826,submitButton,10.18024691,0.274074091,-0.399074087,1,0,0,0,104,104,113,1,39,69388,blockT,180,2022-02-10_11h53.31.440,orientation adjustment block,2021.2.3,Win32,59.82292414,continueButton,,,,,,
,,,,,,,,,,,,,,,,,,,,,,-64.44444444,27,20,75,-37.44444444,64.44444444,64.44444444,-0.258333324,-0.41666668,1,0,0,1.9156,submitButton,10.77655678,0.362037056,-0.312037106,0,0,0,0,105,105,26,1,27,69388,blockT,180,2022-02-10_11h53.31.440,orientation adjustment block,2021.2.3,Win32,59.82292414,,,,,,,
,,,,,,,,,,,,,,,,,,,,,,-50.55555556,47,20,75,39.44444444,7.555555556,7.555555556,-0.19537036,-0.389814828,1,0,0,0.7004,submitButton,10.74154589,0.287037055,-0.295370382,0,0,0,0,106,106,46,1,47,69388,blockT,180,2022-02-10_11h53.31.440,orientation adjustment block,2021.2.3,Win32,59.82292414,,,,,,,
,,,,,,,,,,,,,,,,,,,,,,71.11111111,-63,20,75,114.1111111,2.888888889,2.888888889,-0.163888878,-0.375925939,1,0,0,1.9942,submitButton,10.65710872,0.355555687,-0.286111123,0,0,0,0,107,107,62,1,63,69388,blockT,180,2022-02-10_11h53.31.440,orientation adjustment block,2021.2.3,Win32,59.82292414,,,,,,,
,,,,,,,,,,,,,,,,,,,,,,-37.77777778,25,20,75,38.22222222,13.22222222,13.22222222,-0.19999999,-0.384259272,1,0,0,1.4159,submitButton,10.68439716,0.200000016,-0.303703716,0,0,0,0,108,108,24,1,25,69388,blockT,180,2022-02-10_11h53.31.440,orientation adjustment block,2021.2.3,Win32,59.82292414,,,,,,,
,,,,,,,,,,,,,,,,,,,,,,-20,86,20,75,106,20,20,-0.299999991,-0.407407421,1,0,0,0.4786,submitButton,10.78245614,0.177777794,-0.321296365,0,0,0,0,109,109,85,1,86,69388,blockT,180,2022-02-10_11h53.31.440,orientation adjustment block,2021.2.3,Win32,59.82292414,,,,,,,
,,,,,,,,,,,,,,,,,,,,,,-34.44444444,69,20,75,101.5555556,32.55555556,32.55555556,-0.083333321,-0.390740811,1,0,0,1.327,submitButton,11.00925926,0.231481498,-0.230555566,0,0,0,0,110,110,68,1,69,69388,blockT,180,2022-02-10_11h53.31.440,orientation adjustment block,2021.2.3,Win32,59.82292414,,,,,,,
,,,,,,,,,,,,,,,,,,,,,,27.22222222,-78,20,75,-81.77777778,3.777777778,3.777777778,-0.493518513,-0.462962977,1,0,0,0.8113,submitButton,10.9347079,0.28796298,-0.314814827,0,0,0,0,111,111,77,1,78,69388,blockT,180,2022-02-10_11h53.31.440,orientation adjustment block,2021.2.3,Win32,59.82292414,,,,,,,
,,,,,,,,,,,,,,,,,,,,,,-45.55555556,-61,20,75,-56.55555556,4.444444444,4.444444444,-0.267592583,-0.417592606,1,0,0,0.7825,submitButton,10.86848073,0.179629646,-0.313888901,0,0,0,0,112,112,135,1,61,69388,blockT,180,2022-02-10_11h53.31.440,orientation adjustment block,2021.2.3,Win32,59.82292414,,,,,,,
,,,,,,,,,,,,,,,,,,,,,,36.66666667,-53,20,75,-53.33333333,0.333333333,0.333333333,-0.401851845,-0.415740754,1,0,0,1.1441,submitButton,10.7620651,0.214814831,-0.311111123,0,0,0,0,113,113,127,1,53,69388,blockT,180,2022-02-10_11h53.31.440,orientation adjustment block,2021.2.3,Win32,59.82292414,,,,,,,
,,,,,,,,,,,,,,,,,,,,,,61.66666667,-24,20,75,-27.33333333,3.333333333,3.333333333,-0.306481473,-0.422222236,1,0,0,1.3779,submitButton,10.68777778,0.579629652,-0.32314816,0,0,0,0,114,114,23,1,24,69388,blockT,180,2022-02-10_11h53.31.440,orientation adjustment block,2021.2.3,Win32,59.82292414,,,,,,,
,,,,,,,,,,,,,,,,,,,,,,25,60,20,75,66,6,6,0.362962982,-0.296296308,1,0,0,0.6278,submitButton,10.64136414,0.250000017,-0.328703716,0,0,0,0,115,115,134,1,60,69388,blockT,180,2022-02-10_11h53.31.440,orientation adjustment block,2021.2.3,Win32,59.82292414,,,,,,,
,,,,,,,,,,,,,,,,,,,,,,-20,-4,20,75,-5,1,1,-0.217592583,-0.383333346,1,0,0,0.3949,submitButton,10.54684096,0.134259275,-0.262962974,0,0,0,0,116,116,3,1,4,69388,blockT,180,2022-02-10_11h53.31.440,orientation adjustment block,2021.2.3,Win32,59.82292414,,,,,,,
,,,,,,,,,,,,,,,,,,,,,,-31.66666667,2,20,75,-1.666666667,3.666666667,3.666666667,0.503703837,-0.298148217,1,0,0,0.7945,submitButton,10.48004315,-0.076851783,-0.331481494,0,0,0,0,117,117,1,1,2,69388,blockT,180,2022-02-10_11h53.31.440,orientation adjustment block,2021.2.3,Win32,59.82292414,,,,,,,
,,,,,,,,,,,,,,,,,,,,,,47.22222222,59,20,75,55.22222222,3.777777778,3.777777778,0.394444464,-0.303703716,1,0,0,0.6946,submitButton,10.41559829,0.251851869,-0.250925937,0,0,0,0,118,118,58,1,59,69388,blockT,180,2022-02-10_11h53.31.440,orientation adjustment block,2021.2.3,Win32,59.82292414,,,,,,,
,,,,,,,,,,,,,,,,,,,,,,-27.77777778,55,20,75,42.22222222,12.77777778,12.77777778,-0.260185176,-0.40000007,1,0,0,0.5779,submitButton,10.43809524,0.553703725,-0.388888902,1,0,0,0,119,119,54,1,55,69388,blockT,180,2022-02-10_11h53.31.440,orientation adjustment block,2021.2.3,Win32,59.82292414,continueButton,,,,,,
,,,,,,,,,,,,,,,,,,,,,,37.22222222,40,20,75,36.22222222,3.777777778,3.777777778,0.384259278,-0.314814827,1,0,0,0.6117,submitButton,10.37526205,0.377777797,-0.342592605,0,0,0,0,120,120,114,1,40,69388,blockT,180,2022-02-10_11h53.31.440,orientation adjustment block,2021.2.3,Win32,59.82292414,,,,,,,
,,,,,,,,,,,,,,,,,,,,,,31.66666667,68,20,75,59.66666667,8.333333333,8.333333333,-0.332407399,-0.397222236,1,0,0,1.0779,submitButton,10.35617861,0.413888908,0.040740706,0,0,0,0,121,121,142,1,68,69388,blockT,180,2022-02-10_11h53.31.440,orientation adjustment block,2021.2.3,Win32,59.82292414,,,,,,,
,,,,,,,,,,,,,,,,,,,,,,31.11111111,34,20,75,52.11111111,18.11111111,18.11111111,0.235185202,-0.308333345,1,0,0,0.0225,submitButton,10.42798354,0.321296314,-0.312037106,0,0,0,0,122,122,33,1,34,69388,blockT,180,2022-02-10_11h53.31.440,orientation adjustment block,2021.2.3,Win32,59.82292414,,,,,,,
,,,,,,,,,,,,,,,,,,,,,,-40.55555556,-51,20,75,-53.55555556,2.555555556,2.555555556,-0.192592526,-0.392592606,1,0,0,1.0945,submitButton,10.35575943,0.45462965,-0.275000068,0,0,0,0,123,123,125,1,51,69388,blockT,180,2022-02-10_11h53.31.440,orientation adjustment block,2021.2.3,Win32,59.82292414,,,,,,,
,,,,,,,,,,,,,,,,,,,,,,30,89,20,75,88,1,1,-0.253703694,-0.400925939,1,0,0,0.6116,submitButton,10.27070707,0.349074093,-0.227777789,0,0,0,0,124,124,88,1,89,69388,blockT,180,2022-02-10_11h53.31.440,orientation adjustment block,2021.2.3,Win32,59.82292414,,,,,,,
,,,,,,,,,,,,,,,,,,,,,,73.88888889,-7,20,75,160.8888889,12.11111111,12.11111111,-0.289814749,-0.387962976,1,0,0,1.6777,submitButton,10.28728729,0.120370385,-0.301851864,0,0,0,0,125,125,6,1,7,69388,blockT,180,2022-02-10_11h53.31.440,orientation adjustment block,2021.2.3,Win32,59.82292414,,,,,,,
,,,,,,,,,,,,,,,,,,,,,,-47.22222222,65,20,75,-126.2222222,11.22222222,11.22222222,-0.256481472,-0.382407421,1,0,0,2.6495,submitButton,10.29563492,0.075000014,-0.33240742,0,0,0,0,126,126,64,1,65,69388,blockT,180,2022-02-10_11h53.31.440,orientation adjustment block,2021.2.3,Win32,59.82292414,,,,,,,
,,,,,,,,,,,,,,,,,,,,,,33.33333333,40,20,75,41.33333333,1.333333333,1.333333333,-0.282407398,-0.375925939,1,0,0,0.5968,submitButton,10.21632252,0.336111129,-0.296296308,0,0,0,0,127,127,39,1,40,69388,blockT,180,2022-02-10_11h53.31.440,orientation adjustment block,2021.2.3,Win32,59.82292414,,,,,,,
,,,,,,,,,,,,,,,,,,,,,,-53.33333333,-47,20,75,-42.33333333,4.666666667,4.666666667,-0.204629619,-0.39166668,1,0,0,0.9276,submitButton,10.16764133,0.087962978,-0.291666678,0,0,0,0,128,128,121,1,47,69388,blockT,180,2022-02-10_11h53.31.440,orientation adjustment block,2021.2.3,Win32,59.82292414,,,,,,,
,,,,,,,,,,,,,,,,,,,,,,-32.22222222,-15,20,75,-15.22222222,0.222222222,0.222222222,-0.133333322,-0.337962975,1,0,0,0.4617,submitButton,10.08115942,0.130555571,-0.335185254,0,0,0,0,129,129,14,1,15,69388,blockT,180,2022-02-10_11h53.31.440,orientation adjustment block,2021.2.3,Win32,59.82292414,,,,,,,
,,,,,,,,,,,,,,,,,,,,,,-37.77777778,-71,20,75,-53.77777778,17.22222222,17.22222222,0.188888905,-0.315740753,1,0,0,0.4835,submitButton,10.14272031,0.086111126,-0.339814884,0,0,0,0,130,130,70,1,71,69388,blockT,180,2022-02-10_11h53.31.440,orientation adjustment block,2021.2.3,Win32,59.82292414,,,,,,,
,,,,,,,,,,,,,,,,,,,,,,21.66666667,34,20,75,22.66666667,11.33333333,11.33333333,-0.234259193,-0.417592606,1,0,0,0.6279,submitButton,10.15289649,-0.054629617,-0.331481494,0,0,0,0,131,131,108,1,34,69388,blockT,180,2022-02-10_11h53.31.440,orientation adjustment block,2021.2.3,Win32,59.82292414,,,,,,,
,,,,,,,,,,,,,,,,,,,,,,65,-72,20,75,128,20,20,-0.146296229,-0.377777791,1,0,0,2.3492,submitButton,10.23634652,0.146296312,-0.334259272,0,0,0,0,132,132,71,1,72,69388,blockT,180,2022-02-10_11h53.31.440,orientation adjustment block,2021.2.3,Win32,59.82292414,,,,,,,
,,,,,,,,,,,,,,,,,,,,,,-40,-22,20,75,-21,1,1,-0.074074062,-0.386111181,1,0,0,0.5948,submitButton,10.15873016,0.082407422,-0.319444457,0,0,0,0,133,133,96,1,22,69388,blockT,180,2022-02-10_11h53.31.440,orientation adjustment block,2021.2.3,Win32,59.82292414,,,,,,,
,,,,,,,,,,,,,,,,,,,,,,-26.11111111,-72,20,75,-55.11111111,16.88888889,16.88888889,-0.14074073,-0.39629631,1,0,0,0.5999,submitButton,10.21481481,0.500000021,-0.412962977,1,0,0,0,134,134,146,1,72,69388,blockT,180,2022-02-10_11h53.31.440,orientation adjustment block,2021.2.3,Win32,59.82292414,continueButton,,,,,,
,,,,,,,,,,,,,,,,,,,,,,-25.55555556,-23,20,75,-23.55555556,0.555555556,0.555555556,-0.253703694,-0.387962976,1,0,0,0.378,submitButton,10.13498623,0.157407423,-0.292592604,0,0,0,0,135,135,97,1,23,69388,blockT,180,2022-02-10_11h53.31.440,orientation adjustment block,2021.2.3,Win32,59.82292414,,,,,,,
,,,,,,,,,,,,,,,,,,,,,,20,50,20,75,33,17,17,-0.218518509,-0.434259273,1,0,0,0.5952,submitButton,10.19125683,0.302777796,-0.337962975,0,0,0,0,136,136,124,1,50,69388,blockT,180,2022-02-10_11h53.31.440,orientation adjustment block,2021.2.3,Win32,59.82292414,,,,,,,
,,,,,,,,,,,,,,,,,,,,,,65.55555556,-50,20,75,-29.44444444,20.55555556,20.55555556,0.365740759,-0.282407419,1,0,0,0.2275,submitButton,10.27551942,0.143518534,-0.350000013,0,0,0,0,137,137,49,1,50,69388,blockT,180,2022-02-10_11h53.31.440,orientation adjustment block,2021.2.3,Win32,59.82292414,,,,,,,
,,,,,,,,,,,,,,,,,,,,,,-29.44444444,28,20,75,31.55555556,3.555555556,3.555555556,-0.205555545,-0.425000014,1,0,0,0.6661,submitButton,10.22132616,0.366666685,-0.331481494,0,0,0,0,138,138,102,1,28,69388,blockT,180,2022-02-10_11h53.31.440,orientation adjustment block,2021.2.3,Win32,59.82292414,,,,,,,
,,,,,,,,,,,,,,,,,,,,,,-52.22222222,-25,20,75,-37.22222222,12.22222222,12.22222222,0.225000017,-0.302777846,1,0,0,0.355,submitButton,10.23733333,0.367592611,-0.272222234,0,0,0,0,139,139,99,1,25,69388,blockT,180,2022-02-10_11h53.31.440,orientation adjustment block,2021.2.3,Win32,59.82292414,,,,,,,
,,,,,,,,,,,,,,,,,,,,,,-51.11111111,37,20,75,28.88888889,8.111111111,8.111111111,-0.1111111,-0.36203705,1,0,0,0.7777,submitButton,10.22045855,0.30925939,-0.302777846,0,0,0,0,140,140,36,1,37,69388,blockT,180,2022-02-10_11h53.31.440,orientation adjustment block,2021.2.3,Win32,59.82292414,,,,,,,
,,,,,,,,,,,,,,,,,,,,,,62.22222222,-42,20,75,-32.77777778,9.222222222,9.222222222,-0.250925916,-0.401851865,1,0,0,1.0444,submitButton,10.21259843,0.35185187,-0.308333345,0,0,0,0,141,141,116,1,42,69388,blockT,180,2022-02-10_11h53.31.440,orientation adjustment block,2021.2.3,Win32,59.82292414,,,,,,,
,,,,,,,,,,,,,,,,,,,,,,26.11111111,44,20,75,45.11111111,1.111111111,1.111111111,0.443518651,-0.291666678,1,0,0,0.012,submitButton,10.14149306,0.388888908,-0.36203705,0,0,0,0,142,142,118,1,44,69388,blockT,180,2022-02-10_11h53.31.440,orientation adjustment block,2021.2.3,Win32,59.82292414,,,,,,,
,,,,,,,,,,,,,,,,,,,,,,-42.77777778,57,20,75,50.22222222,6.777777778,6.777777778,-0.205555545,-0.394444458,1,0,0,0.9321,submitButton,10.11541774,0.412037056,-0.314814827,0,0,0,0,143,143,56,1,57,69388,blockT,180,2022-02-10_11h53.31.440,orientation adjustment block,2021.2.3,Win32,59.82292414,,,,,,,
,,,,,,,,,,,,,,,,,,,,,,49.44444444,45,20,75,39.44444444,5.555555556,5.555555556,0.411111244,-0.303703716,1,0,0,0.0614,submitButton,10.08034188,0.276851869,-0.283333345,0,0,0,0,144,144,44,1,45,69388,blockT,180,2022-02-10_11h53.31.440,orientation adjustment block,2021.2.3,Win32,59.82292414,,,,,,,
,,,,,,,,,,,,,,,,,,,,,,37.77777778,32,20,75,33.77777778,1.777777778,1.777777778,-0.12777771,-0.368518531,1,0,0,0.699,submitButton,10.01696353,0.3814815,-0.321296365,0,0,0,0,145,145,31,1,32,69388,blockT,180,2022-02-10_11h53.31.440,orientation adjustment block,2021.2.3,Win32,59.82292414,,,,,,,
,,,,,,,,,,,,,,,,,,,,,,-45,1,20,75,27,26,26,-0.154629619,-0.380555569,1,0,0,1.4607,submitButton,10.13804714,0.200925942,-0.429629643,0,0,0,0,146,146,0,1,1,69388,blockT,180,2022-02-10_11h53.31.440,orientation adjustment block,2021.2.3,Win32,59.82292414,,,,,,,
,,,,,,,,,,,,,,,,,,,,,,-71.11111111,31,20,75,29.88888889,1.111111111,1.111111111,0.200925942,-0.319444457,1,0,0,0.5175,submitButton,10.07017544,0.20370372,-0.290740753,0,0,0,0,147,147,105,1,31,69388,blockT,180,2022-02-10_11h53.31.440,orientation adjustment block,2021.2.3,Win32,59.82292414,,,,,,,
,,,,,,,,,,,,,,,,,,,,,,-47.77777778,-54,20,75,-58.77777778,4.777777778,4.777777778,0.189814831,-0.315740753,1,0,0,0.4041,submitButton,10.03067993,0.235185202,-0.325925995,0,0,0,0,148,148,53,1,54,69388,blockT,180,2022-02-10_11h53.31.440,orientation adjustment block,2021.2.3,Win32,59.82292414,,,,,,,
,,,,,,,,,,,,,,,,,,,,,,58.88888889,64,20,75,222.8888889,21.11111111,21.11111111,-0.137962952,-0.385185198,1,0,0,2.3437,submitButton,10.1127572,0.4666668,-0.384259272,1,0,0,0,149,149,138,1,64,69388,blockT,180,2022-02-10_11h53.31.440,orientation adjustment block,2021.2.3,Win32,59.82292414,continueButton,,,,,,
,,,,,,,,,,,,,,,,,,,,,,,,,,,,,,,,,,,,,,,,,,,,,,,,69388,blockT,180,2022-02-10_11h53.31.440,orientation adjustment block,2021.2.3,Win32,59.82292414,,0.370370389,-0.41666668,1,0,0,EndButtonTxt
