consentMouse1.x,consentMouse1.y,consentMouse1.leftButton,consentMouse1.midButton,consentMouse1.rightButton,consentMouse1.clicked_name,consent_Mouse.x,consent_Mouse.y,consent_Mouse.leftButton,consent_Mouse.midButton,consent_Mouse.rightButton,consent_Mouse.clicked_name,startMouse.x,startMouse.y,startMouse.leftButton,startMouse.midButton,startMouse.rightButton,startMouse_2.x,startMouse_2.y,startMouse_2.leftButton,startMouse_2.midButton,startMouse_2.rightButton,start_distance,fixedOri,minimalDistance,maxOri,this_ori,accuracy,presented_accuracy,submitMouse.x,submitMouse.y,submitMouse.leftButton,submitMouse.midButton,submitMouse.rightButton,submitMouse.time,submitMouse.clicked_name,block_accuracy,continueMouse.x,continueMouse.y,continueMouse.leftButton,continueMouse.midButton,continueMouse.rightButton,trials.thisRepN,trials.thisTrialN,trials.thisN,trials.thisIndex,trials.ran,startOri,participant,condition,nTrials,date,expName,psychopyVersion,OS,frameRate,continueMouse.clicked_name,EndButtonMouse.x,EndButtonMouse.y,EndButtonMouse.leftButton,EndButtonMouse.midButton,EndButtonMouse.rightButton,EndButtonMouse.clicked_name
0.375925964,-0.391666693,1,0,0,consent_button1,0.412037076,-0.407407491,1,0,0,consent_button,0.422222261,-0.297222246,1,0,0,0.422222261,-0.297222246,1,0,0,-23.33333333,50,20,75,49.66666667,0.333333333,0.333333333,0.212962996,-0.279629709,1,0,0,2.268,submitButton,0.333333333,-0.31203702,-0.402777805,0,0,0,0,0,0,34,1,50,69478,blockT,180,2022-02-16_17h06.25.785,orientation adjustment block,2021.2.3,Win32,60.20469597,,,,,,,
,,,,,,,,,,,,,,,,,,,,,,-66.11111111,27,20,75,0.888888889,26.11111111,26.11111111,0.214814848,-0.300000024,1,0,0,0.0975,submitButton,13.22222222,-0.368518503,-0.393518602,0,0,0,0,1,1,11,1,27,69478,blockT,180,2022-02-16_17h06.25.785,orientation adjustment block,2021.2.3,Win32,60.20469597,,,,,,,
,,,,,,,,,,,,,,,,,,,,,,28.88888889,-58,20,75,-22.11111111,35.88888889,35.88888889,0.386111149,-0.289814838,1,0,0,0.4636,submitButton,20.77777778,-0.230555536,-0.394444471,0,0,0,0,2,2,42,1,58,69478,blockT,180,2022-02-16_17h06.25.785,orientation adjustment block,2021.2.3,Win32,60.20469597,,,,,,,
,,,,,,,,,,,,,,,,,,,,,,30.55555556,22,20,75,212.5555556,10.55555556,10.55555556,0.183333365,-0.296296377,1,0,0,0.1,submitButton,10.55555556,-0.331481465,-0.365740823,0,0,0,0,3,3,6,1,22,69478,blockT,180,2022-02-16_17h06.25.785,orientation adjustment block,2021.2.3,Win32,60.20469597,,,,,,,
,,,,,,,,,,,,,,,,,,,,,,35,53,20,75,212,21,21,-0.347222206,-0.406481508,1,0,0,2.1668,submitButton,15.77777778,-0.347222206,-0.406481508,0,0,0,0,4,4,37,1,53,69478,blockT,180,2022-02-16_17h06.25.785,orientation adjustment block,2021.2.3,Win32,60.20469597,,,,,,,
,,,,,,,,,,,,,,,,,,,,,,-47.77777778,-72,20,75,-229.7777778,22.22222222,22.22222222,-0.706481462,-0.475000029,1,0,0,2.1173,submitButton,17.92592593,-0.55462962,-0.400000027,0,0,0,0,5,5,56,1,72,69478,blockT,180,2022-02-16_17h06.25.785,orientation adjustment block,2021.2.3,Win32,60.20469597,,,,,,,
,,,,,,,,,,,,,,,,,,,,,,-72.77777778,20,20,75,15.22222222,4.777777778,4.777777778,-0.398148134,-0.454629658,1,0,0,1.2166,submitButton,4.777777778,-0.226851832,-0.319444469,0,0,0,0,6,6,4,1,20,69478,blockT,180,2022-02-16_17h06.25.785,orientation adjustment block,2021.2.3,Win32,60.20469597,,,,,,,
,,,,,,,,,,,,,,,,,,,,,,-26.11111111,68,20,75,81.88888889,13.88888889,13.88888889,-0.505555544,-0.394444471,1,0,0,0.6505,submitButton,9.333333333,-0.127777755,-0.310185266,0,0,0,0,7,7,52,1,68,69478,blockT,180,2022-02-16_17h06.25.785,orientation adjustment block,2021.2.3,Win32,60.20469597,,,,,,,
,,,,,,,,,,,,,,,,,,,,,,-67.22222222,18,20,75,-135.2222222,26.77777778,26.77777778,-0.502777766,-0.409259286,1,0,0,1.7661,submitButton,15.14814815,-0.502777766,-0.409259286,0,0,0,0,8,8,2,1,18,69478,blockT,180,2022-02-16_17h06.25.785,orientation adjustment block,2021.2.3,Win32,60.20469597,,,,,,,
,,,,,,,,,,,,,,,,,,,,,,-50,46,20,75,46,0,0,-0.519444433,-0.404629713,1,0,0,1.1334,submitButton,0,-0.347222206,-0.30462971,0,0,0,0,9,9,30,1,46,69478,blockT,180,2022-02-16_17h06.25.785,orientation adjustment block,2021.2.3,Win32,60.20469597,,,,,,,
,,,,,,,,,,,,,,,,,,,,,,-63.88888889,-38,20,75,-210.8888889,7.111111111,7.111111111,-0.553703694,-0.398148175,1,0,0,2.9996,submitButton,3.555555556,-0.553703694,-0.398148175,0,0,0,0,10,10,22,1,38,69478,blockT,180,2022-02-16_17h06.25.785,orientation adjustment block,2021.2.3,Win32,60.20469597,,,,,,,
,,,,,,,,,,,,,,,,,,,,,,-51.11111111,-40,20,75,-213.1111111,6.888888889,6.888888889,-0.518518479,-0.406481508,1,0,0,3.3811,submitButton,4.666666667,-0.518518479,-0.406481508,0,0,0,0,11,11,24,1,40,69478,blockT,180,2022-02-16_17h06.25.785,orientation adjustment block,2021.2.3,Win32,60.20469597,,,,,,,
,,,,,,,,,,,,,,,,,,,,,,-61.11111111,28,20,75,32.88888889,4.888888889,4.888888889,-0.528703693,-0.401851935,1,0,0,1.6504,submitButton,4.888888889,-0.528703693,-0.401851935,0,0,0,0,12,12,12,1,28,69478,blockT,180,2022-02-16_17h06.25.785,orientation adjustment block,2021.2.3,Win32,60.20469597,,,,,,,
,,,,,,,,,,,,,,,,,,,,,,-20.55555556,23,20,75,42.44444444,19.44444444,19.44444444,-0.502777766,-0.40833336,1,0,0,0.8838,submitButton,12.16666667,-0.23888887,-0.261111134,0,0,0,0,13,13,7,1,23,69478,blockT,180,2022-02-16_17h06.25.785,orientation adjustment block,2021.2.3,Win32,60.20469597,,,,,,,
,,,,,,,,,,,,,,,,,,,,,,-55,-71,20,75,-243,8,8,-0.509259248,-0.389814841,1,0,0,2.2501,submitButton,10.77777778,0.33333337,-0.404629713,1,0,0,0,14,14,55,1,71,69478,blockT,180,2022-02-16_17h06.25.785,orientation adjustment block,2021.2.3,Win32,60.20469597,continueButton,,,,,,
,,,,,,,,,,,,,,,,,,,,,,-63.88888889,-33,20,75,-210.8888889,2.111111111,2.111111111,-0.54537036,-0.390740824,1,0,0,1.983,submitButton,2.111111111,0.127777808,-0.22685193,0,0,0,0,15,15,17,1,33,69478,blockT,180,2022-02-16_17h06.25.785,orientation adjustment block,2021.2.3,Win32,60.20469597,,,,,,,
,,,,,,,,,,,,,,,,,,,,,,51.11111111,48,20,75,226.1111111,1.888888889,1.888888889,-0.362962947,-0.401851935,1,0,0,2.2499,submitButton,2,-0.362962947,-0.401851935,0,0,0,0,16,16,32,1,48,69478,blockT,180,2022-02-16_17h06.25.785,orientation adjustment block,2021.2.3,Win32,60.20469597,,,,,,,
,,,,,,,,,,,,,,,,,,,,,,57.77777778,-74,20,75,-65.22222222,8.777777778,8.777777778,-0.543518508,-0.406481508,1,0,0,1.2005,submitButton,4.259259259,0.198148181,-0.084259277,0,0,0,0,17,17,58,1,74,69478,blockT,180,2022-02-16_17h06.25.785,orientation adjustment block,2021.2.3,Win32,60.20469597,,,,,,,
,,,,,,,,,,,,,,,,,,,,,,64.44444444,-63,20,75,-68.55555556,5.555555556,5.555555556,-0.499074034,-0.388888915,1,0,0,1.4836,submitButton,4.583333333,0.378703741,-0.303703728,0,0,0,0,18,18,47,1,63,69478,blockT,180,2022-02-16_17h06.25.785,orientation adjustment block,2021.2.3,Win32,60.20469597,,,,,,,
,,,,,,,,,,,,,,,,,,,,,,-43.33333333,26,20,75,30.66666667,4.666666667,4.666666667,-0.515740701,-0.405555583,1,0,0,1.2175,submitButton,4.6,0.291666702,-0.224074152,0,0,0,0,19,19,10,1,26,69478,blockT,180,2022-02-16_17h06.25.785,orientation adjustment block,2021.2.3,Win32,60.20469597,,,,,,,
,,,,,,,,,,,,,,,,,,,,,,-70.55555556,-21,20,75,-211.5555556,10.55555556,10.55555556,-0.477777766,-0.388888915,1,0,0,2.3479,submitButton,5.592592593,-0.477777766,-0.388888915,0,0,0,0,20,20,5,1,21,69478,blockT,180,2022-02-16_17h06.25.785,orientation adjustment block,2021.2.3,Win32,60.20469597,,,,,,,
,,,,,,,,,,,,,,,,,,,,,,-49.44444444,57,20,75,60.55555556,3.555555556,3.555555556,-0.491666655,-0.393518602,1,0,0,1.1001,submitButton,5.301587302,-0.491666655,-0.393518602,0,0,0,0,21,21,41,1,57,69478,blockT,180,2022-02-16_17h06.25.785,orientation adjustment block,2021.2.3,Win32,60.20469597,,,,,,,
,,,,,,,,,,,,,,,,,,,,,,56.11111111,-24,20,75,-25.88888889,1.888888889,1.888888889,-0.508333322,-0.401851935,1,0,0,1.1638,submitButton,4.875,0.039814842,-0.215740819,0,0,0,0,22,22,8,1,24,69478,blockT,180,2022-02-16_17h06.25.785,orientation adjustment block,2021.2.3,Win32,60.20469597,,,,,,,
,,,,,,,,,,,,,,,,,,,,,,-27.22222222,35,20,75,47.77777778,12.77777778,12.77777778,-0.522222211,-0.405555583,1,0,0,0.8028,submitButton,5.75308642,0.28518522,-0.275925949,0,0,0,0,23,23,19,1,35,69478,blockT,180,2022-02-16_17h06.25.785,orientation adjustment block,2021.2.3,Win32,60.20469597,,,,,,,
,,,,,,,,,,,,,,,,,,,,,,60.55555556,-42,20,75,-34.44444444,7.555555556,7.555555556,-0.561111101,-0.416666694,1,0,0,2.3168,submitButton,5.933333333,-0.561111101,-0.416666694,0,0,0,0,24,24,26,1,42,69478,blockT,180,2022-02-16_17h06.25.785,orientation adjustment block,2021.2.3,Win32,60.20469597,,,,,,,
,,,,,,,,,,,,,,,,,,,,,,-27.77777778,44,20,75,58.22222222,14.22222222,14.22222222,-0.517592582,-0.41759262,1,0,0,0.8,submitButton,6.686868687,-0.517592582,-0.41759262,0,0,0,0,25,25,28,1,44,69478,blockT,180,2022-02-16_17h06.25.785,orientation adjustment block,2021.2.3,Win32,60.20469597,,,,,,,
,,,,,,,,,,,,,,,,,,,,,,-37.77777778,-25,20,75,-188.7777778,16.22222222,16.22222222,-0.525925915,-0.414814842,1,0,0,2.4165,submitButton,7.481481481,0.309259295,-0.198148169,0,0,0,0,26,26,9,1,25,69478,blockT,180,2022-02-16_17h06.25.785,orientation adjustment block,2021.2.3,Win32,60.20469597,,,,,,,
,,,,,,,,,,,,,,,,,,,,,,24.44444444,51,20,75,61.44444444,10.44444444,10.44444444,0.364814852,-0.295370394,1,0,0,0.6003,submitButton,7.709401709,-0.400925911,-0.420370398,0,0,0,0,27,27,35,1,51,69478,blockT,180,2022-02-16_17h06.25.785,orientation adjustment block,2021.2.3,Win32,60.20469597,,,,,,,
,,,,,,,,,,,,,,,,,,,,,,56.66666667,-70,20,75,-53.33333333,16.66666667,16.66666667,-0.525925915,-0.428703731,1,0,0,1.1836,submitButton,8.349206349,0.098148178,-0.22314817,0,0,0,0,28,28,54,1,70,69478,blockT,180,2022-02-16_17h06.25.785,orientation adjustment block,2021.2.3,Win32,60.20469597,,,,,,,
,,,,,,,,,,,,,,,,,,,,,,51.11111111,75,20,75,74.11111111,0.888888889,0.888888889,-0.54537036,-0.395370397,1,0,0,1.4172,submitButton,7.851851852,0.300925961,-0.410185269,1,0,0,0,29,29,59,1,75,69478,blockT,180,2022-02-16_17h06.25.785,orientation adjustment block,2021.2.3,Win32,60.20469597,continueButton,,,,,,
,,,,,,,,,,,,,,,,,,,,,,-41.11111111,69,20,75,57.88888889,11.11111111,11.11111111,0.226851885,-0.287963043,1,0,0,0.8355,submitButton,8.055555556,0.110185215,-0.200000021,0,0,0,0,30,30,53,1,69,69478,blockT,180,2022-02-16_17h06.25.785,orientation adjustment block,2021.2.3,Win32,60.20469597,,,,,,,
,,,,,,,,,,,,,,,,,,,,,,41.11111111,65,20,75,70.11111111,5.111111111,5.111111111,0.398148187,-0.293518599,1,0,0,0.0675,submitButton,7.882352941,-0.508333322,-0.389814841,0,0,0,0,31,31,49,1,65,69478,blockT,180,2022-02-16_17h06.25.785,orientation adjustment block,2021.2.3,Win32,60.20469597,,,,,,,
,,,,,,,,,,,,,,,,,,,,,,-57.22222222,-56,20,75,-60.22222222,4.222222222,4.222222222,-0.546296286,-0.412037064,1,0,0,1.4999,submitButton,7.679012346,0.318518555,-0.222222244,0,0,0,0,32,32,40,1,56,69478,blockT,180,2022-02-16_17h06.25.785,orientation adjustment block,2021.2.3,Win32,60.20469597,,,,,,,
,,,,,,,,,,,,,,,,,,,,,,-41.11111111,67,20,75,-104.1111111,8.888888889,8.888888889,-0.529629591,-0.409259286,1,0,0,2.5996,submitButton,7.742690058,0.150925957,-0.282407487,0,0,0,0,33,33,51,1,67,69478,blockT,180,2022-02-16_17h06.25.785,orientation adjustment block,2021.2.3,Win32,60.20469597,,,,,,,
,,,,,,,,,,,,,,,,,,,,,,-35.55555556,-31,20,75,-31.55555556,0.555555556,0.555555556,-0.501851812,-0.400000027,1,0,0,1.0497,submitButton,7.383333333,0.203703736,-0.313888913,0,0,0,0,34,34,15,1,31,69478,blockT,180,2022-02-16_17h06.25.785,orientation adjustment block,2021.2.3,Win32,60.20469597,,,,,,,
,,,,,,,,,,,,,,,,,,,,,,-34.44444444,-55,20,75,-47.44444444,7.555555556,7.555555556,-0.514814804,-0.410185269,1,0,0,1.2833,submitButton,7.391534392,0.144444475,-0.284259283,0,0,0,0,35,35,39,1,55,69478,blockT,180,2022-02-16_17h06.25.785,orientation adjustment block,2021.2.3,Win32,60.20469597,,,,,,,
,,,,,,,,,,,,,,,,,,,,,,-37.22222222,-36,20,75,-36.22222222,0.222222222,0.222222222,-0.512037026,-0.407407491,1,0,0,1.183,submitButton,7.065656566,0.169444476,-0.325925951,0,0,0,0,36,36,20,1,36,69478,blockT,180,2022-02-16_17h06.25.785,orientation adjustment block,2021.2.3,Win32,60.20469597,,,,,,,
,,,,,,,,,,,,,,,,,,,,,,68.88888889,-32,20,75,-22.11111111,9.888888889,9.888888889,-0.543518508,-0.401851935,1,0,0,1.736,submitButton,7.188405797,-0.313888872,-0.381481508,0,0,0,0,37,37,16,1,32,69478,blockT,180,2022-02-16_17h06.25.785,orientation adjustment block,2021.2.3,Win32,60.20469597,,,,,,,
,,,,,,,,,,,,,,,,,,,,,,-65.55555556,37,20,75,42.44444444,5.444444444,5.444444444,-0.537037027,-0.404629713,1,0,0,1.9332,submitButton,7.115740741,-0.537037027,-0.404629713,0,0,0,0,38,38,21,1,37,69478,blockT,180,2022-02-16_17h06.25.785,orientation adjustment block,2021.2.3,Win32,60.20469597,,,,,,,
,,,,,,,,,,,,,,,,,,,,,,-28.88888889,-43,20,75,-212.8888889,10.11111111,10.11111111,-0.499999988,-0.39629638,1,0,0,2.8003,submitButton,7.235555556,-0.499999988,-0.39629638,0,0,0,0,39,39,27,1,43,69478,blockT,180,2022-02-16_17h06.25.785,orientation adjustment block,2021.2.3,Win32,60.20469597,,,,,,,
,,,,,,,,,,,,,,,,,,,,,,-73.88888889,-29,20,75,-38.88888889,9.888888889,9.888888889,-0.529629591,-0.399074157,1,0,0,1.7641,submitButton,7.337606838,-0.059259178,-0.311111135,0,0,0,0,40,40,13,1,29,69478,blockT,180,2022-02-16_17h06.25.785,orientation adjustment block,2021.2.3,Win32,60.20469597,,,,,,,
,,,,,,,,,,,,,,,,,,,,,,21.66666667,73,20,75,241.6666667,11.33333333,11.33333333,-0.543518508,-0.39629638,1,0,0,3.3005,submitButton,7.485596708,-0.344444428,-0.262963042,0,0,0,0,41,41,57,1,73,69478,blockT,180,2022-02-16_17h06.25.785,orientation adjustment block,2021.2.3,Win32,60.20469597,,,,,,,
,,,,,,,,,,,,,,,,,,,,,,-62.77777778,19,20,75,23.22222222,4.222222222,4.222222222,-0.503703692,-0.394444471,1,0,0,1.7507,submitButton,7.369047619,0.143518549,-0.290740821,0,0,0,0,42,42,3,1,19,69478,blockT,180,2022-02-16_17h06.25.785,orientation adjustment block,2021.2.3,Win32,60.20469597,,,,,,,
,,,,,,,,,,,,,,,,,,,,,,-30.55555556,62,20,75,64.44444444,2.444444444,2.444444444,-0.522222211,-0.426851936,1,0,0,0.833,submitButton,7.199233716,0.162962994,-0.142592612,0,0,0,0,43,43,46,1,62,69478,blockT,180,2022-02-16_17h06.25.785,orientation adjustment block,2021.2.3,Win32,60.20469597,,,,,,,
,,,,,,,,,,,,,,,,,,,,,,54.44444444,-59,20,75,110.4444444,10.55555556,10.55555556,-0.498148137,-0.397222249,1,0,0,2.3843,submitButton,7.311111111,0.315740777,-0.409259286,1,0,0,0,44,44,43,1,59,69478,blockT,180,2022-02-16_17h06.25.785,orientation adjustment block,2021.2.3,Win32,60.20469597,continueButton,,,,,,
,,,,,,,,,,,,,,,,,,,,,,63.88888889,30,20,75,199.8888889,10.11111111,10.11111111,-0.376851837,-0.41759262,1,0,0,1.9173,submitButton,7.401433692,0.067592621,-0.300000024,0,0,0,0,45,45,14,1,30,69478,blockT,180,2022-02-16_17h06.25.785,orientation adjustment block,2021.2.3,Win32,60.20469597,,,,,,,
,,,,,,,,,,,,,,,,,,,,,,-58.88888889,-17,20,75,-206.8888889,9.888888889,9.888888889,0.384259297,-0.30462971,1,0,0,0.5141,submitButton,7.479166667,-0.575925917,-0.407407491,0,0,0,0,46,46,1,1,17,69478,blockT,180,2022-02-16_17h06.25.785,orientation adjustment block,2021.2.3,Win32,60.20469597,,,,,,,
,,,,,,,,,,,,,,,,,,,,,,31.66666667,-45,20,75,-46.33333333,1.333333333,1.333333333,0.364814852,-0.309259283,1,0,0,0.5474,submitButton,7.292929293,-0.153703625,-0.314814839,0,0,0,0,47,47,29,1,45,69478,blockT,180,2022-02-16_17h06.25.785,orientation adjustment block,2021.2.3,Win32,60.20469597,,,,,,,
,,,,,,,,,,,,,,,,,,,,,,-24.44444444,-54,20,75,-45.44444444,8.555555556,8.555555556,-0.549074064,-0.412963047,1,0,0,0.8021,submitButton,7.330065359,0.153703735,-0.357407489,0,0,0,0,48,48,38,1,54,69478,blockT,180,2022-02-16_17h06.25.785,orientation adjustment block,2021.2.3,Win32,60.20469597,,,,,,,
,,,,,,,,,,,,,,,,,,,,,,-73.88888889,49,20,75,39.11111111,9.888888889,9.888888889,-0.574074065,-0.40833336,1,0,0,1.5176,submitButton,7.403174603,0.039814842,-0.325925951,0,0,0,0,49,49,33,1,49,69478,blockT,180,2022-02-16_17h06.25.785,orientation adjustment block,2021.2.3,Win32,60.20469597,,,,,,,
,,,,,,,,,,,,,,,,,,,,,,56.11111111,-47,20,75,123.1111111,9.888888889,9.888888889,-0.590740732,-0.409259286,1,0,0,2.1834,submitButton,7.472222222,-0.158333312,-0.294444468,0,0,0,0,50,50,31,1,47,69478,blockT,180,2022-02-16_17h06.25.785,orientation adjustment block,2021.2.3,Win32,60.20469597,,,,,,,
,,,,,,,,,,,,,,,,,,,,,,-33.33333333,-61,20,75,-51.33333333,9.666666667,9.666666667,-0.587962954,-0.386111138,1,0,0,1.0504,submitButton,7.531531532,-0.105555532,-0.250000022,0,0,0,0,51,51,45,1,61,69478,blockT,180,2022-02-16_17h06.25.785,orientation adjustment block,2021.2.3,Win32,60.20469597,,,,,,,
,,,,,,,,,,,,,,,,,,,,,,-52.77777778,16,20,75,25.22222222,9.222222222,9.222222222,-0.536111101,-0.410185269,1,0,0,1.2177,submitButton,7.576023392,-0.137962941,-0.350000025,0,0,0,0,52,52,0,1,16,69478,blockT,180,2022-02-16_17h06.25.785,orientation adjustment block,2021.2.3,Win32,60.20469597,,,,,,,
,,,,,,,,,,,,,,,,,,,,,,68.88888889,-39,20,75,-30.11111111,8.888888889,8.888888889,0.387037075,-0.30092595,1,0,0,0.114,submitButton,7.60968661,-0.078703623,-0.326851933,0,0,0,0,53,53,23,1,39,69478,blockT,180,2022-02-16_17h06.25.785,orientation adjustment block,2021.2.3,Win32,60.20469597,,,,,,,
,,,,,,,,,,,,,,,,,,,,,,-22.77777778,-52,20,75,-40.77777778,11.22222222,11.22222222,-0.557407398,-0.406481508,1,0,0,1.1333,submitButton,7.7,-0.042592511,-0.271296376,0,0,0,0,54,54,36,1,52,69478,blockT,180,2022-02-16_17h06.25.785,orientation adjustment block,2021.2.3,Win32,60.20469597,,,,,,,
,,,,,,,,,,,,,,,,,,,,,,-41.11111111,-41,20,75,-48.11111111,7.111111111,7.111111111,-0.544444434,-0.377777804,1,0,0,1.1523,submitButton,7.685636856,-0.050925844,-0.331481506,0,0,0,0,55,55,25,1,41,69478,blockT,180,2022-02-16_17h06.25.785,orientation adjustment block,2021.2.3,Win32,60.20469597,,,,,,,
,,,,,,,,,,,,,,,,,,,,,,-47.77777778,34,20,75,31.22222222,2.777777778,2.777777778,-0.556481472,-0.407407491,1,0,0,0.933,submitButton,7.568783069,0.013888916,-0.205555577,0,0,0,0,56,56,18,1,34,69478,blockT,180,2022-02-16_17h06.25.785,orientation adjustment block,2021.2.3,Win32,60.20469597,,,,,,,
,,,,,,,,,,,,,,,,,,,,,,-35.55555556,66,20,75,53.44444444,12.55555556,12.55555556,0.171296328,-0.301851932,1,0,0,1.1335,submitButton,7.684754522,-0.166666645,-0.160185205,0,0,0,0,57,57,50,1,66,69478,blockT,180,2022-02-16_17h06.25.785,orientation adjustment block,2021.2.3,Win32,60.20469597,,,,,,,
,,,,,,,,,,,,,,,,,,,,,,-64.44444444,60,20,75,61.55555556,1.555555556,1.555555556,-0.463888876,-0.410185269,1,0,0,1.6329,submitButton,7.545454545,0.162962994,-0.285185265,0,0,0,0,58,58,44,1,60,69478,blockT,180,2022-02-16_17h06.25.785,orientation adjustment block,2021.2.3,Win32,60.20469597,,,,,,,
,,,,,,,,,,,,,,,,,,,,,,-65.55555556,64,20,75,75.44444444,11.44444444,11.44444444,-0.5111111,-0.395370397,1,0,0,1.6349,submitButton,7.632098765,0.257407442,-0.400000027,1,0,0,0,59,59,48,1,64,69478,blockT,180,2022-02-16_17h06.25.785,orientation adjustment block,2021.2.3,Win32,60.20469597,continueButton,,,,,,
,,,,,,,,,,,,,,,,,,,,,,25.55555556,-67,20,75,-73.44444444,6.444444444,6.444444444,0.380555593,-0.314814839,1,0,0,0.4643,submitButton,7.606280193,0.33333337,-0.30092595,0,0,0,1,0,60,51,1,67,69478,blockT,180,2022-02-16_17h06.25.785,orientation adjustment block,2021.2.3,Win32,60.20469597,,,,,,,
,,,,,,,,,,,,,,,,,,,,,,-27.22222222,-53,20,75,-47.22222222,5.777777778,5.777777778,-0.638888881,-0.402777805,1,0,0,1.264,submitButton,7.567375887,0.174074106,-0.206481503,0,0,0,1,1,61,37,1,53,69478,blockT,180,2022-02-16_17h06.25.785,orientation adjustment block,2021.2.3,Win32,60.20469597,,,,,,,
,,,,,,,,,,,,,,,,,,,,,,-55,-18,20,75,-22,4,4,-0.631481474,-0.389814841,1,0,0,1.0311,submitButton,7.493055556,0.068518547,-0.243518597,0,0,0,1,2,62,2,1,18,69478,blockT,180,2022-02-16_17h06.25.785,orientation adjustment block,2021.2.3,Win32,60.20469597,,,,,,,
,,,,,,,,,,,,,,,,,,,,,,-29.44444444,45,20,75,51.55555556,6.555555556,6.555555556,-0.625925918,-0.394444471,1,0,0,1.2828,submitButton,7.473922902,-0.169444423,-0.259259282,0,0,0,1,3,63,29,1,45,69478,blockT,180,2022-02-16_17h06.25.785,orientation adjustment block,2021.2.3,Win32,60.20469597,,,,,,,
,,,,,,,,,,,,,,,,,,,,,,60,61,20,75,233,8,8,-0.634259252,-0.401851935,1,0,0,2.4004,submitButton,7.484444444,-0.17314807,-0.196296317,0,0,0,1,4,64,45,1,61,69478,blockT,180,2022-02-16_17h06.25.785,orientation adjustment block,2021.2.3,Win32,60.20469597,,,,,,,
,,,,,,,,,,,,,,,,,,,,,,-38.88888889,-34,20,75,-215.8888889,1.888888889,1.888888889,-0.61851851,-0.401851935,1,0,0,3.001,submitButton,7.374727669,-0.305555538,-0.22685193,0,0,0,1,5,65,18,1,34,69478,blockT,180,2022-02-16_17h06.25.785,orientation adjustment block,2021.2.3,Win32,60.20469597,,,,,,,
,,,,,,,,,,,,,,,,,,,,,,-56.66666667,26,20,75,34.33333333,8.333333333,8.333333333,-0.634259252,-0.400000027,1,0,0,1.384,submitButton,7.393162393,-0.333333317,-0.273148171,0,0,0,1,6,66,10,1,26,69478,blockT,180,2022-02-16_17h06.25.785,orientation adjustment block,2021.2.3,Win32,60.20469597,,,,,,,
,,,,,,,,,,,,,,,,,,,,,,27.22222222,-40,20,75,-39.77777778,0.222222222,0.222222222,-0.574999991,-0.388888915,1,0,0,0.8176,submitButton,7.257861635,0.060185213,-0.081481499,0,0,0,1,7,67,24,1,40,69478,blockT,180,2022-02-16_17h06.25.785,orientation adjustment block,2021.2.3,Win32,60.20469597,,,,,,,
,,,,,,,,,,,,,,,,,,,,,,-71.66666667,49,20,75,44.33333333,4.666666667,4.666666667,-0.561111101,-0.430555583,1,0,0,1.9016,submitButton,7.209876543,0.239814848,-0.163888909,0,0,0,1,8,68,33,1,49,69478,blockT,180,2022-02-16_17h06.25.785,orientation adjustment block,2021.2.3,Win32,60.20469597,,,,,,,
,,,,,,,,,,,,,,,,,,,,,,59.44444444,37,20,75,222.4444444,5.444444444,5.444444444,-0.499999988,-0.403703731,1,0,0,2.381,submitButton,7.177777778,0.080555584,-0.174074094,0,0,0,1,9,69,21,1,37,69478,blockT,180,2022-02-16_17h06.25.785,orientation adjustment block,2021.2.3,Win32,60.20469597,,,,,,,
,,,,,,,,,,,,,,,,,,,,,,44.44444444,70,20,75,68.44444444,1.555555556,1.555555556,0.40185189,-0.290740821,1,0,0,0.0658,submitButton,7.077380952,0.128703734,-0.164814835,0,0,0,1,10,70,54,1,70,69478,blockT,180,2022-02-16_17h06.25.785,orientation adjustment block,2021.2.3,Win32,60.20469597,,,,,,,
,,,,,,,,,,,,,,,,,,,,,,38.33333333,51,20,75,59.33333333,8.333333333,8.333333333,-0.544444434,-0.400000027,1,0,0,0.8669,submitButton,7.099415205,0.291666702,-0.070370387,0,0,0,1,11,71,35,1,51,69478,blockT,180,2022-02-16_17h06.25.785,orientation adjustment block,2021.2.3,Win32,60.20469597,,,,,,,
,,,,,,,,,,,,,,,,,,,,,,66.11111111,-59,20,75,-46.88888889,12.11111111,12.11111111,0.362037074,-0.283333357,1,0,0,0.167,submitButton,7.185823755,-0.221296276,-0.200000021,0,0,0,1,12,72,43,1,59,69478,blockT,180,2022-02-16_17h06.25.785,orientation adjustment block,2021.2.3,Win32,60.20469597,,,,,,,
,,,,,,,,,,,,,,,,,,,,,,74.44444444,-44,20,75,-42.55555556,1.444444444,1.444444444,-0.547222212,-0.407407491,1,0,0,1.7007,submitButton,7.088512241,0.172222254,-0.159259279,0,0,0,1,13,73,28,1,44,69478,blockT,180,2022-02-16_17h06.25.785,orientation adjustment block,2021.2.3,Win32,60.20469597,,,,,,,
,,,,,,,,,,,,,,,,,,,,,,-42.77777778,75,20,75,70.22222222,4.777777778,4.777777778,-0.538888878,-0.38240749,1,0,0,0.9837,submitButton,7.05,0.317592629,-0.412037064,1,0,0,1,14,74,59,1,75,69478,blockT,180,2022-02-16_17h06.25.785,orientation adjustment block,2021.2.3,Win32,60.20469597,continueButton,,,,,,
,,,,,,,,,,,,,,,,,,,,,,-34.44444444,65,20,75,72.55555556,7.555555556,7.555555556,-0.699999994,-0.407407491,1,0,0,0.9839,submitButton,7.058287796,0.049074159,-0.346296378,0,0,0,1,15,75,49,1,65,69478,blockT,180,2022-02-16_17h06.25.785,orientation adjustment block,2021.2.3,Win32,60.20469597,,,,,,,
,,,,,,,,,,,,,,,,,,,,,,53.88888889,-43,20,75,-33.11111111,9.888888889,9.888888889,-0.599074065,-0.409259286,1,0,0,1.2008,submitButton,7.103942652,0.076851881,-0.232407486,0,0,0,1,16,76,27,1,43,69478,blockT,180,2022-02-16_17h06.25.785,orientation adjustment block,2021.2.3,Win32,60.20469597,,,,,,,
,,,,,,,,,,,,,,,,,,,,,,51.11111111,-25,20,75,-34.88888889,9.888888889,9.888888889,0.407407446,-0.30092595,1,0,0,0.0637,submitButton,7.148148148,0.019444472,-0.298148172,0,0,0,1,17,77,9,1,25,69478,blockT,180,2022-02-16_17h06.25.785,orientation adjustment block,2021.2.3,Win32,60.20469597,,,,,,,
,,,,,,,,,,,,,,,,,,,,,,29.44444444,50,20,75,62.44444444,12.44444444,12.44444444,0.398148187,-0.323148173,1,0,0,0.1005,submitButton,7.230902778,0.263888923,-0.256481504,0,0,0,1,18,78,34,1,50,69478,blockT,180,2022-02-16_17h06.25.785,orientation adjustment block,2021.2.3,Win32,60.20469597,,,,,,,
,,,,,,,,,,,,,,,,,,,,,,-50,31,20,75,26,5,5,-0.551851842,-0.426851936,1,0,0,1.6502,submitButton,7.196581197,0.259259293,-0.232407486,0,0,0,1,19,79,15,1,31,69478,blockT,180,2022-02-16_17h06.25.785,orientation adjustment block,2021.2.3,Win32,60.20469597,,,,,,,
,,,,,,,,,,,,,,,,,,,,,,-64.44444444,57,20,75,44.55555556,12.44444444,12.44444444,0.400925964,-0.308333357,1,0,0,0.0847,submitButton,7.276094276,0.20277781,-0.261111134,0,0,0,1,20,80,41,1,57,69478,blockT,180,2022-02-16_17h06.25.785,orientation adjustment block,2021.2.3,Win32,60.20469597,,,,,,,
,,,,,,,,,,,,,,,,,,,,,,52.77777778,-36,20,75,-37.22222222,1.222222222,1.222222222,-0.50462959,-0.398148175,1,0,0,1.1673,submitButton,7.185737977,0.13888892,-0.236111133,0,0,0,1,21,81,20,1,36,69478,blockT,180,2022-02-16_17h06.25.785,orientation adjustment block,2021.2.3,Win32,60.20469597,,,,,,,
,,,,,,,,,,,,,,,,,,,,,,47.77777778,21,20,75,41.77777778,20.77777778,20.77777778,-0.492592581,-0.40833336,1,0,0,0.8994,submitButton,7.385620915,0.269444479,-0.296296377,0,0,0,1,22,82,5,1,21,69478,blockT,180,2022-02-16_17h06.25.785,orientation adjustment block,2021.2.3,Win32,60.20469597,,,,,,,
,,,,,,,,,,,,,,,,,,,,,,-53.33333333,24,20,75,22.66666667,1.333333333,1.333333333,-0.514814804,-0.400925953,1,0,0,1.5838,submitButton,7.297906602,0.275925961,-0.219444466,0,0,0,1,23,83,8,1,24,69478,blockT,180,2022-02-16_17h06.25.785,orientation adjustment block,2021.2.3,Win32,60.20469597,,,,,,,
,,,,,,,,,,,,,,,,,,,,,,28.88888889,-52,20,75,-48.11111111,3.888888889,3.888888889,-0.502777766,-0.399074157,1,0,0,0.7683,submitButton,7.249206349,0.161111142,-0.190740761,0,0,0,1,24,84,36,1,52,69478,blockT,180,2022-02-16_17h06.25.785,orientation adjustment block,2021.2.3,Win32,60.20469597,,,,,,,
,,,,,,,,,,,,,,,,,,,,,,-52.22222222,-48,20,75,-226.2222222,1.777777778,1.777777778,-0.500925914,-0.401851935,1,0,0,2.6334,submitButton,7.172143975,0.100000029,-0.219444466,0,0,0,1,25,85,32,1,48,69478,blockT,180,2022-02-16_17h06.25.785,orientation adjustment block,2021.2.3,Win32,60.20469597,,,,,,,
,,,,,,,,,,,,,,,,,,,,,,27.77777778,28,20,75,31.77777778,3.777777778,3.777777778,0.40648152,-0.325000025,1,0,0,0.4337,submitButton,7.125,0.312037073,-0.186111132,0,0,0,1,26,86,12,1,28,69478,blockT,180,2022-02-16_17h06.25.785,orientation adjustment block,2021.2.3,Win32,60.20469597,,,,,,,
,,,,,,,,,,,,,,,,,,,,,,-59.44444444,-32,20,75,-53.44444444,21.44444444,21.44444444,-0.515740701,-0.397222249,1,0,0,1.4831,submitButton,7.321156773,0.066666695,-0.235185264,0,0,0,1,27,87,16,1,32,69478,blockT,180,2022-02-16_17h06.25.785,orientation adjustment block,2021.2.3,Win32,60.20469597,,,,,,,
,,,,,,,,,,,,,,,,,,,,,,59.44444444,68,20,75,237.4444444,10.55555556,10.55555556,0.17314818,-0.298148172,1,0,0,0.0164,submitButton,7.364864865,0.12962966,-0.253703726,0,0,0,1,28,88,52,1,68,69478,blockT,180,2022-02-16_17h06.25.785,orientation adjustment block,2021.2.3,Win32,60.20469597,,,,,,,
,,,,,,,,,,,,,,,,,,,,,,-33.33333333,-33,20,75,-37.33333333,4.333333333,4.333333333,0.36759263,-0.295370394,1,0,0,0.0665,submitButton,7.324444444,0.295370406,-0.393518602,1,0,0,1,29,89,17,1,33,69478,blockT,180,2022-02-16_17h06.25.785,orientation adjustment block,2021.2.3,Win32,60.20469597,continueButton,,,,,,
,,,,,,,,,,,,,,,,,,,,,,35,-47,20,75,-41,6,6,-0.505555544,-0.385185268,1,0,0,0.9342,submitButton,7.307017544,0.20740744,-0.375925952,0,0,0,1,30,90,31,1,47,69478,blockT,180,2022-02-16_17h06.25.785,orientation adjustment block,2021.2.3,Win32,60.20469597,,,,,,,
,,,,,,,,,,,,,,,,,,,,,,-36.11111111,-41,20,75,-44.11111111,3.111111111,3.111111111,-0.508333322,-0.410185269,1,0,0,0.9333,submitButton,7.252525253,0.123148178,-0.374074157,0,0,0,1,31,91,25,1,41,69478,blockT,180,2022-02-16_17h06.25.785,orientation adjustment block,2021.2.3,Win32,60.20469597,,,,,,,
,,,,,,,,,,,,,,,,,,,,,,71.11111111,-38,20,75,-33.88888889,4.111111111,4.111111111,-0.454629588,-0.395370397,1,0,0,1.4833,submitButton,7.212250712,0.09074077,-0.328703728,0,0,0,1,32,92,22,1,38,69478,blockT,180,2022-02-16_17h06.25.785,orientation adjustment block,2021.2.3,Win32,60.20469597,,,,,,,
,,,,,,,,,,,,,,,,,,,,,,62.22222222,46,20,75,227.2222222,1.222222222,1.222222222,-0.416666653,-0.37870373,1,0,0,2.4832,submitButton,7.136427567,0.210185218,-0.254629709,0,0,0,1,33,93,30,1,46,69478,blockT,180,2022-02-16_17h06.25.785,orientation adjustment block,2021.2.3,Win32,60.20469597,,,,,,,
,,,,,,,,,,,,,,,,,,,,,,26.66666667,-56,20,75,-57.33333333,1.333333333,1.333333333,-0.443518477,-0.389814841,1,0,0,0.9171,submitButton,7.063888889,0.266666701,-0.319444469,0,0,0,1,34,94,40,1,56,69478,blockT,180,2022-02-16_17h06.25.785,orientation adjustment block,2021.2.3,Win32,60.20469597,,,,,,,
,,,,,,,,,,,,,,,,,,,,,,-42.77777778,69,20,75,45.22222222,23.77777778,23.77777778,0.243518552,-0.312963044,1,0,0,0.3337,submitButton,7.270233196,0.300925961,-0.167592612,0,0,0,1,35,95,53,1,69,69478,blockT,180,2022-02-16_17h06.25.785,orientation adjustment block,2021.2.3,Win32,60.20469597,,,,,,,
,,,,,,,,,,,,,,,,,,,,,,31.66666667,-19,20,75,-27.33333333,8.333333333,8.333333333,-0.414814801,-0.38333336,1,0,0,0.7864,submitButton,7.283197832,0.199074106,-0.368518601,0,0,0,1,36,96,3,1,19,69478,blockT,180,2022-02-16_17h06.25.785,orientation adjustment block,2021.2.3,Win32,60.20469597,,,,,,,
,,,,,,,,,,,,,,,,,,,,,,62.77777778,-72,20,75,-76.22222222,4.222222222,4.222222222,-0.369444429,-0.325925951,1,0,0,1.0503,submitButton,7.246318608,0.325925962,-0.275000023,0,0,0,1,37,97,56,1,72,69478,blockT,180,2022-02-16_17h06.25.785,orientation adjustment block,2021.2.3,Win32,60.20469597,,,,,,,
,,,,,,,,,,,,,,,,,,,,,,-59.44444444,74,20,75,67.55555556,6.444444444,6.444444444,-0.502777766,-0.38240749,1,0,0,1.0667,submitButton,7.236772487,0.148148179,-0.312963044,0,0,0,1,38,98,58,1,74,69478,blockT,180,2022-02-16_17h06.25.785,orientation adjustment block,2021.2.3,Win32,60.20469597,,,,,,,
,,,,,,,,,,,,,,,,,,,,,,56.66666667,23,20,75,34.66666667,11.66666667,11.66666667,-0.38055554,-0.366666692,1,0,0,0.8151,submitButton,7.288888889,0.098148178,-0.270370393,0,0,0,1,39,99,7,1,23,69478,blockT,180,2022-02-16_17h06.25.785,orientation adjustment block,2021.2.3,Win32,60.20469597,,,,,,,
,,,,,,,,,,,,,,,,,,,,,,-73.33333333,-39,20,75,-210.3333333,8.666666667,8.666666667,-0.474074033,-0.405555583,1,0,0,2.3675,submitButton,7.304909561,-0.028703622,-0.281481505,0,0,0,1,40,100,23,1,39,69478,blockT,180,2022-02-16_17h06.25.785,orientation adjustment block,2021.2.3,Win32,60.20469597,,,,,,,
,,,,,,,,,,,,,,,,,,,,,,58.88888889,62,20,75,69.88888889,7.888888889,7.888888889,0.385185223,-0.323148173,1,0,0,0.815,submitButton,7.311621967,0.051851936,-0.328703728,0,0,0,1,41,101,46,1,62,69478,blockT,180,2022-02-16_17h06.25.785,orientation adjustment block,2021.2.3,Win32,60.20469597,,,,,,,
,,,,,,,,,,,,,,,,,,,,,,-62.77777778,66,20,75,54.22222222,11.77777778,11.77777778,-0.482407367,-0.42129638,1,0,0,1.2495,submitButton,7.362373737,0.195370403,-0.276851932,0,0,0,1,42,102,50,1,66,69478,blockT,180,2022-02-16_17h06.25.785,orientation adjustment block,2021.2.3,Win32,60.20469597,,,,,,,
,,,,,,,,,,,,,,,,,,,,,,-70.55555556,60,20,75,-104.5555556,15.44444444,15.44444444,-0.312962946,-0.368518601,1,0,0,1.7335,submitButton,7.453183521,0.149074105,-0.257407486,0,0,0,1,43,103,44,1,60,69478,blockT,180,2022-02-16_17h06.25.785,orientation adjustment block,2021.2.3,Win32,60.20469597,,,,,,,
,,,,,,,,,,,,,,,,,,,,,,26.66666667,-35,20,75,-36.33333333,1.333333333,1.333333333,0.442592632,-0.322222247,1,0,0,0.4334,submitButton,7.385185185,0.31944448,-0.392592619,1,0,0,1,44,104,19,1,35,69478,blockT,180,2022-02-16_17h06.25.785,orientation adjustment block,2021.2.3,Win32,60.20469597,continueButton,,,,,,
,,,,,,,,,,,,,,,,,,,,,,-40.55555556,54,20,75,52.44444444,1.555555556,1.555555556,-0.562037027,-0.431481509,1,0,0,1.2337,submitButton,7.321123321,0.220370403,-0.094444462,0,0,0,1,45,105,38,1,54,69478,blockT,180,2022-02-16_17h06.25.785,orientation adjustment block,2021.2.3,Win32,60.20469597,,,,,,,
,,,,,,,,,,,,,,,,,,,,,,30.55555556,-55,20,75,-59.44444444,4.444444444,4.444444444,0.425925965,-0.30092595,1,0,0,0.1338,submitButton,7.289855072,0.150925957,-0.246296375,0,0,0,1,46,106,39,1,55,69478,blockT,180,2022-02-16_17h06.25.785,orientation adjustment block,2021.2.3,Win32,60.20469597,,,,,,,
,,,,,,,,,,,,,,,,,,,,,,-65,73,20,75,71,2,2,0.181481513,-0.299074154,1,0,0,0.0802,submitButton,7.23297491,-0.502777766,-0.397222249,0,0,0,1,47,107,57,1,73,69478,blockT,180,2022-02-16_17h06.25.785,orientation adjustment block,2021.2.3,Win32,60.20469597,,,,,,,
,,,,,,,,,,,,,,,,,,,,,,55,16,20,75,16,0,0,0.456481522,-0.313888913,1,0,0,0.084,submitButton,7.156028369,-0.517592582,-0.412963047,0,0,0,1,48,108,0,1,16,69478,blockT,180,2022-02-16_17h06.25.785,orientation adjustment block,2021.2.3,Win32,60.20469597,,,,,,,
,,,,,,,,,,,,,,,,,,,,,,22.77777778,-42,20,75,-46.22222222,4.222222222,4.222222222,-0.562962953,-0.400000027,1,0,0,0.8834,submitButton,7.125146199,0.137037068,-0.241666689,0,0,0,1,49,109,26,1,42,69478,blockT,180,2022-02-16_17h06.25.785,orientation adjustment block,2021.2.3,Win32,60.20469597,,,,,,,
,,,,,,,,,,,,,,,,,,,,,,66.66666667,22,20,75,212.6666667,10.66666667,10.66666667,-0.505555544,-0.416666694,1,0,0,2.5005,submitButton,7.162037037,-0.505555544,-0.416666694,0,0,0,1,50,110,6,1,22,69478,blockT,180,2022-02-16_17h06.25.785,orientation adjustment block,2021.2.3,Win32,60.20469597,,,,,,,
,,,,,,,,,,,,,,,,,,,,,,53.33333333,71,20,75,68.33333333,2.666666667,2.666666667,0.364814852,-0.314814839,1,0,0,0.0502,submitButton,7.115693013,-0.560185175,-0.402777805,0,0,0,1,51,111,55,1,71,69478,blockT,180,2022-02-16_17h06.25.785,orientation adjustment block,2021.2.3,Win32,60.20469597,,,,,,,
,,,,,,,,,,,,,,,,,,,,,,-62.22222222,-29,20,75,-40.22222222,11.22222222,11.22222222,-0.54999999,-0.41759262,1,0,0,1,submitButton,7.157596372,-0.54999999,-0.41759262,0,0,0,1,52,112,13,1,29,69478,blockT,180,2022-02-16_17h06.25.785,orientation adjustment block,2021.2.3,Win32,60.20469597,,,,,,,
,,,,,,,,,,,,,,,,,,,,,,-54.44444444,-30,20,75,-38.44444444,8.444444444,8.444444444,-0.536111101,-0.407407491,1,0,0,0.9006,submitButton,7.170594837,-0.089814734,-0.290740821,0,0,0,1,53,113,14,1,30,69478,blockT,180,2022-02-16_17h06.25.785,orientation adjustment block,2021.2.3,Win32,60.20469597,,,,,,,
,,,,,,,,,,,,,,,,,,,,,,67.22222222,27,20,75,47.22222222,20.22222222,20.22222222,-0.560185175,-0.407407491,1,0,0,1.1506,submitButton,7.301111111,0.020370397,-0.2527778,0,0,0,1,54,114,11,1,27,69478,blockT,180,2022-02-16_17h06.25.785,orientation adjustment block,2021.2.3,Win32,60.20469597,,,,,,,
,,,,,,,,,,,,,,,,,,,,,,20,58,20,75,51,7,7,-0.542592582,-0.409259286,1,0,0,0.6808,submitButton,7.298129813,0.238888922,-0.231481503,0,0,0,1,55,115,42,1,58,69478,blockT,180,2022-02-16_17h06.25.785,orientation adjustment block,2021.2.3,Win32,60.20469597,,,,,,,
,,,,,,,,,,,,,,,,,,,,,,21.66666667,-17,20,75,-32.33333333,15.33333333,15.33333333,-0.542592582,-0.399074157,1,0,0,0.816,submitButton,7.376906318,0.267592627,-0.288888912,0,0,0,1,56,116,1,1,17,69478,blockT,180,2022-02-16_17h06.25.785,orientation adjustment block,2021.2.3,Win32,60.20469597,,,,,,,
,,,,,,,,,,,,,,,,,,,,,,-25,-64,20,75,-59,5,5,-0.497222211,-0.364814841,1,0,0,1.1168,submitButton,7.353829558,0.046296381,-0.224074152,0,0,0,1,57,117,48,1,64,69478,blockT,180,2022-02-16_17h06.25.785,orientation adjustment block,2021.2.3,Win32,60.20469597,,,,,,,
,,,,,,,,,,,,,,,,,,,,,,37.77777778,-20,20,75,-21.22222222,1.222222222,1.222222222,0.414814854,-0.26574082,1,0,0,0.4833,submitButton,7.294871795,-0.510185146,-0.412963047,0,0,0,1,58,118,4,1,20,69478,blockT,180,2022-02-16_17h06.25.785,orientation adjustment block,2021.2.3,Win32,60.20469597,,,,,,,
,,,,,,,,,,,,,,,,,,,,,,50.55555556,-63,20,75,-52.44444444,10.55555556,10.55555556,-0.564814805,-0.387963046,1,0,0,0.899,submitButton,7.325925926,0.262962997,-0.398148175,1,0,0,1,59,119,47,1,63,69478,blockT,180,2022-02-16_17h06.25.785,orientation adjustment block,2021.2.3,Win32,60.20469597,continueButton,,,,,,
,,,,,,,,,,,,,,,,,,,,,,-25,38,20,75,34,4,4,0.418518557,-0.309259283,1,0,0,0.0983,submitButton,7.294549266,0.109259289,-0.204629651,0,0,0,2,0,120,22,1,38,69478,blockT,180,2022-02-16_17h06.25.785,orientation adjustment block,2021.2.3,Win32,60.20469597,,,,,,,
,,,,,,,,,,,,,,,,,,,,,,-31.11111111,-21,20,75,-30.11111111,9.111111111,9.111111111,-0.345370354,-0.377777804,1,0,0,0.6173,submitButton,7.31152648,-0.345370354,-0.377777804,0,0,0,2,1,121,5,1,21,69478,blockT,180,2022-02-16_17h06.25.785,orientation adjustment block,2021.2.3,Win32,60.20469597,,,,,,,
,,,,,,,,,,,,,,,,,,,,,,43.33333333,-41,20,75,-26.66666667,14.33333333,14.33333333,-0.438888875,-0.386111138,1,0,0,0.8005,submitButton,7.37654321,-0.438888875,-0.386111138,0,0,0,2,2,122,25,1,41,69478,blockT,180,2022-02-16_17h06.25.785,orientation adjustment block,2021.2.3,Win32,60.20469597,,,,,,,
,,,,,,,,,,,,,,,,,,,,,,46.11111111,19,20,75,214.1111111,15.11111111,15.11111111,-0.401851837,-0.410185269,1,0,0,3.067,submitButton,7.447502548,-0.401851837,-0.410185269,0,0,0,2,3,123,3,1,19,69478,blockT,180,2022-02-16_17h06.25.785,orientation adjustment block,2021.2.3,Win32,60.20469597,,,,,,,
,,,,,,,,,,,,,,,,,,,,,,32.77777778,-45,20,75,-49.22222222,4.222222222,4.222222222,-0.512962924,-0.426851936,1,0,0,0.8667,submitButton,7.418181818,0.174074106,-0.257407486,0,0,0,2,4,124,29,1,45,69478,blockT,180,2022-02-16_17h06.25.785,orientation adjustment block,2021.2.3,Win32,60.20469597,,,,,,,
,,,,,,,,,,,,,,,,,,,,,,66.66666667,59,20,75,69.66666667,10.66666667,10.66666667,-0.410185171,-0.414814842,1,0,0,1.1004,submitButton,7.447447447,0.412963002,-0.22314817,0,0,0,2,5,125,43,1,59,69478,blockT,180,2022-02-16_17h06.25.785,orientation adjustment block,2021.2.3,Win32,60.20469597,,,,,,,
,,,,,,,,,,,,,,,,,,,,,,52.77777778,69,20,75,63.77777778,5.222222222,5.222222222,-0.392592578,-0.388888915,1,0,0,1.3342,submitButton,7.427579365,0.423148187,-0.235185264,0,0,0,2,6,126,53,1,69,69478,blockT,180,2022-02-16_17h06.25.785,orientation adjustment block,2021.2.3,Win32,60.20469597,,,,,,,
,,,,,,,,,,,,,,,,,,,,,,-22.22222222,20,20,75,26.77777778,6.777777778,6.777777778,0.230555589,-0.309259283,1,0,0,0.0169,submitButton,7.421828909,0.160185216,-0.150925945,0,0,0,2,7,127,4,1,20,69478,blockT,180,2022-02-16_17h06.25.785,orientation adjustment block,2021.2.3,Win32,60.20469597,,,,,,,
,,,,,,,,,,,,,,,,,,,,,,50.55555556,34,20,75,47.55555556,13.55555556,13.55555556,-0.42685181,-0.400000027,1,0,0,1.468,submitButton,7.475633528,0.263888923,-0.250925948,0,0,0,2,8,128,18,1,34,69478,blockT,180,2022-02-16_17h06.25.785,orientation adjustment block,2021.2.3,Win32,60.20469597,,,,,,,
,,,,,,,,,,,,,,,,,,,,,,56.66666667,-74,20,75,-55.33333333,18.66666667,18.66666667,-0.392592578,-0.416666694,1,0,0,0.8841,submitButton,7.57294686,0.40648152,-0.206481503,0,0,0,2,9,129,58,1,74,69478,blockT,180,2022-02-16_17h06.25.785,orientation adjustment block,2021.2.3,Win32,60.20469597,,,,,,,
,,,,,,,,,,,,,,,,,,,,,,30.55555556,-25,20,75,-31.44444444,6.444444444,6.444444444,-0.376851837,-0.392592619,1,0,0,1.1507,submitButton,7.563218391,0.309259295,-0.233333355,0,0,0,2,10,130,9,1,25,69478,blockT,180,2022-02-16_17h06.25.785,orientation adjustment block,2021.2.3,Win32,60.20469597,,,,,,,
,,,,,,,,,,,,,,,,,,,,,,-70,-56,20,75,-63,7,7,-0.348148132,-0.379629712,1,0,0,1.6666,submitButton,7.558404558,0.225925959,-0.212963041,0,0,0,2,11,131,40,1,56,69478,blockT,180,2022-02-16_17h06.25.785,orientation adjustment block,2021.2.3,Win32,60.20469597,,,,,,,
,,,,,,,,,,,,,,,,,,,,,,70.55555556,18,20,75,42.55555556,24.55555556,24.55555556,-0.414814801,-0.359259285,1,0,0,0.9509,submitButton,7.702448211,0.254629664,-0.154629649,0,0,0,2,12,132,2,1,18,69478,blockT,180,2022-02-16_17h06.25.785,orientation adjustment block,2021.2.3,Win32,60.20469597,,,,,,,
,,,,,,,,,,,,,,,,,,,,,,25,-64,20,75,-62,2,2,-0.469444432,-0.411111138,1,0,0,0.6666,submitButton,7.654528478,0.296296332,-0.22314817,0,0,0,2,13,133,48,1,64,69478,blockT,180,2022-02-16_17h06.25.785,orientation adjustment block,2021.2.3,Win32,60.20469597,,,,,,,
,,,,,,,,,,,,,,,,,,,,,,-30.55555556,-17,20,75,-18.55555556,1.555555556,1.555555556,-0.43333332,-0.411111138,1,0,0,0.8504,submitButton,7.603703704,0.28518522,-0.389814841,1,0,0,2,14,134,1,1,17,69478,blockT,180,2022-02-16_17h06.25.785,orientation adjustment block,2021.2.3,Win32,60.20469597,continueButton,,,,,,
,,,,,,,,,,,,,,,,,,,,,,50.55555556,61,20,75,69.55555556,8.555555556,8.555555556,-0.541666656,-0.400925953,1,0,0,0.7982,submitButton,7.611570248,0.124074104,-0.317592617,0,0,0,2,15,135,45,1,61,69478,blockT,180,2022-02-16_17h06.25.785,orientation adjustment block,2021.2.3,Win32,60.20469597,,,,,,,
,,,,,,,,,,,,,,,,,,,,,,38.33333333,-37,20,75,-39.66666667,2.666666667,2.666666667,-0.331481465,-0.45185188,1,0,0,1.0839,submitButton,7.571038251,0.243518552,-0.201851873,0,0,0,2,16,136,21,1,37,69478,blockT,180,2022-02-16_17h06.25.785,orientation adjustment block,2021.2.3,Win32,60.20469597,,,,,,,
,,,,,,,,,,,,,,,,,,,,,,45.55555556,43,20,75,53.55555556,10.55555556,10.55555556,-0.286111093,-0.402777805,1,0,0,0.8474,submitButton,7.59530262,0.304629665,-0.250925948,0,0,0,2,17,137,27,1,43,69478,blockT,180,2022-02-16_17h06.25.785,orientation adjustment block,2021.2.3,Win32,60.20469597,,,,,,,
,,,,,,,,,,,,,,,,,,,,,,46.11111111,-47,20,75,-42.88888889,4.111111111,4.111111111,-0.333333317,-0.410185269,1,0,0,1.3004,submitButton,7.567204301,0.40648152,-0.193518539,0,0,0,2,18,138,31,1,47,69478,blockT,180,2022-02-16_17h06.25.785,orientation adjustment block,2021.2.3,Win32,60.20469597,,,,,,,
,,,,,,,,,,,,,,,,,,,,,,-66.11111111,-33,20,75,-216.1111111,3.111111111,3.111111111,-0.306481464,-0.412037064,1,0,0,2.4672,submitButton,7.531555556,0.40185189,-0.233333355,0,0,0,2,19,139,17,1,33,69478,blockT,180,2022-02-16_17h06.25.785,orientation adjustment block,2021.2.3,Win32,60.20469597,,,,,,,
,,,,,,,,,,,,,,,,,,,,,,-44.44444444,16,20,75,35.55555556,19.55555556,19.55555556,-0.34629628,-0.397222249,1,0,0,1.3308,submitButton,7.626984127,0.385185223,-0.331481506,0,0,0,2,20,140,0,1,16,69478,blockT,180,2022-02-16_17h06.25.785,orientation adjustment block,2021.2.3,Win32,60.20469597,,,,,,,
,,,,,,,,,,,,,,,,,,,,,,-53.88888889,-30,20,75,-213.8888889,3.888888889,3.888888889,-0.349074058,-0.406481508,1,0,0,2.7003,submitButton,7.597550306,0.084259288,-0.275000023,0,0,0,2,21,141,14,1,30,69478,blockT,180,2022-02-16_17h06.25.785,orientation adjustment block,2021.2.3,Win32,60.20469597,,,,,,,
,,,,,,,,,,,,,,,,,,,,,,-23.88888889,-23,20,75,-24.88888889,1.888888889,1.888888889,-0.417592579,-0.401851935,1,0,0,1.0647,submitButton,7.552951389,0.228703737,-0.302777802,0,0,0,2,22,142,7,1,23,69478,blockT,180,2022-02-16_17h06.25.785,orientation adjustment block,2021.2.3,Win32,60.20469597,,,,,,,
,,,,,,,,,,,,,,,,,,,,,,52.77777778,-65,20,75,-56.22222222,8.777777778,8.777777778,-0.247222203,-0.398148175,1,0,0,0.9186,submitButton,7.562446167,0.149074105,-0.269444467,0,0,0,2,23,143,49,1,65,69478,blockT,180,2022-02-16_17h06.25.785,orientation adjustment block,2021.2.3,Win32,60.20469597,,,,,,,
,,,,,,,,,,,,,,,,,,,,,,-67.22222222,71,20,75,-103.2222222,5.777777778,5.777777778,-0.319444427,-0.400925953,1,0,0,2.0502,submitButton,7.548717949,0.268518553,-0.270370393,0,0,0,2,24,144,55,1,71,69478,blockT,180,2022-02-16_17h06.25.785,orientation adjustment block,2021.2.3,Win32,60.20469597,,,,,,,
,,,,,,,,,,,,,,,,,,,,,,22.22222222,72,20,75,64.22222222,7.777777778,7.777777778,-0.253703685,-0.400925953,1,0,0,0.7841,submitButton,7.550466497,0.353703741,-0.28703706,0,0,0,2,25,145,56,1,72,69478,blockT,180,2022-02-16_17h06.25.785,orientation adjustment block,2021.2.3,Win32,60.20469597,,,,,,,
,,,,,,,,,,,,,,,,,,,,,,61.11111111,36,20,75,35.11111111,0.888888889,0.888888889,-0.314814798,-0.410185269,1,0,0,1.2005,submitButton,7.5,0.370370408,-0.28703706,0,0,0,2,26,146,20,1,36,69478,blockT,180,2022-02-16_17h06.25.785,orientation adjustment block,2021.2.3,Win32,60.20469597,,,,,,,
,,,,,,,,,,,,,,,,,,,,,,45,-50,20,75,-49,1,1,-0.260185166,-0.389814841,1,0,0,1.4978,submitButton,7.45112782,0.224074107,-0.283333357,0,0,0,2,27,147,34,1,50,69478,blockT,180,2022-02-16_17h06.25.785,orientation adjustment block,2021.2.3,Win32,60.20469597,,,,,,,
,,,,,,,,,,,,,,,,,,,,,,26.11111111,-46,20,75,-49.88888889,3.888888889,3.888888889,-0.279629611,-0.406481508,1,0,0,0.75,submitButton,7.424543947,0.290740776,-0.28703706,0,0,0,2,28,148,30,1,46,69478,blockT,180,2022-02-16_17h06.25.785,orientation adjustment block,2021.2.3,Win32,60.20469597,,,,,,,
,,,,,,,,,,,,,,,,,,,,,,-71.11111111,55,20,75,49.88888889,5.111111111,5.111111111,-0.362037021,-0.429629714,1,0,0,1.3997,submitButton,7.407407407,0.312962999,-0.390740824,1,0,0,2,29,149,39,1,55,69478,blockT,180,2022-02-16_17h06.25.785,orientation adjustment block,2021.2.3,Win32,60.20469597,continueButton,,,,,,
,,,,,,,,,,,,,,,,,,,,,,23.33333333,49,20,75,55.33333333,6.333333333,6.333333333,-0.459259246,-0.38240749,1,0,0,0.5671,submitButton,7.399509804,0.250000034,-0.224074152,0,0,0,2,30,150,33,1,49,69478,blockT,180,2022-02-16_17h06.25.785,orientation adjustment block,2021.2.3,Win32,60.20469597,,,,,,,
,,,,,,,,,,,,,,,,,,,,,,-29.44444444,51,20,75,51.55555556,0.555555556,0.555555556,-0.399074059,-0.430555583,1,0,0,0.9668,submitButton,7.349553933,0.093518548,-0.28703706,0,0,0,2,31,151,35,1,51,69478,blockT,180,2022-02-16_17h06.25.785,orientation adjustment block,2021.2.3,Win32,60.20469597,,,,,,,
,,,,,,,,,,,,,,,,,,,,,,38.33333333,-48,20,75,-44.66666667,3.333333333,3.333333333,-0.368518503,-0.42129638,1,0,0,0.9834,submitButton,7.320450886,0.109259289,-0.26203706,0,0,0,2,32,152,32,1,48,69478,blockT,180,2022-02-16_17h06.25.785,orientation adjustment block,2021.2.3,Win32,60.20469597,,,,,,,
,,,,,,,,,,,,,,,,,,,,,,45,-26,20,75,-26,0,0,0.375000038,-0.301851932,1,0,0,0.5022,submitButton,7.267785771,0.193518551,-0.26203706,0,0,0,2,33,153,10,1,26,69478,blockT,180,2022-02-16_17h06.25.785,orientation adjustment block,2021.2.3,Win32,60.20469597,,,,,,,
,,,,,,,,,,,,,,,,,,,,,,63.33333333,22,20,75,212.3333333,10.33333333,10.33333333,0.178703736,-0.30092595,1,0,0,0.4332,submitButton,7.28968254,-0.337962947,-0.399074157,0,0,0,2,34,154,6,1,22,69478,blockT,180,2022-02-16_17h06.25.785,orientation adjustment block,2021.2.3,Win32,60.20469597,,,,,,,
,,,,,,,,,,,,,,,,,,,,,,-61.11111111,-70,20,75,-66.11111111,3.888888889,3.888888889,0.190740773,-0.312037061,1,0,0,0.0999,submitButton,7.265563436,-0.290740723,-0.389814841,0,0,0,2,35,155,54,1,70,69478,blockT,180,2022-02-16_17h06.25.785,orientation adjustment block,2021.2.3,Win32,60.20469597,,,,,,,
,,,,,,,,,,,,,,,,,,,,,,60.55555556,-27,20,75,-22.44444444,4.555555556,4.555555556,-0.267592574,-0.41759262,1,0,0,1.4835,submitButton,7.246478873,-0.267592574,-0.41759262,0,0,0,2,36,156,11,1,27,69478,blockT,180,2022-02-16_17h06.25.785,orientation adjustment block,2021.2.3,Win32,60.20469597,,,,,,,
,,,,,,,,,,,,,,,,,,,,,,64.44444444,-44,20,75,-39.55555556,4.444444444,4.444444444,-0.368518503,-0.400925953,1,0,0,1.1832,submitButton,7.226884227,-0.368518503,-0.400925953,0,0,0,2,37,157,28,1,44,69478,blockT,180,2022-02-16_17h06.25.785,orientation adjustment block,2021.2.3,Win32,60.20469597,,,,,,,
,,,,,,,,,,,,,,,,,,,,,,-28.88888889,-54,20,75,-53.88888889,0.111111111,0.111111111,-0.390740726,-0.405555583,1,0,0,1.5507,submitButton,7.177469136,-0.390740726,-0.405555583,0,0,0,2,38,158,38,1,54,69478,blockT,180,2022-02-16_17h06.25.785,orientation adjustment block,2021.2.3,Win32,60.20469597,,,,,,,
,,,,,,,,,,,,,,,,,,,,,,35.55555556,62,20,75,54.55555556,7.444444444,7.444444444,-0.260185166,-0.427777805,1,0,0,0.6844,submitButton,7.179310345,0.135185216,-0.295370394,0,0,0,2,39,159,46,1,62,69478,blockT,180,2022-02-16_17h06.25.785,orientation adjustment block,2021.2.3,Win32,60.20469597,,,,,,,
,,,,,,,,,,,,,,,,,,,,,,-32.22222222,66,20,75,59.77777778,6.222222222,6.222222222,-0.38518517,-0.402777805,1,0,0,0.8979,submitButton,7.172754947,0.248148182,-0.127777796,0,0,0,2,40,160,50,1,66,69478,blockT,180,2022-02-16_17h06.25.785,orientation adjustment block,2021.2.3,Win32,60.20469597,,,,,,,
,,,,,,,,,,,,,,,,,,,,,,-71.66666667,-35,20,75,-44.66666667,9.666666667,9.666666667,-0.270370352,-0.409259286,1,0,0,1.3168,submitButton,7.189720333,0.16388892,-0.219444466,0,0,0,2,41,161,19,1,35,69478,blockT,180,2022-02-16_17h06.25.785,orientation adjustment block,2021.2.3,Win32,60.20469597,,,,,,,
,,,,,,,,,,,,,,,,,,,,,,-36.11111111,29,20,75,31.88888889,2.888888889,2.888888889,-0.231481462,-0.387037063,1,0,0,0.9305,submitButton,7.160660661,0.133333364,-0.284259283,0,0,0,2,42,162,13,1,29,69478,blockT,180,2022-02-16_17h06.25.785,orientation adjustment block,2021.2.3,Win32,60.20469597,,,,,,,
,,,,,,,,,,,,,,,,,,,,,,27.22222222,-42,20,75,-31.77777778,10.22222222,10.22222222,-0.292592575,-0.412963047,1,0,0,0.4672,submitButton,7.181208054,0.184259291,-0.272222245,0,0,0,2,43,163,26,1,42,69478,blockT,180,2022-02-16_17h06.25.785,orientation adjustment block,2021.2.3,Win32,60.20469597,,,,,,,
,,,,,,,,,,,,,,,,,,,,,,-20.55555556,58,20,75,58.44444444,0.444444444,0.444444444,-0.236111092,-0.410185269,1,0,0,0.7838,submitButton,7.136296296,0.284259294,-0.390740824,1,0,0,2,44,164,42,1,58,69478,blockT,180,2022-02-16_17h06.25.785,orientation adjustment block,2021.2.3,Win32,60.20469597,continueButton,,,,,,
,,,,,,,,,,,,,,,,,,,,,,-38.88888889,-40,20,75,-44.88888889,4.888888889,4.888888889,0.21203707,-0.294444468,1,0,0,0.0668,submitButton,7.121412804,-0.099074051,-0.390740824,0,0,0,2,45,165,24,1,40,69478,blockT,180,2022-02-16_17h06.25.785,orientation adjustment block,2021.2.3,Win32,60.20469597,,,,,,,
,,,,,,,,,,,,,,,,,,,,,,55,60,20,75,70,10,10,0.418518557,-0.310185266,1,0,0,0.05,submitButton,7.140350877,0.198148181,-0.325925951,0,0,0,2,46,166,44,1,60,69478,blockT,180,2022-02-16_17h06.25.785,orientation adjustment block,2021.2.3,Win32,60.20469597,,,,,,,
,,,,,,,,,,,,,,,,,,,,,,-57.77777778,53,20,75,51.22222222,1.777777778,1.777777778,-0.159259181,-0.409259286,1,0,0,1.2504,submitButton,7.10530138,0.166666698,-0.324074155,0,0,0,2,47,167,37,1,53,69478,blockT,180,2022-02-16_17h06.25.785,orientation adjustment block,2021.2.3,Win32,60.20469597,,,,,,,
,,,,,,,,,,,,,,,,,,,,,,46.66666667,-75,20,75,-59.33333333,15.66666667,15.66666667,-0.162962941,-0.406481508,1,0,0,0.8005,submitButton,7.160894661,0.112962993,-0.329629711,0,0,0,2,48,168,59,1,75,69478,blockT,180,2022-02-16_17h06.25.785,orientation adjustment block,2021.2.3,Win32,60.20469597,,,,,,,
,,,,,,,,,,,,,,,,,,,,,,-57.22222222,-73,20,75,-76.22222222,3.222222222,3.222222222,-0.187962942,-0.407407491,1,0,0,1.3345,submitButton,7.135483871,0.195370403,-0.308333357,0,0,0,2,49,169,57,1,73,69478,blockT,180,2022-02-16_17h06.25.785,orientation adjustment block,2021.2.3,Win32,60.20469597,,,,,,,
,,,,,,,,,,,,,,,,,,,,,,28.33333333,-63,20,75,-63.66666667,0.666666667,0.666666667,-0.180555534,-0.402777805,1,0,0,0.7504,submitButton,7.094017094,0.269444479,-0.276851932,0,0,0,2,50,170,47,1,63,69478,blockT,180,2022-02-16_17h06.25.785,orientation adjustment block,2021.2.3,Win32,60.20469597,,,,,,,
,,,,,,,,,,,,,,,,,,,,,,27.22222222,28,20,75,28.22222222,0.222222222,0.222222222,-0.180555534,-0.370370396,1,0,0,0.8151,submitButton,7.0502477,0.219444477,-0.362037063,0,0,0,2,51,171,12,1,28,69478,blockT,180,2022-02-16_17h06.25.785,orientation adjustment block,2021.2.3,Win32,60.20469597,,,,,,,
,,,,,,,,,,,,,,,,,,,,,,27.77777778,-52,20,75,-46.22222222,5.777777778,5.777777778,-0.187037016,-0.420370398,1,0,0,0.7497,submitButton,7.042194093,0.057407492,-0.362037063,0,0,0,2,52,172,36,1,52,69478,blockT,180,2022-02-16_17h06.25.785,orientation adjustment block,2021.2.3,Win32,60.20469597,,,,,,,
,,,,,,,,,,,,,,,,,,,,,,37.77777778,68,20,75,63.77777778,4.222222222,4.222222222,-0.193518498,-0.414814842,1,0,0,0.8852,submitButton,7.024458421,0.028703731,-0.309259283,0,0,0,2,53,173,52,1,68,69478,blockT,180,2022-02-16_17h06.25.785,orientation adjustment block,2021.2.3,Win32,60.20469597,,,,,,,
,,,,,,,,,,,,,,,,,,,,,,61.66666667,57,20,75,60.66666667,3.666666667,3.666666667,-0.255555537,-0.374074157,1,0,0,1.0822,submitButton,7.003472222,0.106481511,-0.292592616,0,0,0,2,54,174,41,1,57,69478,blockT,180,2022-02-16_17h06.25.785,orientation adjustment block,2021.2.3,Win32,60.20469597,,,,,,,
,,,,,,,,,,,,,,,,,,,,,,-65,-31,20,75,-42,11,11,-0.235185166,-0.402777805,1,0,0,1.0665,submitButton,7.028295376,0.070370399,-0.306481506,0,0,0,2,55,175,15,1,31,69478,blockT,180,2022-02-16_17h06.25.785,orientation adjustment block,2021.2.3,Win32,60.20469597,,,,,,,
,,,,,,,,,,,,,,,,,,,,,,-22.22222222,67,20,75,60.77777778,6.222222222,6.222222222,0.169444476,-0.317592617,1,0,0,0.6999,submitButton,7.023319616,0.067592621,-0.320370395,0,0,0,2,56,176,51,1,67,69478,blockT,180,2022-02-16_17h06.25.785,orientation adjustment block,2021.2.3,Win32,60.20469597,,,,,,,
,,,,,,,,,,,,,,,,,,,,,,21.66666667,-39,20,75,-46.33333333,7.333333333,7.333333333,-0.183333312,-0.381481508,1,0,0,0.9173,submitButton,7.025221541,-0.155555534,-0.368518601,0,0,0,2,57,177,23,1,39,69478,blockT,180,2022-02-16_17h06.25.785,orientation adjustment block,2021.2.3,Win32,60.20469597,,,,,,,
,,,,,,,,,,,,,,,,,,,,,,69.44444444,-32,20,75,-25.55555556,6.444444444,6.444444444,0.398148187,-0.29166669,1,0,0,0.1341,submitButton,7.021680217,-0.215740721,-0.391666693,0,0,0,2,58,178,16,1,32,69478,blockT,180,2022-02-16_17h06.25.785,orientation adjustment block,2021.2.3,Win32,60.20469597,,,,,,,
,,,,,,,,,,,,,,,,,,,,,,-50.55555556,24,20,75,43.44444444,19.44444444,19.44444444,-0.337037021,-0.426851936,1,0,0,1.6689,submitButton,7.096969697,-0.164814737,-0.364814841,0,0,0,2,59,179,8,1,24,69478,blockT,180,2022-02-16_17h06.25.785,orientation adjustment block,2021.2.3,Win32,60.20469597,,,,,,,
,,,,,,,,,,,,,,,,,,,,,,,,,,,,,,,,,,,,,,,,,,,,,,,,69478,blockT,180,2022-02-16_17h06.25.785,orientation adjustment block,2021.2.3,Win32,60.20469597,,0.258333368,-0.406481508,1,0,0,EndButtonTxt
