consentMouse1.x,consentMouse1.y,consentMouse1.leftButton,consentMouse1.midButton,consentMouse1.rightButton,consentMouse1.clicked_name,consent_Mouse.x,consent_Mouse.y,consent_Mouse.leftButton,consent_Mouse.midButton,consent_Mouse.rightButton,consent_Mouse.clicked_name,startMouse.x,startMouse.y,startMouse.leftButton,startMouse.midButton,startMouse.rightButton,startMouse_2.x,startMouse_2.y,startMouse_2.leftButton,startMouse_2.midButton,startMouse_2.rightButton,start_distance,fixedOri,minimalDistance,maxOri,this_ori,accuracy,presented_accuracy,submitMouse.x,submitMouse.y,submitMouse.leftButton,submitMouse.midButton,submitMouse.rightButton,submitMouse.time,submitMouse.clicked_name,block_accuracy,continueMouse.x,continueMouse.y,continueMouse.leftButton,continueMouse.midButton,continueMouse.rightButton,trials.thisRepN,trials.thisTrialN,trials.thisN,trials.thisIndex,trials.ran,startOri,participant,condition,nTrials,date,expName,psychopyVersion,OS,frameRate,continueMouse.clicked_name,EndButtonMouse.x,EndButtonMouse.y,EndButtonMouse.leftButton,EndButtonMouse.midButton,EndButtonMouse.rightButton,EndButtonMouse.clicked_name
0.351776282,-0.403842847,1,0,0,consent_button1,0.372384151,-0.402805169,1,0,0,consent_button,0.240445773,-0.277393818,1,0,0,0.085473378,-0.435959816,1,0,0,22.22222222,-73,20,75,-50.77777778,22.22222222,22.22222222,-0.315684358,-0.39335235,1,0,0,4.835,submitButton,22.22222222,-0.315684358,-0.39335235,0,0,0,0,0,0,57,1,73,69592,blockT,180,2022-02-15_13h21.42.359,orientation adjustment block,2021.2.3,Linux x86_64,29.96883241,,,,,,,
,,,,,,,,,,,,,,,,,,,,,,48.88888889,53,20,75,101.8888889,48.88888889,48.88888889,-0.314350684,-0.410662492,1,0,0,4.0047,submitButton,35.55555556,-0.314350684,-0.410662492,0,0,0,0,1,1,37,1,53,69592,blockT,180,2022-02-15_13h21.42.359,orientation adjustment block,2021.2.3,Linux x86_64,29.96883241,,,,,,,
,,,,,,,,,,,,,,,,,,,,,,57.77777778,31,20,75,71.77777778,40.77777778,40.77777778,0.38118585,-0.312517564,1,0,0,1.0031,submitButton,37.2962963,-0.148045619,-0.254052162,0,0,0,0,2,2,15,1,31,69592,blockT,180,2022-02-15_13h21.42.359,orientation adjustment block,2021.2.3,Linux x86_64,29.96883241,,,,,,,
,,,,,,,,,,,,,,,,,,,,,,48.88888889,36,20,75,17.88888889,18.11111111,18.11111111,0.411147833,-0.273822467,1,0,0,0.0192,submitButton,18.11111111,-0.285563429,-0.410445611,0,0,0,0,3,3,20,1,36,69592,blockT,180,2022-02-15_13h21.42.359,orientation adjustment block,2021.2.3,Linux x86_64,29.96883241,,,,,,,
,,,,,,,,,,,,,,,,,,,,,,67.22222222,50,20,75,63.22222222,13.22222222,13.22222222,0.397763014,-0.29121391,1,0,0,0.9755,submitButton,15.66666667,-0.117361705,-0.322906176,0,0,0,0,4,4,34,1,50,69592,blockT,180,2022-02-15_13h21.42.359,orientation adjustment block,2021.2.3,Linux x86_64,29.96883241,,,,,,,
,,,,,,,,,,,,,,,,,,,,,,42.22222222,-45,20,75,128.2222222,6.777777778,6.777777778,-0.285781423,-0.402024666,1,0,0,3.8177,submitButton,12.7037037,-0.283341646,-0.399209817,0,0,0,0,5,5,29,1,45,69592,blockT,180,2022-02-15_13h21.42.359,orientation adjustment block,2021.2.3,Linux x86_64,29.96883241,,,,,,,
,,,,,,,,,,,,,,,,,,,,,,21.66666667,-72,20,75,-65.33333333,6.666666667,6.666666667,0.423073212,-0.306294123,1,0,0,0.3779,submitButton,6.666666667,0.238383849,-0.275743802,0,0,0,0,6,6,56,1,72,69592,blockT,180,2022-02-15_13h21.42.359,orientation adjustment block,2021.2.3,Linux x86_64,29.96883241,,,,,,,
,,,,,,,,,,,,,,,,,,,,,,43.33333333,40,20,75,47.33333333,7.333333333,7.333333333,0.387871822,-0.295994997,1,0,0,0.3789,submitButton,7,-0.171953758,-0.413969437,0,0,0,0,7,7,24,1,40,69592,blockT,180,2022-02-15_13h21.42.359,orientation adjustment block,2021.2.3,Linux x86_64,29.96883241,,,,,,,
,,,,,,,,,,,,,,,,,,,,,,-38.33333333,-64,20,75,-63.33333333,0.666666667,0.666666667,-0.152075926,-0.413052082,1,0,0,1.8465,submitButton,4.888888889,-0.152075926,-0.413052082,0,0,0,0,8,8,48,1,64,69592,blockT,180,2022-02-15_13h21.42.359,orientation adjustment block,2021.2.3,Linux x86_64,29.96883241,,,,,,,
,,,,,,,,,,,,,,,,,,,,,,-62.22222222,-57,20,75,-62.22222222,5.222222222,5.222222222,0.174649239,-0.301439126,1,0,0,0.4259,submitButton,5.222222222,-0.099176009,-0.258341233,0,0,0,0,9,9,41,1,57,69592,blockT,180,2022-02-15_13h21.42.359,orientation adjustment block,2021.2.3,Linux x86_64,29.96883241,,,,,,,
,,,,,,,,,,,,,,,,,,,,,,50.55555556,-56,20,75,130.5555556,6.555555556,6.555555556,0.195134719,-0.293906689,1,0,0,3.0389,submitButton,5.888888889,-0.030718247,-0.364344358,0,0,0,0,10,10,40,1,56,69592,blockT,180,2022-02-15_13h21.42.359,orientation adjustment block,2021.2.3,Linux x86_64,29.96883241,,,,,,,
,,,,,,,,,,,,,,,,,,,,,,-43.88888889,-54,20,75,-62.88888889,8.888888889,8.888888889,0.196851412,-0.310520808,1,0,0,0.0983,submitButton,6.888888889,-0.178944906,-0.42283686,0,0,0,0,11,11,38,1,54,69592,blockT,180,2022-02-15_13h21.42.359,orientation adjustment block,2021.2.3,Linux x86_64,29.96883241,,,,,,,
,,,,,,,,,,,,,,,,,,,,,,65,58,20,75,56,2,2,-0.250442743,-0.40910244,1,0,0,2.4319,submitButton,2,-0.250442743,-0.40910244,0,0,0,0,12,12,42,1,58,69592,blockT,180,2022-02-15_13h21.42.359,orientation adjustment block,2021.2.3,Linux x86_64,29.96883241,,,,,,,
,,,,,,,,,,,,,,,,,,,,,,-63.88888889,48,20,75,37.11111111,10.88888889,10.88888889,0.151948293,-0.308205287,1,0,0,0.499,submitButton,6.444444444,-0.152677615,-0.396983306,0,0,0,0,13,13,32,1,48,69592,blockT,180,2022-02-15_13h21.42.359,orientation adjustment block,2021.2.3,Linux x86_64,29.96883241,,,,,,,
,,,,,,,,,,,,,,,,,,,,,,50.55555556,-26,20,75,143.5555556,10.44444444,10.44444444,0.195302566,-0.310019652,1,0,0,0.0219,submitButton,7.777777778,0.339768092,-0.416520278,1,0,0,0,14,14,10,1,26,69592,blockT,180,2022-02-15_13h21.42.359,orientation adjustment block,2021.2.3,Linux x86_64,29.96883241,continueButton,,,,,,
,,,,,,,,,,,,,,,,,,,,,,23.88888889,-22,20,75,-26.11111111,4.111111111,4.111111111,0.424091101,-0.291764657,1,0,0,0.7121,submitButton,4.111111111,-0.198962053,-0.417886337,0,0,0,0,15,15,6,1,22,69592,blockT,180,2022-02-15_13h21.42.359,orientation adjustment block,2021.2.3,Linux x86_64,29.96883241,,,,,,,
,,,,,,,,,,,,,,,,,,,,,,65.55555556,61,20,75,61.55555556,0.555555556,0.555555556,-0.322119435,-0.448704084,1,0,0,2.1229,submitButton,2.333333333,-0.054331223,-0.328282913,0,0,0,0,16,16,45,1,61,69592,blockT,180,2022-02-15_13h21.42.359,orientation adjustment block,2021.2.3,Linux x86_64,29.96883241,,,,,,,
,,,,,,,,,,,,,,,,,,,,,,66.66666667,74,20,75,65.66666667,8.333333333,8.333333333,-0.278152068,-0.424654007,1,0,0,2.2299,submitButton,4.333333333,-0.124745289,-0.394961834,0,0,0,0,17,17,58,1,74,69592,blockT,180,2022-02-15_13h21.42.359,orientation adjustment block,2021.2.3,Linux x86_64,29.96883241,,,,,,,
,,,,,,,,,,,,,,,,,,,,,,-38.88888889,-28,20,75,-46.88888889,18.88888889,18.88888889,-0.164746602,-0.41530784,1,0,0,1.2681,submitButton,7.972222222,-0.164746602,-0.41530784,0,0,0,0,18,18,12,1,28,69592,blockT,180,2022-02-15_13h21.42.359,orientation adjustment block,2021.2.3,Linux x86_64,29.96883241,,,,,,,
,,,,,,,,,,,,,,,,,,,,,,60,-38,20,75,-31,7,7,0.436811845,-0.296536525,1,0,0,0.8109,submitButton,7.777777778,-0.066383441,-0.336998383,0,0,0,0,19,19,22,1,38,69592,blockT,180,2022-02-15_13h21.42.359,orientation adjustment block,2021.2.3,Linux x86_64,29.96883241,,,,,,,
,,,,,,,,,,,,,,,,,,,,,,37.77777778,-49,20,75,-54.22222222,5.222222222,5.222222222,0.387453159,-0.299787045,1,0,0,0.3221,submitButton,7.351851852,-0.168400764,-0.388725917,0,0,0,0,20,20,33,1,49,69592,blockT,180,2022-02-15_13h21.42.359,orientation adjustment block,2021.2.3,Linux x86_64,29.96883241,,,,,,,
,,,,,,,,,,,,,,,,,,,,,,-57.77777778,63,20,75,52.22222222,10.77777778,10.77777778,0.164509296,-0.319730123,1,0,0,0.4401,submitButton,7.841269841,-0.260614077,-0.379928986,0,0,0,0,21,21,47,1,63,69592,blockT,180,2022-02-15_13h21.42.359,orientation adjustment block,2021.2.3,Linux x86_64,29.96883241,,,,,,,
,,,,,,,,,,,,,,,,,,,,,,61.66666667,27,20,75,23.66666667,3.333333333,3.333333333,0.400498867,-0.277268171,1,0,0,0.064,submitButton,7.277777778,-0.294827859,-0.401940425,0,0,0,0,22,22,11,1,27,69592,blockT,180,2022-02-15_13h21.42.359,orientation adjustment block,2021.2.3,Linux x86_64,29.96883241,,,,,,,
,,,,,,,,,,,,,,,,,,,,,,-40,-66,20,75,-66,0,0,0.188968897,-0.319233894,1,0,0,0.1714,submitButton,6.469135802,-0.350680709,-0.418203274,0,0,0,0,23,23,50,1,66,69592,blockT,180,2022-02-15_13h21.42.359,orientation adjustment block,2021.2.3,Linux x86_64,29.96883241,,,,,,,
,,,,,,,,,,,,,,,,,,,,,,-62.77777778,-52,20,75,-56.77777778,4.777777778,4.777777778,0.212685347,-0.289951245,1,0,0,0.0871,submitButton,6.3,-0.248924375,-0.400928656,0,0,0,0,24,24,36,1,52,69592,blockT,180,2022-02-15_13h21.42.359,orientation adjustment block,2021.2.3,Linux x86_64,29.96883241,,,,,,,
,,,,,,,,,,,,,,,,,,,,,,36.11111111,59,20,75,62.11111111,3.111111111,3.111111111,0.431169748,-0.292349974,1,0,0,0.6854,submitButton,6.01010101,-0.246686459,-0.402176539,0,0,0,0,25,25,43,1,59,69592,blockT,180,2022-02-15_13h21.42.359,orientation adjustment block,2021.2.3,Linux x86_64,29.96883241,,,,,,,
,,,,,,,,,,,,,,,,,,,,,,35,-18,20,75,-24,6,6,0.38754185,-0.307819049,1,0,0,0.2194,submitButton,6.009259259,-0.124503851,-0.378261089,0,0,0,0,26,26,2,1,18,69592,blockT,180,2022-02-15_13h21.42.359,orientation adjustment block,2021.2.3,Linux x86_64,29.96883241,,,,,,,
,,,,,,,,,,,,,,,,,,,,,,-50.55555556,43,20,75,34.44444444,8.555555556,8.555555556,0.189504782,-0.307511489,1,0,0,0.0905,submitButton,6.205128205,-0.163084189,-0.374797185,0,0,0,0,27,27,27,1,43,69592,blockT,180,2022-02-15_13h21.42.359,orientation adjustment block,2021.2.3,Linux x86_64,29.96883241,,,,,,,
,,,,,,,,,,,,,,,,,,,,,,-50,-24,20,75,-38,14,14,-0.24028194,-0.436512152,1,0,0,1.4142,submitButton,6.761904762,-0.22988383,-0.414933602,0,0,0,0,28,28,8,1,24,69592,blockT,180,2022-02-15_13h21.42.359,orientation adjustment block,2021.2.3,Linux x86_64,29.96883241,,,,,,,
,,,,,,,,,,,,,,,,,,,,,,23.88888889,-75,20,75,-87.11111111,12.11111111,12.11111111,0.367590586,-0.291622241,1,0,0,0.0183,submitButton,7.118518519,0.353071133,-0.395340284,1,0,0,0,29,29,59,1,75,69592,blockT,180,2022-02-15_13h21.42.359,orientation adjustment block,2021.2.3,Linux x86_64,29.96883241,continueButton,,,,,,
,,,,,,,,,,,,,,,,,,,,,,-44.44444444,-19,20,75,-21.44444444,2.444444444,2.444444444,0.218231519,-0.330191612,1,0,0,0.0871,submitButton,6.826388889,0.1667943,-0.352505048,0,0,0,0,30,30,3,1,19,69592,blockT,180,2022-02-15_13h21.42.359,orientation adjustment block,2021.2.3,Linux x86_64,29.96883241,,,,,,,
,,,,,,,,,,,,,,,,,,,,,,27.77777778,-39,20,75,-37.22222222,1.777777778,1.777777778,0.469811122,-0.309499025,1,0,0,0.1437,submitButton,6.529411765,-0.224539876,-0.40627718,0,0,0,0,31,31,23,1,39,69592,blockT,180,2022-02-15_13h21.42.359,orientation adjustment block,2021.2.3,Linux x86_64,29.96883241,,,,,,,
,,,,,,,,,,,,,,,,,,,,,,-25,-62,20,75,-58,4,4,0.184079011,-0.303035498,1,0,0,1.6423,submitButton,6.388888889,-0.246097763,-0.400231361,0,0,0,0,32,32,46,1,62,69592,blockT,180,2022-02-15_13h21.42.359,orientation adjustment block,2021.2.3,Linux x86_64,29.96883241,,,,,,,
,,,,,,,,,,,,,,,,,,,,,,62.22222222,65,20,75,64.22222222,0.777777778,0.777777778,0.39594539,-0.311721484,1,0,0,0.6456,submitButton,6.093567251,-0.238970995,-0.399524291,0,0,0,0,33,33,49,1,65,69592,blockT,180,2022-02-15_13h21.42.359,orientation adjustment block,2021.2.3,Linux x86_64,29.96883241,,,,,,,
,,,,,,,,,,,,,,,,,,,,,,-28.33333333,69,20,75,76.66666667,7.666666667,7.666666667,0.19606336,-0.290699323,1,0,0,0.2635,submitButton,6.172222222,-0.075306892,-0.387671709,0,0,0,0,34,34,53,1,69,69592,blockT,180,2022-02-15_13h21.42.359,orientation adjustment block,2021.2.3,Linux x86_64,29.96883241,,,,,,,
,,,,,,,,,,,,,,,,,,,,,,74.44444444,47,20,75,44.44444444,2.555555556,2.555555556,0.391171853,-0.317822456,1,0,0,0.4216,submitButton,6,-0.195564032,-0.412493706,0,0,0,0,35,35,31,1,47,69592,blockT,180,2022-02-15_13h21.42.359,orientation adjustment block,2021.2.3,Linux x86_64,29.96883241,,,,,,,
,,,,,,,,,,,,,,,,,,,,,,-58.33333333,70,20,75,61.66666667,8.333333333,8.333333333,0.17163372,-0.28886342,1,0,0,0.4003,submitButton,6.106060606,0.175516446,-0.354239782,0,0,0,0,36,36,54,1,70,69592,blockT,180,2022-02-15_13h21.42.359,orientation adjustment block,2021.2.3,Linux x86_64,29.96883241,,,,,,,
,,,,,,,,,,,,,,,,,,,,,,-45,51,20,75,43,8,8,0.180104733,-0.317136526,1,0,0,0.4015,submitButton,6.188405797,0.052326918,-0.32639281,0,0,0,0,37,37,35,1,51,69592,blockT,180,2022-02-15_13h21.42.359,orientation adjustment block,2021.2.3,Linux x86_64,29.96883241,,,,,,,
,,,,,,,,,,,,,,,,,,,,,,-72.22222222,34,20,75,-158.2222222,12.22222222,12.22222222,0.39250048,-0.306823015,1,0,0,2.9893,submitButton,6.439814815,-0.254663666,-0.412700891,0,0,0,0,38,38,18,1,34,69592,blockT,180,2022-02-15_13h21.42.359,orientation adjustment block,2021.2.3,Linux x86_64,29.96883241,,,,,,,
,,,,,,,,,,,,,,,,,,,,,,-71.66666667,46,20,75,-128.6666667,5.333333333,5.333333333,-0.288208564,-0.389500221,1,0,0,3.2327,submitButton,6.395555556,-0.288208564,-0.389500221,0,0,0,0,39,39,30,1,46,69592,blockT,180,2022-02-15_13h21.42.359,orientation adjustment block,2021.2.3,Linux x86_64,29.96883241,,,,,,,
,,,,,,,,,,,,,,,,,,,,,,60,67,20,75,55,12,12,-0.288548787,-0.380449295,1,0,0,2.1732,submitButton,6.611111111,-0.052386522,-0.326054732,0,0,0,0,40,40,51,1,67,69592,blockT,180,2022-02-15_13h21.42.359,orientation adjustment block,2021.2.3,Linux x86_64,29.96883241,,,,,,,
,,,,,,,,,,,,,,,,,,,,,,73.33333333,21,20,75,17.33333333,3.666666667,3.666666667,0.366838773,-0.294462681,1,0,0,0.188,submitButton,6.502057613,-0.215834538,-0.408986966,0,0,0,0,41,41,5,1,21,69592,blockT,180,2022-02-15_13h21.42.359,orientation adjustment block,2021.2.3,Linux x86_64,29.96883241,,,,,,,
,,,,,,,,,,,,,,,,,,,,,,34.44444444,-60,20,75,-60.55555556,0.555555556,0.555555556,0.352054119,-0.293782155,1,0,0,0.3678,submitButton,6.28968254,-0.240493854,-0.399583181,0,0,0,0,42,42,44,1,60,69592,blockT,180,2022-02-15_13h21.42.359,orientation adjustment block,2021.2.3,Linux x86_64,29.96883241,,,,,,,
,,,,,,,,,,,,,,,,,,,,,,-75,32,20,75,-149,1,1,-0.219290892,-0.43864878,1,0,0,3.0943,submitButton,6.107279693,-0.212660869,-0.417851051,0,0,0,0,43,43,16,1,32,69592,blockT,180,2022-02-15_13h21.42.359,orientation adjustment block,2021.2.3,Linux x86_64,29.96883241,,,,,,,
,,,,,,,,,,,,,,,,,,,,,,72.22222222,-42,20,75,97.22222222,40.77777778,40.77777778,0.196938674,-0.313452244,1,0,0,1.2753,submitButton,7.262962963,0.268384695,-0.410823345,1,0,0,0,44,44,26,1,42,69592,blockT,180,2022-02-15_13h21.42.359,orientation adjustment block,2021.2.3,Linux x86_64,29.96883241,continueButton,,,,,,
,,,,,,,,,,,,,,,,,,,,,,68.33333333,-17,20,75,117.3333333,45.66666667,45.66666667,0.191000462,-0.309222301,1,0,0,0.9958,submitButton,8.501792115,0.506544113,-0.365126053,0,0,0,0,45,45,1,1,17,69592,blockT,180,2022-02-15_13h21.42.359,orientation adjustment block,2021.2.3,Linux x86_64,29.96883241,,,,,,,
,,,,,,,,,,,,,,,,,,,,,,20.55555556,-33,20,75,-32.44444444,0.555555556,0.555555556,0.443099578,-0.332222303,1,0,0,0.3614,submitButton,8.253472222,-0.224812349,-0.406589667,0,0,0,0,46,46,17,1,33,69592,blockT,180,2022-02-15_13h21.42.359,orientation adjustment block,2021.2.3,Linux x86_64,29.96883241,,,,,,,
,,,,,,,,,,,,,,,,,,,,,,37.77777778,71,20,75,65.77777778,5.222222222,5.222222222,0.392275969,-0.314593633,1,0,0,0.3042,submitButton,8.161616162,-0.174050093,-0.401176771,0,0,0,0,47,47,55,1,71,69592,blockT,180,2022-02-15_13h21.42.359,orientation adjustment block,2021.2.3,Linux x86_64,29.96883241,,,,,,,
,,,,,,,,,,,,,,,,,,,,,,60.55555556,-44,20,75,121.5555556,14.44444444,14.44444444,-0.160481453,-0.38996768,1,0,0,2.9669,submitButton,8.346405229,-0.160481453,-0.38996768,0,0,0,0,48,48,28,1,44,69592,blockT,180,2022-02-15_13h21.42.359,orientation adjustment block,2021.2.3,Linux x86_64,29.96883241,,,,,,,
,,,,,,,,,,,,,,,,,,,,,,61.66666667,-68,20,75,59.66666667,52.33333333,52.33333333,0.225592931,-0.318488995,1,0,0,21.8614,submitButton,9.603174603,-0.226880431,-0.400735617,0,0,0,0,49,49,52,1,68,69592,blockT,180,2022-02-15_13h21.42.359,orientation adjustment block,2021.2.3,Linux x86_64,29.96883241,,,,,,,
,,,,,,,,,,,,,,,,,,,,,,-26.66666667,-30,20,75,-39.66666667,9.666666667,9.666666667,0.209119876,-0.337028424,1,0,0,1.3018,submitButton,9.604938272,-0.229978641,-0.4269859,0,0,0,0,50,50,14,1,30,69592,blockT,180,2022-02-15_13h21.42.359,orientation adjustment block,2021.2.3,Linux x86_64,29.96883241,,,,,,,
,,,,,,,,,,,,,,,,,,,,,,62.77777778,-25,20,75,142.7777778,12.22222222,12.22222222,0.196721792,-0.311766227,1,0,0,0.146,submitButton,9.675675676,-0.163339933,-0.41466554,0,0,0,0,51,51,9,1,25,69592,blockT,180,2022-02-15_13h21.42.359,orientation adjustment block,2021.2.3,Linux x86_64,29.96883241,,,,,,,
,,,,,,,,,,,,,,,,,,,,,,-72.22222222,41,20,75,-138.2222222,0.777777778,0.777777778,-0.255033056,-0.429899295,1,0,0,2.9366,submitButton,9.441520468,-0.229849418,-0.408051252,0,0,0,0,52,52,25,1,41,69592,blockT,180,2022-02-15_13h21.42.359,orientation adjustment block,2021.2.3,Linux x86_64,29.96883241,,,,,,,
,,,,,,,,,,,,,,,,,,,,,,-65,55,20,75,-122,3,3,-0.135560354,-0.409033775,1,0,0,3.2339,submitButton,9.276353276,-0.135560354,-0.409033775,0,0,0,0,53,53,39,1,55,69592,blockT,180,2022-02-15_13h21.42.359,orientation adjustment block,2021.2.3,Linux x86_64,29.96883241,,,,,,,
,,,,,,,,,,,,,,,,,,,,,,-38.33333333,-29,20,75,-36.33333333,7.333333333,7.333333333,-0.132644812,-0.386970599,1,0,0,1.1169,submitButton,9.227777778,-0.132644812,-0.386970599,0,0,0,0,54,54,13,1,29,69592,blockT,180,2022-02-15_13h21.42.359,orientation adjustment block,2021.2.3,Linux x86_64,29.96883241,,,,,,,
,,,,,,,,,,,,,,,,,,,,,,37.22222222,23,20,75,31.22222222,8.222222222,8.222222222,0.370214224,-0.308177551,1,0,0,0.0519,submitButton,9.203252033,-0.15119497,-0.412455559,0,0,0,0,55,55,7,1,23,69592,blockT,180,2022-02-15_13h21.42.359,orientation adjustment block,2021.2.3,Linux x86_64,29.96883241,,,,,,,
,,,,,,,,,,,,,,,,,,,,,,-38.88888889,37,20,75,31.11111111,5.888888889,5.888888889,0.202567975,-0.317587217,1,0,0,0.1836,submitButton,9.124338624,-0.143271526,-0.407878717,0,0,0,0,56,56,21,1,37,69592,blockT,180,2022-02-15_13h21.42.359,orientation adjustment block,2021.2.3,Linux x86_64,29.96883241,,,,,,,
,,,,,,,,,,,,,,,,,,,,,,46.66666667,-20,20,75,152.6666667,7.333333333,7.333333333,0.223481178,-0.304162661,1,0,0,0.22,submitButton,9.082687339,-0.162767092,-0.389293512,0,0,0,0,57,57,4,1,20,69592,blockT,180,2022-02-15_13h21.42.359,orientation adjustment block,2021.2.3,Linux x86_64,29.96883241,,,,,,,
,,,,,,,,,,,,,,,,,,,,,,-66.11111111,35,20,75,-139.1111111,5.888888889,5.888888889,-0.43301026,-0.385420163,1,0,0,3.0153,submitButton,9.01010101,-0.056134701,-0.300024033,0,0,0,0,58,58,19,1,35,69592,blockT,180,2022-02-15_13h21.42.359,orientation adjustment block,2021.2.3,Linux x86_64,29.96883241,,,,,,,
,,,,,,,,,,,,,,,,,,,,,,71.11111111,16,20,75,15.11111111,0.888888889,0.888888889,0.364835262,-0.285041253,1,0,0,1.6522,submitButton,8.82962963,0.327048937,-0.398781379,1,0,0,0,59,59,0,1,16,69592,blockT,180,2022-02-15_13h21.42.359,orientation adjustment block,2021.2.3,Linux x86_64,29.96883241,continueButton,,,,,,
,,,,,,,,,,,,,,,,,,,,,,-50.55555556,27,20,75,16.44444444,10.55555556,10.55555556,0.230723143,-0.306646744,1,0,0,0.2359,submitButton,8.867149758,-0.217767318,-0.383047104,0,0,0,1,0,60,11,1,27,69592,blockT,180,2022-02-15_13h21.42.359,orientation adjustment block,2021.2.3,Linux x86_64,29.96883241,,,,,,,
,,,,,,,,,,,,,,,,,,,,,,-50,59,20,75,51,8,8,-0.243373156,-0.438152234,1,0,0,1.6009,submitButton,8.848699764,-0.206104994,-0.412800868,0,0,0,1,1,61,43,1,59,69592,blockT,180,2022-02-15_13h21.42.359,orientation adjustment block,2021.2.3,Linux x86_64,29.96883241,,,,,,,
,,,,,,,,,,,,,,,,,,,,,,-22.77777778,50,20,75,40.22222222,9.777777778,9.777777778,-0.160237074,-0.404914538,1,0,0,0.8994,submitButton,8.868055556,0.102333466,-0.28460137,0,0,0,1,2,62,34,1,50,69592,blockT,180,2022-02-15_13h21.42.359,orientation adjustment block,2021.2.3,Linux x86_64,29.96883241,,,,,,,
,,,,,,,,,,,,,,,,,,,,,,22.77777778,35,20,75,40.77777778,5.777777778,5.777777778,0.405461311,-0.281998396,1,0,0,0.866,submitButton,8.804988662,-0.256562153,-0.412884394,0,0,0,1,3,63,19,1,35,69592,blockT,180,2022-02-15_13h21.42.359,orientation adjustment block,2021.2.3,Linux x86_64,29.96883241,,,,,,,
,,,,,,,,,,,,,,,,,,,,,,-59.44444444,29,20,75,27.55555556,1.444444444,1.444444444,-0.195429484,-0.385550896,1,0,0,2.1218,submitButton,8.657777778,-0.195429484,-0.385550896,0,0,0,1,4,64,13,1,29,69592,blockT,180,2022-02-15_13h21.42.359,orientation adjustment block,2021.2.3,Linux x86_64,29.96883241,,,,,,,
,,,,,,,,,,,,,,,,,,,,,,36.66666667,-46,20,75,-41.33333333,4.666666667,4.666666667,0.224407673,-0.320327282,1,0,0,0.0693,submitButton,8.579520697,-0.269584735,-0.413908561,0,0,0,1,5,65,30,1,46,69592,blockT,180,2022-02-15_13h21.42.359,orientation adjustment block,2021.2.3,Linux x86_64,29.96883241,,,,,,,
,,,,,,,,,,,,,,,,,,,,,,-30.55555556,25,20,75,26.44444444,1.444444444,1.444444444,0.18980964,-0.299343189,1,0,0,0.5631,submitButton,8.442307692,0.117053429,-0.368838787,0,0,0,1,6,66,9,1,25,69592,blockT,180,2022-02-15_13h21.42.359,orientation adjustment block,2021.2.3,Linux x86_64,29.96883241,,,,,,,
,,,,,,,,,,,,,,,,,,,,,,66.11111111,56,20,75,243.1111111,7.111111111,7.111111111,0.190764507,-0.307153304,1,0,0,2.968,submitButton,8.417190776,-0.092319727,-0.316679001,0,0,0,1,7,67,40,1,56,69592,blockT,180,2022-02-15_13h21.42.359,orientation adjustment block,2021.2.3,Linux x86_64,29.96883241,,,,,,,
,,,,,,,,,,,,,,,,,,,,,,-42.77777778,-16,20,75,-28.77777778,12.77777778,12.77777778,0.19002978,-0.313736439,1,0,0,0.187,submitButton,8.497942387,-0.193918943,-0.390839974,0,0,0,1,8,68,0,1,16,69592,blockT,180,2022-02-15_13h21.42.359,orientation adjustment block,2021.2.3,Linux x86_64,29.96883241,,,,,,,
,,,,,,,,,,,,,,,,,,,,,,35.55555556,-47,20,75,-38.44444444,8.555555556,8.555555556,0.37270387,-0.289490064,1,0,0,0.2607,submitButton,8.498989899,-0.229096572,-0.404354413,0,0,0,1,9,69,31,1,47,69592,blockT,180,2022-02-15_13h21.42.359,orientation adjustment block,2021.2.3,Linux x86_64,29.96883241,,,,,,,
,,,,,,,,,,,,,,,,,,,,,,39.44444444,33,20,75,37.44444444,4.444444444,4.444444444,0.381519397,-0.289108435,1,0,0,0.2496,submitButton,8.426587302,-0.236427108,-0.412294229,0,0,0,1,10,70,17,1,33,69592,blockT,180,2022-02-15_13h21.42.359,orientation adjustment block,2021.2.3,Linux x86_64,29.96883241,,,,,,,
,,,,,,,,,,,,,,,,,,,,,,-51.66666667,-52,20,75,-62.66666667,10.66666667,10.66666667,-0.134577672,-0.387372812,1,0,0,1.5516,submitButton,8.46588694,-0.134577672,-0.387372812,0,0,0,1,11,71,36,1,52,69592,blockT,180,2022-02-15_13h21.42.359,orientation adjustment block,2021.2.3,Linux x86_64,29.96883241,,,,,,,
,,,,,,,,,,,,,,,,,,,,,,-63.33333333,75,20,75,-103.3333333,1.666666667,1.666666667,0.251693805,-0.293257316,1,0,0,3.4486,submitButton,8.348659004,-0.100938161,-0.164528688,0,0,0,1,12,72,59,1,75,69592,blockT,180,2022-02-15_13h21.42.359,orientation adjustment block,2021.2.3,Linux x86_64,29.96883241,,,,,,,
,,,,,,,,,,,,,,,,,,,,,,-72.22222222,68,20,75,72.77777778,4.777777778,4.777777778,0.188468854,-0.28849713,1,0,0,0.1911,submitButton,8.288135593,-0.214685758,-0.406071186,0,0,0,1,13,73,52,1,68,69592,blockT,180,2022-02-15_13h21.42.359,orientation adjustment block,2021.2.3,Linux x86_64,29.96883241,,,,,,,
,,,,,,,,,,,,,,,,,,,,,,40.55555556,65,20,75,67.55555556,2.555555556,2.555555556,0.370162169,-0.288248618,1,0,0,0.1742,submitButton,8.192592593,0.317902724,-0.419799646,1,0,0,1,14,74,49,1,65,69592,blockT,180,2022-02-15_13h21.42.359,orientation adjustment block,2021.2.3,Linux x86_64,29.96883241,continueButton,,,,,,
,,,,,,,,,,,,,,,,,,,,,,-66.66666667,74,20,75,-107.6666667,1.666666667,1.666666667,0.365908305,-0.298784892,1,0,0,0.9383,submitButton,8.0856102,0.160061439,-0.338404894,0,0,0,1,15,75,58,1,74,69592,blockT,180,2022-02-15_13h21.42.359,orientation adjustment block,2021.2.3,Linux x86_64,29.96883241,,,,,,,
,,,,,,,,,,,,,,,,,,,,,,49.44444444,-41,20,75,122.4444444,16.55555556,16.55555556,-0.246680538,-0.397386312,1,0,0,3.0139,submitButton,8.222222222,0.062618812,-0.304299116,0,0,0,1,16,76,25,1,41,69592,blockT,180,2022-02-15_13h21.42.359,orientation adjustment block,2021.2.3,Linux x86_64,29.96883241,,,,,,,
,,,,,,,,,,,,,,,,,,,,,,23.88888889,-60,20,75,-56.11111111,3.888888889,3.888888889,0.366459926,-0.313036601,1,0,0,0.2281,submitButton,8.153439153,-0.18155543,-0.421780745,0,0,0,1,17,77,44,1,60,69592,blockT,180,2022-02-15_13h21.42.359,orientation adjustment block,2021.2.3,Linux x86_64,29.96883241,,,,,,,
,,,,,,,,,,,,,,,,,,,,,,29.44444444,18,20,75,54.44444444,36.44444444,36.44444444,0.135066668,-0.288537025,1,0,0,0.3581,submitButton,8.595486111,-0.198223909,-0.385710955,0,0,0,1,18,78,2,1,18,69592,blockT,180,2022-02-15_13h21.42.359,orientation adjustment block,2021.2.3,Linux x86_64,29.96883241,,,,,,,
,,,,,,,,,,,,,,,,,,,,,,-68.33333333,48,20,75,-128.3333333,3.666666667,3.666666667,-0.318568031,-0.394349416,1,0,0,3.2425,submitButton,8.51965812,0.347769022,-0.271478335,0,0,0,1,19,79,32,1,48,69592,blockT,180,2022-02-15_13h21.42.359,orientation adjustment block,2021.2.3,Linux x86_64,29.96883241,,,,,,,
,,,,,,,,,,,,,,,,,,,,,,72.22222222,53,20,75,61.22222222,8.222222222,8.222222222,-0.278366446,-0.390500148,1,0,0,2.6905,submitButton,8.515151515,-0.101893346,-0.311763763,0,0,0,1,20,80,37,1,53,69592,blockT,180,2022-02-15_13h21.42.359,orientation adjustment block,2021.2.3,Linux x86_64,29.96883241,,,,,,,
,,,,,,,,,,,,,,,,,,,,,,27.22222222,-66,20,75,-74.77777778,8.777777778,8.777777778,0.178183079,-0.295610825,1,0,0,0.277,submitButton,8.51907131,-0.14819932,-0.418862581,0,0,0,1,21,81,50,1,66,69592,blockT,180,2022-02-15_13h21.42.359,orientation adjustment block,2021.2.3,Linux x86_64,29.96883241,,,,,,,
,,,,,,,,,,,,,,,,,,,,,,56.11111111,-62,20,75,-55.88888889,6.111111111,6.111111111,0.455027739,-0.292076985,1,0,0,0.1431,submitButton,8.483660131,-0.226038575,-0.389518897,0,0,0,1,22,82,46,1,62,69592,blockT,180,2022-02-15_13h21.42.359,orientation adjustment block,2021.2.3,Linux x86_64,29.96883241,,,,,,,
,,,,,,,,,,,,,,,,,,,,,,-40.55555556,32,20,75,-145.5555556,2.444444444,2.444444444,-0.160650492,-0.400205533,1,0,0,4.05,submitButton,8.396135266,-0.160650492,-0.400205533,0,0,0,1,23,83,16,1,32,69592,blockT,180,2022-02-15_13h21.42.359,orientation adjustment block,2021.2.3,Linux x86_64,29.96883241,,,,,,,
,,,,,,,,,,,,,,,,,,,,,,-39.44444444,36,20,75,30.55555556,5.444444444,5.444444444,0.230694532,-0.304930846,1,0,0,0.2229,submitButton,8.353968254,-0.186260462,-0.41586415,0,0,0,1,24,84,20,1,36,69592,blockT,180,2022-02-15_13h21.42.359,orientation adjustment block,2021.2.3,Linux x86_64,29.96883241,,,,,,,
,,,,,,,,,,,,,,,,,,,,,,-47.77777778,34,20,75,21.22222222,12.77777778,12.77777778,0.189016978,-0.317697207,1,0,0,0.091,submitButton,8.41627543,-0.174102465,-0.387318293,0,0,0,1,25,85,18,1,34,69592,blockT,180,2022-02-15_13h21.42.359,orientation adjustment block,2021.2.3,Linux x86_64,29.96883241,,,,,,,
,,,,,,,,,,,,,,,,,,,,,,42.22222222,43,20,75,41.22222222,1.777777778,1.777777778,0.417926709,-0.294380109,1,0,0,0.3218,submitButton,8.324074074,-0.26040403,-0.4108905,0,0,0,1,26,86,27,1,43,69592,blockT,180,2022-02-15_13h21.42.359,orientation adjustment block,2021.2.3,Linux x86_64,29.96883241,,,,,,,
,,,,,,,,,,,,,,,,,,,,,,27.77777778,-30,20,75,-34.22222222,4.222222222,4.222222222,0.214656194,-0.30934453,1,0,0,0.1515,submitButton,8.267884323,-0.188577334,-0.41350468,0,0,0,1,27,87,14,1,30,69592,blockT,180,2022-02-15_13h21.42.359,orientation adjustment block,2021.2.3,Linux x86_64,29.96883241,,,,,,,
,,,,,,,,,,,,,,,,,,,,,,-23.33333333,-26,20,75,-24.33333333,1.666666667,1.666666667,0.396468639,-0.290143887,1,0,0,0.0731,submitButton,8.178678679,0.049248219,-0.273345073,0,0,0,1,28,88,10,1,26,69592,blockT,180,2022-02-15_13h21.42.359,orientation adjustment block,2021.2.3,Linux x86_64,29.96883241,,,,,,,
,,,,,,,,,,,,,,,,,,,,,,-46.66666667,57,20,75,64.33333333,7.333333333,7.333333333,0.204264164,-0.296855688,1,0,0,0.3215,submitButton,8.167407407,0.367768049,-0.400946379,1,0,0,1,29,89,41,1,57,69592,blockT,180,2022-02-15_13h21.42.359,orientation adjustment block,2021.2.3,Linux x86_64,29.96883241,continueButton,,,,,,
,,,,,,,,,,,,,,,,,,,,,,30,28,20,75,42,14,14,-0.118424813,-0.397504568,1,0,0,1.0341,submitButton,8.244152047,0.074987968,-0.246120612,0,0,0,1,30,90,12,1,28,69592,blockT,180,2022-02-15_13h21.42.359,orientation adjustment block,2021.2.3,Linux x86_64,29.96883241,,,,,,,
,,,,,,,,,,,,,,,,,,,,,,71.11111111,38,20,75,48.11111111,10.11111111,10.11111111,0.369950771,-0.306245565,1,0,0,0.1994,submitButton,8.268398268,0.038178682,-0.428025643,0,0,0,1,31,91,22,1,38,69592,blockT,180,2022-02-15_13h21.42.359,orientation adjustment block,2021.2.3,Linux x86_64,29.96883241,,,,,,,
,,,,,,,,,,,,,,,,,,,,,,-60,71,20,75,71,0,0,-0.173862219,-0.402188937,1,0,0,1.7646,submitButton,8.162393162,0.04587094,-0.329679092,0,0,0,1,32,92,55,1,71,69592,blockT,180,2022-02-15_13h21.42.359,orientation adjustment block,2021.2.3,Linux x86_64,29.96883241,,,,,,,
,,,,,,,,,,,,,,,,,,,,,,-28.33333333,-58,20,75,-74.33333333,16.33333333,16.33333333,-0.237929026,-0.395996094,1,0,0,0.693,submitButton,8.265822785,0.235326449,-0.288321098,0,0,0,1,33,93,42,1,58,69592,blockT,180,2022-02-15_13h21.42.359,orientation adjustment block,2021.2.3,Linux x86_64,29.96883241,,,,,,,
,,,,,,,,,,,,,,,,,,,,,,-51.66666667,-44,20,75,-48.66666667,4.666666667,4.666666667,-0.121037165,-0.38815705,1,0,0,1.439,submitButton,8.220833333,0.164566994,-0.304455757,0,0,0,1,34,94,28,1,44,69592,blockT,180,2022-02-15_13h21.42.359,orientation adjustment block,2021.2.3,Linux x86_64,29.96883241,,,,,,,
,,,,,,,,,,,,,,,,,,,,,,72.22222222,-63,20,75,-44.77777778,18.22222222,18.22222222,0.428498824,-0.296829621,1,0,0,0.2866,submitButton,8.34430727,-0.227401137,-0.381653309,0,0,0,1,35,95,47,1,63,69592,blockT,180,2022-02-15_13h21.42.359,orientation adjustment block,2021.2.3,Linux x86_64,29.96883241,,,,,,,
,,,,,,,,,,,,,,,,,,,,,,31.11111111,39,20,75,54.11111111,15.11111111,15.11111111,0.437444846,-0.312035084,1,0,0,0.1741,submitButton,8.426829268,-0.122537533,-0.405692657,0,0,0,1,36,96,23,1,39,69592,blockT,180,2022-02-15_13h21.42.359,orientation adjustment block,2021.2.3,Linux x86_64,29.96883241,,,,,,,
,,,,,,,,,,,,,,,,,,,,,,42.22222222,37,20,75,138.2222222,78.77777778,78.77777778,0.223373334,-0.300741275,1,0,0,0.7678,submitButton,9.274431058,0.109284401,-0.385322014,0,0,0,1,37,97,21,1,37,69592,blockT,180,2022-02-15_13h21.42.359,orientation adjustment block,2021.2.3,Linux x86_64,29.96883241,,,,,,,
,,,,,,,,,,,,,,,,,,,,,,69.44444444,17,20,75,195.4444444,1.555555556,1.555555556,-0.219085614,-0.404254278,1,0,0,3.2241,submitButton,9.182539683,-0.219085614,-0.404254278,0,0,0,1,38,98,1,1,17,69592,blockT,180,2022-02-15_13h21.42.359,orientation adjustment block,2021.2.3,Linux x86_64,29.96883241,,,,,,,
,,,,,,,,,,,,,,,,,,,,,,-65.55555556,55,20,75,38.44444444,16.55555556,16.55555556,0.163079103,-0.303121805,1,0,0,0.3673,submitButton,9.269281046,-0.186850071,-0.390458345,0,0,0,1,39,99,39,1,55,69592,blockT,180,2022-02-15_13h21.42.359,orientation adjustment block,2021.2.3,Linux x86_64,29.96883241,,,,,,,
,,,,,,,,,,,,,,,,,,,,,,-66.11111111,-19,20,75,-38.11111111,19.11111111,19.11111111,-0.155494372,-0.3945237,1,0,0,1.425,submitButton,9.38372093,-0.155494372,-0.3945237,0,0,0,1,40,100,3,1,19,69592,blockT,180,2022-02-15_13h21.42.359,orientation adjustment block,2021.2.3,Linux x86_64,29.96883241,,,,,,,
,,,,,,,,,,,,,,,,,,,,,,-31.66666667,67,20,75,67.33333333,0.333333333,0.333333333,-0.127129475,-0.407372077,1,0,0,1.2708,submitButton,9.279693487,-0.127129475,-0.407372077,0,0,0,1,41,101,51,1,67,69592,blockT,180,2022-02-15_13h21.42.359,orientation adjustment block,2021.2.3,Linux x86_64,29.96883241,,,,,,,
,,,,,,,,,,,,,,,,,,,,,,67.77777778,-45,20,75,-37.22222222,7.777777778,7.777777778,0.391789993,-0.308019638,1,0,0,0.8554,submitButton,9.262626263,-0.234364231,-0.408068101,0,0,0,1,42,102,29,1,45,69592,blockT,180,2022-02-15_13h21.42.359,orientation adjustment block,2021.2.3,Linux x86_64,29.96883241,,,,,,,
,,,,,,,,,,,,,,,,,,,,,,50.55555556,-21,20,75,-29.44444444,8.444444444,8.444444444,0.405276934,-0.313400189,1,0,0,0.1482,submitButton,9.253433208,-0.192180872,-0.415805022,0,0,0,1,43,103,5,1,21,69592,blockT,180,2022-02-15_13h21.42.359,orientation adjustment block,2021.2.3,Linux x86_64,29.96883241,,,,,,,
,,,,,,,,,,,,,,,,,,,,,,33.33333333,54,20,75,54.33333333,0.333333333,0.333333333,0.370707035,-0.2900575,1,0,0,0.337,submitButton,9.154320988,0.374417702,-0.415018479,1,0,0,1,44,104,38,1,54,69592,blockT,180,2022-02-15_13h21.42.359,orientation adjustment block,2021.2.3,Linux x86_64,29.96883241,continueButton,,,,,,
,,,,,,,,,,,,,,,,,,,,,,-72.77777778,40,20,75,32.22222222,7.777777778,7.777777778,-0.311591228,-0.433834235,1,0,0,1.8837,submitButton,9.139194139,-0.038019021,-0.284314473,0,0,0,1,45,105,24,1,40,69592,blockT,180,2022-02-15_13h21.42.359,orientation adjustment block,2021.2.3,Linux x86_64,29.96883241,,,,,,,
,,,,,,,,,,,,,,,,,,,,,,-35.55555556,49,20,75,34.44444444,14.55555556,14.55555556,-0.167857011,-0.397349993,1,0,0,1.1721,submitButton,9.198067633,-0.167857011,-0.397349993,0,0,0,1,46,106,33,1,49,69592,blockT,180,2022-02-15_13h21.42.359,orientation adjustment block,2021.2.3,Linux x86_64,29.96883241,,,,,,,
,,,,,,,,,,,,,,,,,,,,,,-56.66666667,-73,20,75,-79.66666667,6.666666667,6.666666667,-0.198952913,-0.411470413,1,0,0,1.5992,submitButton,9.170848268,0.294261535,-0.312195619,0,0,0,1,47,107,57,1,73,69592,blockT,180,2022-02-15_13h21.42.359,orientation adjustment block,2021.2.3,Linux x86_64,29.96883241,,,,,,,
,,,,,,,,,,,,,,,,,,,,,,-59.44444444,-51,20,75,-52.44444444,1.444444444,1.444444444,-0.246581395,-0.387140354,1,0,0,1.656,submitButton,9.088652482,-0.246581395,-0.387140354,0,0,0,1,48,108,35,1,51,69592,blockT,180,2022-02-15_13h21.42.359,orientation adjustment block,2021.2.3,Linux x86_64,29.96883241,,,,,,,
,,,,,,,,,,,,,,,,,,,,,,-45,70,20,75,68,2,2,0.134872357,-0.311886072,1,0,0,0.0196,submitButton,9.014035088,-0.119444052,-0.403149764,0,0,0,1,49,109,54,1,70,69592,blockT,180,2022-02-15_13h21.42.359,orientation adjustment block,2021.2.3,Linux x86_64,29.96883241,,,,,,,
,,,,,,,,,,,,,,,,,,,,,,31.11111111,-31,20,75,-36.88888889,5.888888889,5.888888889,0.354365031,-0.253950516,1,0,0,0.9907,submitButton,8.981481481,-0.161827644,-0.406356414,0,0,0,1,50,110,15,1,31,69592,blockT,180,2022-02-15_13h21.42.359,orientation adjustment block,2021.2.3,Linux x86_64,29.96883241,,,,,,,
,,,,,,,,,,,,,,,,,,,,,,33.88888889,-23,20,75,-24.11111111,1.111111111,1.111111111,0.343256871,-0.30109779,1,0,0,0.1895,submitButton,8.900343643,-0.14975969,-0.388328234,0,0,0,1,51,111,7,1,23,69592,blockT,180,2022-02-15_13h21.42.359,orientation adjustment block,2021.2.3,Linux x86_64,29.96883241,,,,,,,
,,,,,,,,,,,,,,,,,,,,,,38.88888889,20,20,75,23.88888889,3.888888889,3.888888889,0.201188246,-0.299312035,1,0,0,0.1676,submitButton,8.849206349,-0.097925822,-0.381653388,0,0,0,1,52,112,4,1,20,69592,blockT,180,2022-02-15_13h21.42.359,orientation adjustment block,2021.2.3,Linux x86_64,29.96883241,,,,,,,
,,,,,,,,,,,,,,,,,,,,,,58.88888889,24,20,75,39.88888889,15.88888889,15.88888889,-0.201697191,-0.415001869,1,0,0,1.5089,submitButton,8.920314254,0.07632637,-0.365358353,0,0,0,1,53,113,8,1,24,69592,blockT,180,2022-02-15_13h21.42.359,orientation adjustment block,2021.2.3,Linux x86_64,29.96883241,,,,,,,
,,,,,,,,,,,,,,,,,,,,,,-35,64,20,75,61,3,3,-0.142496824,-0.426238696,1,0,0,1.4066,submitButton,8.861111111,0.077222188,-0.290512085,0,0,0,1,54,114,48,1,64,69592,blockT,180,2022-02-15_13h21.42.359,orientation adjustment block,2021.2.3,Linux x86_64,29.96883241,,,,,,,
,,,,,,,,,,,,,,,,,,,,,,34.44444444,69,20,75,57.44444444,11.55555556,11.55555556,0.391439199,-0.323543866,1,0,0,1.0293,submitButton,8.887788779,-0.141728481,-0.396909157,0,0,0,1,55,115,53,1,69,69592,blockT,180,2022-02-15_13h21.42.359,orientation adjustment block,2021.2.3,Linux x86_64,29.96883241,,,,,,,
,,,,,,,,,,,,,,,,,,,,,,-30.55555556,-61,20,75,-65.55555556,4.555555556,4.555555556,-0.113475561,-0.398084402,1,0,0,0.9307,submitButton,8.845315904,-0.113475561,-0.398084402,0,0,0,1,56,116,45,1,61,69592,blockT,180,2022-02-15_13h21.42.359,orientation adjustment block,2021.2.3,Linux x86_64,29.96883241,,,,,,,
,,,,,,,,,,,,,,,,,,,,,,-25.55555556,-72,20,75,-66.55555556,5.444444444,5.444444444,-0.231038531,-0.403999647,1,0,0,1.1519,submitButton,8.812297735,-0.231038531,-0.403999647,0,0,0,1,57,117,56,1,72,69592,blockT,180,2022-02-15_13h21.42.359,orientation adjustment block,2021.2.3,Linux x86_64,29.96883241,,,,,,,
,,,,,,,,,,,,,,,,,,,,,,-52.22222222,-22,20,75,-29.22222222,7.222222222,7.222222222,-0.195053736,-0.425756375,1,0,0,1.727,submitButton,8.797008547,-0.195053736,-0.425756375,0,0,0,1,58,118,6,1,22,69592,blockT,180,2022-02-15_13h21.42.359,orientation adjustment block,2021.2.3,Linux x86_64,29.96883241,,,,,,,
,,,,,,,,,,,,,,,,,,,,,,-73.88888889,-42,20,75,-49.88888889,7.888888889,7.888888889,-0.16185085,-0.386705637,1,0,0,2.0995,submitButton,8.788359788,0.436856667,-0.419310013,1,0,0,1,59,119,26,1,42,69592,blockT,180,2022-02-15_13h21.42.359,orientation adjustment block,2021.2.3,Linux x86_64,29.96883241,continueButton,,,,,,
,,,,,,,,,,,,,,,,,,,,,,58.88888889,-69,20,75,-10.11111111,58.88888889,58.88888889,-0.295605898,-0.402455012,1,0,0,2.9214,submitButton,9.261006289,0.009834051,-0.354621172,0,0,0,2,0,120,53,1,69,69592,blockT,180,2022-02-15_13h21.42.359,orientation adjustment block,2021.2.3,Linux x86_64,29.96883241,,,,,,,
,,,,,,,,,,,,,,,,,,,,,,30,-44,20,75,-33,11,11,0.36048158,-0.317468246,1,0,0,0.1373,submitButton,9.277258567,-0.361290733,-0.407987912,0,0,0,2,1,121,28,1,44,69592,blockT,180,2022-02-15_13h21.42.359,orientation adjustment block,2021.2.3,Linux x86_64,29.96883241,,,,,,,
,,,,,,,,,,,,,,,,,,,,,,-65,-30,20,75,-43,13,13,-0.289666176,-0.389089902,1,0,0,1.7133,submitButton,9.311728395,-0.289666176,-0.389089902,0,0,0,2,2,122,14,1,30,69592,blockT,180,2022-02-15_13h21.42.359,orientation adjustment block,2021.2.3,Linux x86_64,29.96883241,,,,,,,
,,,,,,,,,,,,,,,,,,,,,,-48.33333333,54,20,75,57.66666667,3.666666667,3.666666667,0.175571283,-0.297304551,1,0,0,0.118,submitButton,9.259938838,-0.220532417,-0.399280071,0,0,0,2,3,123,38,1,54,69592,blockT,180,2022-02-15_13h21.42.359,orientation adjustment block,2021.2.3,Linux x86_64,29.96883241,,,,,,,
,,,,,,,,,,,,,,,,,,,,,,-70,39,20,75,38,1,1,0.197815021,-0.308993498,1,0,0,0.4307,submitButton,9.184848485,-0.254211903,-0.404317379,0,0,0,2,4,124,23,1,39,69592,blockT,180,2022-02-15_13h21.42.359,orientation adjustment block,2021.2.3,Linux x86_64,29.96883241,,,,,,,
,,,,,,,,,,,,,,,,,,,,,,56.66666667,-67,20,75,-66.33333333,0.666666667,0.666666667,0.42809097,-0.295035521,1,0,0,0.3958,submitButton,9.108108108,-0.21466128,-0.414870262,0,0,0,2,5,125,51,1,67,69592,blockT,180,2022-02-15_13h21.42.359,orientation adjustment block,2021.2.3,Linux x86_64,29.96883241,,,,,,,
,,,,,,,,,,,,,,,,,,,,,,32.22222222,66,20,75,64.22222222,1.777777778,1.777777778,-0.145091852,-0.404043039,1,0,0,1.3829,submitButton,9.04265873,-0.145091852,-0.404043039,0,0,0,2,6,126,50,1,66,69592,blockT,180,2022-02-15_13h21.42.359,orientation adjustment block,2021.2.3,Linux x86_64,29.96883241,,,,,,,
,,,,,,,,,,,,,,,,,,,,,,-55.55555556,-36,20,75,-46.55555556,10.55555556,10.55555556,-0.202312072,-0.419059594,1,0,0,1.4305,submitButton,9.056047198,-0.202312072,-0.419059594,0,0,0,2,7,127,20,1,36,69592,blockT,180,2022-02-15_13h21.42.359,orientation adjustment block,2021.2.3,Linux x86_64,29.96883241,,,,,,,
,,,,,,,,,,,,,,,,,,,,,,71.66666667,-20,20,75,135.6666667,24.33333333,24.33333333,-0.221564849,-0.423712095,1,0,0,2.4296,submitButton,9.19005848,-0.221564849,-0.423712095,0,0,0,2,8,128,4,1,20,69592,blockT,180,2022-02-15_13h21.42.359,orientation adjustment block,2021.2.3,Linux x86_64,29.96883241,,,,,,,
,,,,,,,,,,,,,,,,,,,,,,42.22222222,-24,20,75,143.2222222,12.77777778,12.77777778,-0.194711526,-0.414636374,1,0,0,3.52,submitButton,9.221256039,-0.194711526,-0.414636374,0,0,0,2,9,129,8,1,24,69592,blockT,180,2022-02-15_13h21.42.359,orientation adjustment block,2021.2.3,Linux x86_64,29.96883241,,,,,,,
,,,,,,,,,,,,,,,,,,,,,,58.33333333,23,20,75,42.33333333,19.33333333,19.33333333,0.375929594,-0.314597527,1,0,0,0.7902,submitButton,9.308429119,-0.173013131,-0.390425126,0,0,0,2,10,130,7,1,23,69592,blockT,180,2022-02-15_13h21.42.359,orientation adjustment block,2021.2.3,Linux x86_64,29.96883241,,,,,,,
,,,,,,,,,,,,,,,,,,,,,,-23.33333333,38,20,75,54.66666667,16.66666667,16.66666667,0.217868567,-0.300217946,1,0,0,0.0184,submitButton,9.371320038,-0.221826712,-0.391541958,0,0,0,2,11,131,22,1,38,69592,blockT,180,2022-02-15_13h21.42.359,orientation adjustment block,2021.2.3,Linux x86_64,29.96883241,,,,,,,
,,,,,,,,,,,,,,,,,,,,,,36.66666667,22,20,75,29.66666667,7.666666667,7.666666667,-0.244853536,-0.427954833,1,0,0,1.445,submitButton,9.356873823,-0.207763433,-0.403474808,0,0,0,2,12,132,6,1,22,69592,blockT,180,2022-02-15_13h21.42.359,orientation adjustment block,2021.2.3,Linux x86_64,29.96883241,,,,,,,
,,,,,,,,,,,,,,,,,,,,,,51.66666667,56,20,75,58.66666667,2.666666667,2.666666667,-0.302704573,-0.401898384,1,0,0,1.5267,submitButton,9.300653595,-0.302704573,-0.401898384,0,0,0,2,13,133,40,1,56,69592,blockT,180,2022-02-15_13h21.42.359,orientation adjustment block,2021.2.3,Linux x86_64,29.96883241,,,,,,,
,,,,,,,,,,,,,,,,,,,,,,-61.11111111,-16,20,75,-32.11111111,16.11111111,16.11111111,-0.228315314,-0.41345795,1,0,0,1.6214,submitButton,9.357407407,0.344522874,-0.404146989,1,0,0,2,14,134,0,1,16,69592,blockT,180,2022-02-15_13h21.42.359,orientation adjustment block,2021.2.3,Linux x86_64,29.96883241,continueButton,,,,,,
,,,,,,,,,,,,,,,,,,,,,,-61.66666667,51,20,75,44.33333333,6.666666667,6.666666667,0.22655797,-0.320191383,1,0,0,0.4996,submitButton,9.335169881,-0.268576701,-0.411269665,0,0,0,2,15,135,35,1,51,69592,blockT,180,2022-02-15_13h21.42.359,orientation adjustment block,2021.2.3,Linux x86_64,29.96883241,,,,,,,
,,,,,,,,,,,,,,,,,,,,,,43.33333333,19,20,75,31.33333333,12.33333333,12.33333333,-0.189805905,-0.424094041,1,0,0,1.4691,submitButton,9.359744991,-0.189805905,-0.424094041,0,0,0,2,16,136,3,1,19,69592,blockT,180,2022-02-15_13h21.42.359,orientation adjustment block,2021.2.3,Linux x86_64,29.96883241,,,,,,,
,,,,,,,,,,,,,,,,,,,,,,31.66666667,68,20,75,60.66666667,7.333333333,7.333333333,0.377681017,-0.301646392,1,0,0,0.0537,submitButton,9.343270099,-0.166895151,-0.406599045,0,0,0,2,17,137,52,1,68,69592,blockT,180,2022-02-15_13h21.42.359,orientation adjustment block,2021.2.3,Linux x86_64,29.96883241,,,,,,,
,,,,,,,,,,,,,,,,,,,,,,-49.44444444,49,20,75,49.55555556,0.555555556,0.555555556,0.189850092,-0.298449119,1,0,0,0.3735,submitButton,9.272401434,-0.201180379,-0.357841889,0,0,0,2,18,138,33,1,49,69592,blockT,180,2022-02-15_13h21.42.359,orientation adjustment block,2021.2.3,Linux x86_64,29.96883241,,,,,,,
,,,,,,,,,,,,,,,,,,,,,,-72.22222222,73,20,75,58.77777778,14.22222222,14.22222222,0.209038099,-0.305620909,1,0,0,1.5343,submitButton,9.312,-0.242631793,-0.388168176,0,0,0,2,19,139,57,1,73,69592,blockT,180,2022-02-15_13h21.42.359,orientation adjustment block,2021.2.3,Linux x86_64,29.96883241,,,,,,,
,,,,,,,,,,,,,,,,,,,,,,37.77777778,71,20,75,70.77777778,0.222222222,0.222222222,0.37521863,-0.283921957,1,0,0,0.022,submitButton,9.239858907,-0.175330639,-0.412836075,0,0,0,2,20,140,55,1,71,69592,blockT,180,2022-02-15_13h21.42.359,orientation adjustment block,2021.2.3,Linux x86_64,29.96883241,,,,,,,
,,,,,,,,,,,,,,,,,,,,,,41.66666667,37,20,75,52.66666667,15.66666667,15.66666667,-0.26938804,-0.396668514,1,0,0,1.2595,submitButton,9.290463692,-0.26938804,-0.396668514,0,0,0,2,21,141,21,1,37,69592,blockT,180,2022-02-15_13h21.42.359,orientation adjustment block,2021.2.3,Linux x86_64,29.96883241,,,,,,,
,,,,,,,,,,,,,,,,,,,,,,-41.66666667,26,20,75,34.33333333,8.333333333,8.333333333,0.187484026,-0.309537172,1,0,0,0.0459,submitButton,9.282986111,-0.234265526,-0.426575263,0,0,0,2,22,142,10,1,26,69592,blockT,180,2022-02-15_13h21.42.359,orientation adjustment block,2021.2.3,Linux x86_64,29.96883241,,,,,,,
,,,,,,,,,,,,,,,,,,,,,,35,-58,20,75,-51,7,7,0.398958286,-0.302732547,1,0,0,0.6664,submitButton,9.265288544,-0.185319424,-0.420559883,0,0,0,2,23,143,42,1,58,69592,blockT,180,2022-02-15_13h21.42.359,orientation adjustment block,2021.2.3,Linux x86_64,29.96883241,,,,,,,
,,,,,,,,,,,,,,,,,,,,,,-62.22222222,-29,20,75,-43.22222222,14.22222222,14.22222222,0.23370115,-0.298479319,1,0,0,0.1585,submitButton,9.303418803,-0.138739983,-0.404016097,0,0,0,2,24,144,13,1,29,69592,blockT,180,2022-02-15_13h21.42.359,orientation adjustment block,2021.2.3,Linux x86_64,29.96883241,,,,,,,
,,,,,,,,,,,,,,,,,,,,,,46.11111111,55,20,75,50.11111111,4.888888889,4.888888889,-0.185039202,-0.404929797,1,0,0,1.8742,submitButton,9.269720102,-0.185039202,-0.404929797,0,0,0,2,25,145,39,1,55,69592,blockT,180,2022-02-15_13h21.42.359,orientation adjustment block,2021.2.3,Linux x86_64,29.96883241,,,,,,,
,,,,,,,,,,,,,,,,,,,,,,29.44444444,45,20,75,53.44444444,8.444444444,8.444444444,0.420606852,-0.308758974,1,0,0,0.6299,submitButton,9.263468013,-0.128136555,-0.396683772,0,0,0,2,26,146,29,1,45,69592,blockT,180,2022-02-15_13h21.42.359,orientation adjustment block,2021.2.3,Linux x86_64,29.96883241,,,,,,,
,,,,,,,,,,,,,,,,,,,,,,28.88888889,47,20,75,47.88888889,0.888888889,0.888888889,-0.252454718,-0.430137873,1,0,0,1.3095,submitButton,9.200501253,-0.237428149,-0.417622805,0,0,0,2,27,147,31,1,47,69592,blockT,180,2022-02-15_13h21.42.359,orientation adjustment block,2021.2.3,Linux x86_64,29.96883241,,,,,,,
,,,,,,,,,,,,,,,,,,,,,,75,46,20,75,228,2,2,0.218009631,-0.300598542,1,0,0,0.0783,submitButton,9.146766169,-0.206483682,-0.411447525,0,0,0,2,28,148,30,1,46,69592,blockT,180,2022-02-15_13h21.42.359,orientation adjustment block,2021.2.3,Linux x86_64,29.96883241,,,,,,,
,,,,,,,,,,,,,,,,,,,,,,-57.22222222,50,20,75,43.77777778,6.222222222,6.222222222,0.208323797,-0.295934916,1,0,0,0.266,submitButton,9.125102881,0.340808153,-0.417571624,1,0,0,2,29,149,34,1,50,69592,blockT,180,2022-02-15_13h21.42.359,orientation adjustment block,2021.2.3,Linux x86_64,29.96883241,continueButton,,,,,,
,,,,,,,,,,,,,,,,,,,,,,-21.66666667,-63,20,75,-39.66666667,23.33333333,23.33333333,0.223198096,-0.305816015,1,0,0,0.6006,submitButton,9.229575163,-0.120757739,-0.412745476,0,0,0,2,30,150,47,1,63,69592,blockT,180,2022-02-15_13h21.42.359,orientation adjustment block,2021.2.3,Linux x86_64,29.96883241,,,,,,,
,,,,,,,,,,,,,,,,,,,,,,-44.44444444,60,20,75,58.55555556,1.444444444,1.444444444,0.195054134,-0.318092585,1,0,0,0.0983,submitButton,9.172749392,-0.217225472,-0.395138025,0,0,0,2,31,151,44,1,60,69592,blockT,180,2022-02-15_13h21.42.359,orientation adjustment block,2021.2.3,Linux x86_64,29.96883241,,,,,,,
,,,,,,,,,,,,,,,,,,,,,,-31.11111111,-40,20,75,-49.11111111,9.111111111,9.111111111,-0.187110821,-0.415860971,1,0,0,1.448,submitButton,9.172302738,-0.187110821,-0.415860971,0,0,0,2,32,152,24,1,40,69592,blockT,180,2022-02-15_13h21.42.359,orientation adjustment block,2021.2.3,Linux x86_64,29.96883241,,,,,,,
,,,,,,,,,,,,,,,,,,,,,,51.66666667,-53,20,75,-40.33333333,12.66666667,12.66666667,0.394031127,-0.295665661,1,0,0,0.1047,submitButton,9.197442046,-0.201782465,-0.407856782,0,0,0,2,33,153,37,1,53,69592,blockT,180,2022-02-15_13h21.42.359,orientation adjustment block,2021.2.3,Linux x86_64,29.96883241,,,,,,,
,,,,,,,,,,,,,,,,,,,,,,63.33333333,61,20,75,61.33333333,0.333333333,0.333333333,0.389907519,-0.281758229,1,0,0,0.2636,submitButton,9.134126984,-0.142126481,-0.409681161,0,0,0,2,34,154,45,1,61,69592,blockT,180,2022-02-15_13h21.42.359,orientation adjustment block,2021.2.3,Linux x86_64,29.96883241,,,,,,,
,,,,,,,,,,,,,,,,,,,,,,52.77777778,27,20,75,21.77777778,5.222222222,5.222222222,-0.22043554,-0.382078012,1,0,0,2.2983,submitButton,9.106382979,-0.22043554,-0.382078012,0,0,0,2,35,155,11,1,27,69592,blockT,180,2022-02-15_13h21.42.359,orientation adjustment block,2021.2.3,Linux x86_64,29.96883241,,,,,,,
,,,,,,,,,,,,,,,,,,,,,,-66.11111111,-43,20,75,-54.11111111,11.11111111,11.11111111,0.198584795,-0.291628122,1,0,0,0.0618,submitButton,9.120500782,-0.149766207,-0.348010937,0,0,0,2,36,156,27,1,43,69592,blockT,180,2022-02-15_13h21.42.359,orientation adjustment block,2021.2.3,Linux x86_64,29.96883241,,,,,,,
,,,,,,,,,,,,,,,,,,,,,,-31.11111111,-42,20,75,-43.11111111,1.111111111,1.111111111,-0.20754083,-0.420218706,1,0,0,1.5743,submitButton,9.064491064,-0.20754083,-0.420218706,0,0,0,2,37,157,26,1,42,69592,blockT,180,2022-02-15_13h21.42.359,orientation adjustment block,2021.2.3,Linux x86_64,29.96883241,,,,,,,
,,,,,,,,,,,,,,,,,,,,,,-53.33333333,-52,20,75,-59.33333333,7.333333333,7.333333333,-0.214715401,-0.415762981,1,0,0,1.5253,submitButton,9.052469136,-0.214715401,-0.415762981,0,0,0,2,38,158,36,1,52,69592,blockT,180,2022-02-15_13h21.42.359,orientation adjustment block,2021.2.3,Linux x86_64,29.96883241,,,,,,,
,,,,,,,,,,,,,,,,,,,,,,61.66666667,41,20,75,49.66666667,8.666666667,8.666666667,0.39082106,-0.31658562,1,0,0,0.068,submitButton,9.049808429,-0.145295699,-0.394699097,0,0,0,2,39,159,25,1,41,69592,blockT,180,2022-02-15_13h21.42.359,orientation adjustment block,2021.2.3,Linux x86_64,29.96883241,,,,,,,
,,,,,,,,,,,,,,,,,,,,,,-52.22222222,34,20,75,36.77777778,2.777777778,2.777777778,0.1859924,-0.299393098,1,0,0,0.5706,submitButton,9.006849315,-0.222907861,-0.391896725,0,0,0,2,40,160,18,1,34,69592,blockT,180,2022-02-15_13h21.42.359,orientation adjustment block,2021.2.3,Linux x86_64,29.96883241,,,,,,,
,,,,,,,,,,,,,,,,,,,,,,-43.88888889,-48,20,75,-48.88888889,0.888888889,0.888888889,-0.261021892,-0.411975861,1,0,0,1.4205,submitButton,8.951625094,-0.261021892,-0.411975861,0,0,0,2,41,161,32,1,48,69592,blockT,180,2022-02-15_13h21.42.359,orientation adjustment block,2021.2.3,Linux x86_64,29.96883241,,,,,,,
,,,,,,,,,,,,,,,,,,,,,,29.44444444,31,20,75,39.44444444,8.444444444,8.444444444,0.36107254,-0.290531158,1,0,0,0.5672,submitButton,8.948198198,-0.127437671,-0.414300601,0,0,0,2,42,162,15,1,31,69592,blockT,180,2022-02-15_13h21.42.359,orientation adjustment block,2021.2.3,Linux x86_64,29.96883241,,,,,,,
,,,,,,,,,,,,,,,,,,,,,,72.77777778,-57,20,75,54.77777778,68.22222222,68.22222222,0.181025187,-0.287739436,1,0,0,1.2712,submitButton,9.34601044,-0.263097763,-0.413937887,0,0,0,2,43,163,41,1,57,69592,blockT,180,2022-02-15_13h21.42.359,orientation adjustment block,2021.2.3,Linux x86_64,29.96883241,,,,,,,
,,,,,,,,,,,,,,,,,,,,,,41.11111111,-28,20,75,57.11111111,85.11111111,85.11111111,0.228999694,-0.287754615,1,0,0,0.3253,submitButton,9.851111111,0.346802553,-0.413541079,1,0,0,2,44,164,12,1,28,69592,blockT,180,2022-02-15_13h21.42.359,orientation adjustment block,2021.2.3,Linux x86_64,29.96883241,continueButton,,,,,,
,,,,,,,,,,,,,,,,,,,,,,-51.66666667,25,20,75,27.33333333,2.333333333,2.333333333,0.159842253,-0.319137335,1,0,0,0.26,submitButton,9.801324503,-0.230030457,-0.388105472,0,0,0,2,45,165,9,1,25,69592,blockT,180,2022-02-15_13h21.42.359,orientation adjustment block,2021.2.3,Linux x86_64,29.96883241,,,,,,,
,,,,,,,,,,,,,,,,,,,,,,22.77777778,17,20,75,14.77777778,2.222222222,2.222222222,0.211846511,-0.314516465,1,0,0,0.1369,submitButton,9.751461988,-0.265957316,-0.394814809,0,0,0,2,46,166,1,1,17,69592,blockT,180,2022-02-15_13h21.42.359,orientation adjustment block,2021.2.3,Linux x86_64,29.96883241,,,,,,,
,,,,,,,,,,,,,,,,,,,,,,-37.77777778,59,20,75,61.22222222,2.222222222,2.222222222,0.203864018,-0.292096933,1,0,0,1.23,submitButton,9.702251271,-0.185045004,-0.385233561,0,0,0,2,47,167,43,1,59,69592,blockT,180,2022-02-15_13h21.42.359,orientation adjustment block,2021.2.3,Linux x86_64,29.96883241,,,,,,,
,,,,,,,,,,,,,,,,,,,,,,-22.77777778,-72,20,75,-57.77777778,14.22222222,14.22222222,0.225011826,-0.303443273,1,0,0,0.1002,submitButton,9.731601732,-0.182341099,-0.385955731,0,0,0,2,48,168,56,1,72,69592,blockT,180,2022-02-15_13h21.42.359,orientation adjustment block,2021.2.3,Linux x86_64,29.96883241,,,,,,,
,,,,,,,,,,,,,,,,,,,,,,-60.55555556,18,20,75,23.44444444,5.444444444,5.444444444,0.180587769,-0.307313363,1,0,0,0.3332,submitButton,9.703942652,-0.212194443,-0.413275003,0,0,0,2,49,169,2,1,18,69592,blockT,180,2022-02-15_13h21.42.359,orientation adjustment block,2021.2.3,Linux x86_64,29.96883241,,,,,,,
,,,,,,,,,,,,,,,,,,,,,,-50,33,20,75,28,5,5,-0.183955272,-0.414369663,1,0,0,1.5907,submitButton,9.673789174,-0.183955272,-0.414369663,0,0,0,2,50,170,17,1,33,69592,blockT,180,2022-02-15_13h21.42.359,orientation adjustment block,2021.2.3,Linux x86_64,29.96883241,,,,,,,
,,,,,,,,,,,,,,,,,,,,,,31.11111111,65,20,75,60.11111111,4.888888889,4.888888889,0.398481369,-0.288585901,1,0,0,0.3053,submitButton,9.643312102,-0.160678625,-0.400293112,0,0,0,2,51,171,49,1,65,69592,blockT,180,2022-02-15_13h21.42.359,orientation adjustment block,2021.2.3,Linux x86_64,29.96883241,,,,,,,
,,,,,,,,,,,,,,,,,,,,,,-22.22222222,70,20,75,68.77777778,1.222222222,1.222222222,-0.211849213,-0.423767249,1,0,0,1.012,submitButton,9.590014065,-0.068847736,-0.352881749,0,0,0,2,52,172,54,1,70,69592,blockT,180,2022-02-15_13h21.42.359,orientation adjustment block,2021.2.3,Linux x86_64,29.96883241,,,,,,,
,,,,,,,,,,,,,,,,,,,,,,-22.22222222,-62,20,75,-62.22222222,0.222222222,0.222222222,-0.184641361,-0.383906841,1,0,0,0.7033,submitButton,9.531097135,-0.184641361,-0.383906841,0,0,0,2,53,173,46,1,62,69592,blockT,180,2022-02-15_13h21.42.359,orientation adjustment block,2021.2.3,Linux x86_64,29.96883241,,,,,,,
,,,,,,,,,,,,,,,,,,,,,,-62.77777778,-64,20,75,-64.77777778,0.777777778,0.777777778,0.204963446,-0.323517243,1,0,0,0.0656,submitButton,9.476388889,-0.175147533,-0.39568011,0,0,0,2,54,174,48,1,64,69592,blockT,180,2022-02-15_13h21.42.359,orientation adjustment block,2021.2.3,Linux x86_64,29.96883241,,,,,,,
,,,,,,,,,,,,,,,,,,,,,,-40.55555556,-75,20,75,-74.55555556,0.444444444,0.444444444,-0.232775887,-0.371131579,1,0,0,1.436,submitButton,9.420289855,-0.220952272,-0.390274445,0,0,0,2,55,175,59,1,75,69592,blockT,180,2022-02-15_13h21.42.359,orientation adjustment block,2021.2.3,Linux x86_64,29.96883241,,,,,,,
,,,,,,,,,,,,,,,,,,,,,,73.33333333,-35,20,75,86.33333333,58.66666667,58.66666667,0.193746169,-0.31347998,1,0,0,2.8572,submitButton,9.724279835,-0.061344862,-0.34673508,0,0,0,2,56,176,19,1,35,69592,blockT,180,2022-02-15_13h21.42.359,orientation adjustment block,2021.2.3,Linux x86_64,29.96883241,,,,,,,
,,,,,,,,,,,,,,,,,,,,,,-23.88888889,-21,20,75,-23.88888889,2.888888889,2.888888889,-0.181062222,-0.403097947,1,0,0,0.8943,submitButton,9.682344922,-0.181062222,-0.403097947,0,0,0,2,57,177,5,1,21,69592,blockT,180,2022-02-15_13h21.42.359,orientation adjustment block,2021.2.3,Linux x86_64,29.96883241,,,,,,,
,,,,,,,,,,,,,,,,,,,,,,-39.44444444,74,20,75,67.55555556,6.444444444,6.444444444,-0.264424841,-0.404847781,1,0,0,1.4213,submitButton,9.662601626,-0.264424841,-0.404847781,0,0,0,2,58,178,58,1,74,69592,blockT,180,2022-02-15_13h21.42.359,orientation adjustment block,2021.2.3,Linux x86_64,29.96883241,,,,,,,
,,,,,,,,,,,,,,,,,,,,,,47.22222222,32,20,75,39.22222222,7.222222222,7.222222222,-0.288988749,-0.423703273,1,0,0,1.6793,submitButton,9.647811448,-0.179243962,-0.403523286,0,0,0,2,59,179,16,1,32,69592,blockT,180,2022-02-15_13h21.42.359,orientation adjustment block,2021.2.3,Linux x86_64,29.96883241,,,,,,,
,,,,,,,,,,,,,,,,,,,,,,,,,,,,,,,,,,,,,,,,,,,,,,,,69592,blockT,180,2022-02-15_13h21.42.359,orientation adjustment block,2021.2.3,Linux x86_64,29.96883241,,0.316430807,-0.390650829,1,0,0,EndButtonTxt
