consentMouse1.x,consentMouse1.y,consentMouse1.leftButton,consentMouse1.midButton,consentMouse1.rightButton,consentMouse1.clicked_name,consent_Mouse.x,consent_Mouse.y,consent_Mouse.leftButton,consent_Mouse.midButton,consent_Mouse.rightButton,consent_Mouse.clicked_name,startMouse.x,startMouse.y,startMouse.leftButton,startMouse.midButton,startMouse.rightButton,startMouse_2.x,startMouse_2.y,startMouse_2.leftButton,startMouse_2.midButton,startMouse_2.rightButton,start_distance,fixedOri,minimalDistance,maxOri,this_ori,accuracy,presented_accuracy,submitMouse.x,submitMouse.y,submitMouse.leftButton,submitMouse.midButton,submitMouse.rightButton,submitMouse.time,submitMouse.clicked_name,block_accuracy,continueMouse.x,continueMouse.y,continueMouse.leftButton,continueMouse.midButton,continueMouse.rightButton,trials.thisRepN,trials.thisTrialN,trials.thisN,trials.thisIndex,trials.ran,startOri,participant,condition,nTrials,date,expName,psychopyVersion,OS,frameRate,continueMouse.clicked_name,EndButtonMouse.x,EndButtonMouse.y,EndButtonMouse.leftButton,EndButtonMouse.midButton,EndButtonMouse.rightButton,EndButtonMouse.clicked_name
0.422408854,-0.406284722,1,0,0,consent_button1,0.389344618,-0.405737847,1,0,0,consent_button,0.29906684,-0.323315972,1,0,0,0.298411458,-0.325338542,1,0,0,-51.11111111,-59,20,75,-88.11111111,29.11111111,29.11111111,0.374201389,-0.306553819,1,0,0,10.4979,submitButton,29.11111111,-0.397582465,-0.394631076,0,0,0,0,0,0,43,1,59,69610,blockT,180,2022-02-20_21h26.33.132,orientation adjustment block,2021.2.3,MacIntel,60.0024001,,,,,,,
,,,,,,,,,,,,,,,,,,,,,,-41.11111111,34,20,75,86.88888889,52.88888889,52.88888889,0.208506944,-0.285525174,1,0,0,2.0832,submitButton,41,-0.239157986,-0.395585937,0,0,0,0,1,1,18,1,34,69610,blockT,180,2022-02-20_21h26.33.132,orientation adjustment block,2021.2.3,MacIntel,60.0024001,,,,,,,
,,,,,,,,,,,,,,,,,,,,,,41.11111111,27,20,75,31.11111111,4.111111111,4.111111111,0.381532118,-0.314852431,1,0,0,0.6838,submitButton,28.7037037,-0.238328993,-0.383350694,0,0,0,0,2,2,11,1,27,69610,blockT,180,2022-02-20_21h26.33.132,orientation adjustment block,2021.2.3,MacIntel,60.0024001,,,,,,,
,,,,,,,,,,,,,,,,,,,,,,-36.66666667,-74,20,75,-59.66666667,14.33333333,14.33333333,0.192608507,-0.29046875,1,0,0,0.1666,submitButton,14.33333333,-0.233841146,-0.400737847,0,0,0,0,3,3,58,1,74,69610,blockT,180,2022-02-20_21h26.33.132,orientation adjustment block,2021.2.3,MacIntel,60.0024001,,,,,,,
,,,,,,,,,,,,,,,,,,,,,,44.44444444,37,20,75,33.44444444,3.555555556,3.555555556,0.414644097,-0.315664063,1,0,0,0.2336,submitButton,8.944444444,-0.382738715,-0.398684896,0,0,0,0,4,4,21,1,37,69610,blockT,180,2022-02-20_21h26.33.132,orientation adjustment block,2021.2.3,MacIntel,60.0024001,,,,,,,
,,,,,,,,,,,,,,,,,,,,,,66.66666667,28,20,75,33.66666667,5.666666667,5.666666667,0.422552083,-0.314440104,1,0,0,0.2328,submitButton,7.851851852,-0.255842014,-0.409544271,0,0,0,0,5,5,12,1,28,69610,blockT,180,2022-02-20_21h26.33.132,orientation adjustment block,2021.2.3,MacIntel,60.0024001,,,,,,,
,,,,,,,,,,,,,,,,,,,,,,-40.55555556,25,20,75,33.44444444,8.444444444,8.444444444,0.199878472,-0.270828993,1,0,0,0.2321,submitButton,8.444444444,-0.013654514,-0.276419271,0,0,0,0,6,6,9,1,25,69610,blockT,180,2022-02-20_21h26.33.132,orientation adjustment block,2021.2.3,MacIntel,60.0024001,,,,,,,
,,,,,,,,,,,,,,,,,,,,,,-27.22222222,-23,20,75,-28.22222222,5.222222222,5.222222222,0.227925347,-0.297443576,1,0,0,0.2164,submitButton,6.833333333,-0.309027778,-0.397929688,0,0,0,0,7,7,7,1,23,69610,blockT,180,2022-02-20_21h26.33.132,orientation adjustment block,2021.2.3,MacIntel,60.0024001,,,,,,,
,,,,,,,,,,,,,,,,,,,,,,-25,-52,20,75,-41,11,11,0.217039931,-0.304422743,1,0,0,1.0156,submitButton,8.222222222,-0.200598958,-0.408016493,0,0,0,0,8,8,36,1,52,69610,blockT,180,2022-02-20_21h26.33.132,orientation adjustment block,2021.2.3,MacIntel,60.0024001,,,,,,,
,,,,,,,,,,,,,,,,,,,,,,-39.44444444,-35,20,75,-16.44444444,18.55555556,18.55555556,0.247851563,-0.32453125,1,0,0,2.3334,submitButton,18.55555556,0.0496875,-0.357413194,0,0,0,0,9,9,19,1,35,69610,blockT,180,2022-02-20_21h26.33.132,orientation adjustment block,2021.2.3,MacIntel,60.0024001,,,,,,,
,,,,,,,,,,,,,,,,,,,,,,-42.77777778,26,20,75,51.22222222,25.22222222,25.22222222,0.195138889,-0.303263889,1,0,0,0.8508,submitButton,21.88888889,0.069492187,-0.168936632,0,0,0,0,10,10,10,1,26,69610,blockT,180,2022-02-20_21h26.33.132,orientation adjustment block,2021.2.3,MacIntel,60.0024001,,,,,,,
,,,,,,,,,,,,,,,,,,,,,,26.11111111,69,20,75,238.1111111,10.88888889,10.88888889,0.202803819,-0.291601563,1,0,0,2.4997,submitButton,18.22222222,0.146996528,-0.298836806,0,0,0,0,11,11,53,1,69,69610,blockT,180,2022-02-20_21h26.33.132,orientation adjustment block,2021.2.3,MacIntel,60.0024001,,,,,,,
,,,,,,,,,,,,,,,,,,,,,,21.66666667,-72,20,75,-39.33333333,32.66666667,32.66666667,0.151896701,-0.29891059,1,0,0,0.2998,submitButton,32.66666667,-0.205651042,-0.373797743,0,0,0,0,12,12,56,1,72,69610,blockT,180,2022-02-20_21h26.33.132,orientation adjustment block,2021.2.3,MacIntel,60.0024001,,,,,,,
,,,,,,,,,,,,,,,,,,,,,,42.22222222,-73,20,75,-57.77777778,15.22222222,15.22222222,0.415377604,-0.28171441,1,0,0,0.0661,submitButton,23.94444444,-0.479743924,-0.410559896,0,0,0,0,13,13,57,1,73,69610,blockT,180,2022-02-20_21h26.33.132,orientation adjustment block,2021.2.3,MacIntel,60.0024001,,,,,,,
,,,,,,,,,,,,,,,,,,,,,,-73.33333333,-17,20,75,-18.33333333,1.333333333,1.333333333,0.209157986,-0.303476562,1,0,0,0.5328,submitButton,16.40740741,0.277052951,-0.391015625,1,0,0,0,14,14,1,1,17,69610,blockT,180,2022-02-20_21h26.33.132,orientation adjustment block,2021.2.3,MacIntel,60.0024001,continueButton,,,,,,
,,,,,,,,,,,,,,,,,,,,,,-55,21,20,75,27,6,6,-0.236059028,-0.375377604,1,0,0,2.0665,submitButton,6,0.230972222,-0.259809028,0,0,0,0,15,15,5,1,21,69610,blockT,180,2022-02-20_21h26.33.132,orientation adjustment block,2021.2.3,MacIntel,60.0024001,,,,,,,
,,,,,,,,,,,,,,,,,,,,,,28.88888889,-16,20,75,-13.11111111,2.888888889,2.888888889,0.226853299,-0.291601563,1,0,0,0.8996,submitButton,4.444444444,-0.315516493,-0.402907986,0,0,0,0,16,16,0,1,16,69610,blockT,180,2022-02-20_21h26.33.132,orientation adjustment block,2021.2.3,MacIntel,60.0024001,,,,,,,
,,,,,,,,,,,,,,,,,,,,,,21.11111111,68,20,75,225.1111111,22.88888889,22.88888889,0.402560764,-0.307087674,1,0,0,3.0498,submitButton,10.59259259,0.007682292,-0.289309896,0,0,0,0,17,17,52,1,68,69610,blockT,180,2022-02-20_21h26.33.132,orientation adjustment block,2021.2.3,MacIntel,60.0024001,,,,,,,
,,,,,,,,,,,,,,,,,,,,,,-67.77777778,49,20,75,59.22222222,10.22222222,10.22222222,-0.283025174,-0.406488715,1,0,0,1.7671,submitButton,10.5,-0.112178819,-0.285251736,0,0,0,0,18,18,33,1,49,69610,blockT,180,2022-02-20_21h26.33.132,orientation adjustment block,2021.2.3,MacIntel,60.0024001,,,,,,,
,,,,,,,,,,,,,,,,,,,,,,51.11111111,-64,20,75,-50.88888889,13.11111111,13.11111111,0.361866319,-0.291341146,1,0,0,0.1668,submitButton,11.02222222,-0.331953125,-0.381006944,0,0,0,0,19,19,48,1,64,69610,blockT,180,2022-02-20_21h26.33.132,orientation adjustment block,2021.2.3,MacIntel,60.0024001,,,,,,,
,,,,,,,,,,,,,,,,,,,,,,33.88888889,63,20,75,61.88888889,1.111111111,1.111111111,0.412682292,-0.294769965,1,0,0,0.2836,submitButton,9.37037037,-0.150616319,-0.420802951,0,0,0,0,20,20,47,1,63,69610,blockT,180,2022-02-20_21h26.33.132,orientation adjustment block,2021.2.3,MacIntel,60.0024001,,,,,,,
,,,,,,,,,,,,,,,,,,,,,,37.22222222,-71,20,75,-57.77777778,13.22222222,13.22222222,0.400859375,-0.295134549,1,0,0,0.1331,submitButton,9.920634921,-0.331484375,-0.407821181,0,0,0,0,21,21,55,1,71,69610,blockT,180,2022-02-20_21h26.33.132,orientation adjustment block,2021.2.3,MacIntel,60.0024001,,,,,,,
,,,,,,,,,,,,,,,,,,,,,,-39.44444444,-31,20,75,-25.44444444,5.555555556,5.555555556,0.164270833,-0.32078125,1,0,0,0.5998,submitButton,9.375,0.005134549,-0.29562934,0,0,0,0,22,22,15,1,31,69610,blockT,180,2022-02-20_21h26.33.132,orientation adjustment block,2021.2.3,MacIntel,60.0024001,,,,,,,
,,,,,,,,,,,,,,,,,,,,,,-54.44444444,-33,20,75,-24.44444444,8.555555556,8.555555556,-0.191462674,-0.397300347,1,0,0,1.4171,submitButton,9.283950617,-0.191462674,-0.397300347,0,0,0,0,23,23,17,1,33,69610,blockT,180,2022-02-20_21h26.33.132,orientation adjustment block,2021.2.3,MacIntel,60.0024001,,,,,,,
,,,,,,,,,,,,,,,,,,,,,,71.11111111,19,20,75,236.1111111,37.11111111,37.11111111,0.198654514,-0.293862847,1,0,0,2.6672,submitButton,12.06666667,-0.349279514,-0.378420139,0,0,0,0,24,24,3,1,19,69610,blockT,180,2022-02-20_21h26.33.132,orientation adjustment block,2021.2.3,MacIntel,60.0024001,,,,,,,
,,,,,,,,,,,,,,,,,,,,,,-42.77777778,-57,20,75,-228.7777778,8.222222222,8.222222222,0.250703125,-0.311623264,1,0,0,3.0512,submitButton,11.71717172,-0.422404514,-0.407170139,0,0,0,0,25,25,41,1,57,69610,blockT,180,2022-02-20_21h26.33.132,orientation adjustment block,2021.2.3,MacIntel,60.0024001,,,,,,,
,,,,,,,,,,,,,,,,,,,,,,36.66666667,-39,20,75,-53.33333333,14.33333333,14.33333333,0.407317708,-0.31499566,1,0,0,0.1491,submitButton,11.93518519,-0.359631076,-0.372821181,0,0,0,0,26,26,23,1,39,69610,blockT,180,2022-02-20_21h26.33.132,orientation adjustment block,2021.2.3,MacIntel,60.0024001,,,,,,,
,,,,,,,,,,,,,,,,,,,,,,-30.55555556,-66,20,75,-235.5555556,10.44444444,10.44444444,-0.347925347,-0.438828125,1,0,0,2.8165,submitButton,11.82051282,-0.355481771,-0.388771701,0,0,0,0,27,27,50,1,66,69610,blockT,180,2022-02-20_21h26.33.132,orientation adjustment block,2021.2.3,MacIntel,60.0024001,,,,,,,
,,,,,,,,,,,,,,,,,,,,,,-41.11111111,65,20,75,62.88888889,2.111111111,2.111111111,-0.378554687,-0.378940972,1,0,0,0.6838,submitButton,11.12698413,-0.379110243,-0.378385417,0,0,0,0,28,28,49,1,65,69610,blockT,180,2022-02-20_21h26.33.132,orientation adjustment block,2021.2.3,MacIntel,60.0024001,,,,,,,
,,,,,,,,,,,,,,,,,,,,,,61.66666667,42,20,75,228.6666667,6.666666667,6.666666667,0.225273438,-0.298016493,1,0,0,0.0167,submitButton,10.82962963,0.270855035,-0.399453125,1,0,0,0,29,29,26,1,42,69610,blockT,180,2022-02-20_21h26.33.132,orientation adjustment block,2021.2.3,MacIntel,60.0024001,continueButton,,,,,,
,,,,,,,,,,,,,,,,,,,,,,-50.55555556,45,20,75,22.44444444,22.55555556,22.55555556,0.37468316,-0.302105035,1,0,0,1.4164,submitButton,11.5625,-0.137942708,-0.35421441,0,0,0,0,30,30,29,1,45,69610,blockT,180,2022-02-20_21h26.33.132,orientation adjustment block,2021.2.3,MacIntel,60.0024001,,,,,,,
,,,,,,,,,,,,,,,,,,,,,,38.33333333,-47,20,75,-50.66666667,3.666666667,3.666666667,-0.340690104,-0.378107639,1,0,0,0.7171,submitButton,11.09803922,-0.340690104,-0.378663194,0,0,0,0,31,31,31,1,47,69610,blockT,180,2022-02-20_21h26.33.132,orientation adjustment block,2021.2.3,MacIntel,60.0024001,,,,,,,
,,,,,,,,,,,,,,,,,,,,,,65,-53,20,75,-60,7,7,0.371940104,-0.308819444,1,0,0,0.0999,submitButton,10.87037037,-0.418268229,-0.399149306,0,0,0,0,32,32,37,1,53,69610,blockT,180,2022-02-20_21h26.33.132,orientation adjustment block,2021.2.3,MacIntel,60.0024001,,,,,,,
,,,,,,,,,,,,,,,,,,,,,,40.55555556,51,20,75,225.5555556,5.444444444,5.444444444,0.219743924,-0.306931424,1,0,0,2.467,submitButton,10.58479532,-0.439674479,-0.417109375,0,0,0,0,33,33,35,1,51,69610,blockT,180,2022-02-20_21h26.33.132,orientation adjustment block,2021.2.3,MacIntel,60.0024001,,,,,,,
,,,,,,,,,,,,,,,,,,,,,,21.11111111,67,20,75,47.11111111,19.88888889,19.88888889,0.471063368,-0.331384549,1,0,0,1.1004,submitButton,11.05,-0.47609809,-0.406128472,0,0,0,0,34,34,51,1,67,69610,blockT,180,2022-02-20_21h26.33.132,orientation adjustment block,2021.2.3,MacIntel,60.0024001,,,,,,,
,,,,,,,,,,,,,,,,,,,,,,38.88888889,48,20,75,56.88888889,8.888888889,8.888888889,0.391627604,-0.307387153,1,0,0,0.4335,submitButton,10.94708995,-0.430907118,-0.375954861,0,0,0,0,35,35,32,1,48,69610,blockT,180,2022-02-20_21h26.33.132,orientation adjustment block,2021.2.3,MacIntel,60.0024001,,,,,,,
,,,,,,,,,,,,,,,,,,,,,,-28.33333333,-70,20,75,-76.33333333,6.333333333,6.333333333,0.187174479,-0.319027778,1,0,0,0.1829,submitButton,10.73737374,-0.421063368,-0.396892361,0,0,0,0,36,36,54,1,70,69610,blockT,180,2022-02-20_21h26.33.132,orientation adjustment block,2021.2.3,MacIntel,60.0024001,,,,,,,
,,,,,,,,,,,,,,,,,,,,,,58.88888889,-44,20,75,-50.11111111,6.111111111,6.111111111,0.385876736,-0.29984809,1,0,0,0.1334,submitButton,10.53623188,-0.242265625,-0.391753472,0,0,0,0,37,37,28,1,44,69610,blockT,180,2022-02-20_21h26.33.132,orientation adjustment block,2021.2.3,MacIntel,60.0024001,,,,,,,
,,,,,,,,,,,,,,,,,,,,,,-67.77777778,36,20,75,-129.7777778,14.22222222,14.22222222,0.340750868,-0.306805556,1,0,0,2.2016,submitButton,10.68981481,-0.659596354,-0.412057292,0,0,0,0,38,38,20,1,36,69610,blockT,180,2022-02-20_21h26.33.132,orientation adjustment block,2021.2.3,MacIntel,60.0024001,,,,,,,
,,,,,,,,,,,,,,,,,,,,,,43.88888889,61,20,75,55.88888889,5.111111111,5.111111111,0.430112847,-0.290186632,1,0,0,0.4829,submitButton,10.46666667,-0.485386285,-0.410711806,0,0,0,0,39,39,45,1,61,69610,blockT,180,2022-02-20_21h26.33.132,orientation adjustment block,2021.2.3,MacIntel,60.0024001,,,,,,,
,,,,,,,,,,,,,,,,,,,,,,-65,55,20,75,49,6,6,0.180811632,-0.324661458,1,0,0,1.3833,submitButton,10.29487179,-0.398867187,-0.4209375,0,0,0,0,40,40,39,1,55,69610,blockT,180,2022-02-20_21h26.33.132,orientation adjustment block,2021.2.3,MacIntel,60.0024001,,,,,,,
,,,,,,,,,,,,,,,,,,,,,,-51.11111111,20,20,75,20.88888889,0.888888889,0.888888889,0.175034722,-0.321358507,1,0,0,1.0168,submitButton,9.946502058,-0.460190972,-0.399900174,0,0,0,0,41,41,4,1,20,69610,blockT,180,2022-02-20_21h26.33.132,orientation adjustment block,2021.2.3,MacIntel,60.0024001,,,,,,,
,,,,,,,,,,,,,,,,,,,,,,66.11111111,43,20,75,217.1111111,5.888888889,5.888888889,-0.402309028,-0.409835069,1,0,0,2.2664,submitButton,9.801587302,-0.402864583,-0.409835069,0,0,0,0,42,42,27,1,43,69610,blockT,180,2022-02-20_21h26.33.132,orientation adjustment block,2021.2.3,MacIntel,60.0024001,,,,,,,
,,,,,,,,,,,,,,,,,,,,,,50,-40,20,75,-38,2,2,-0.404700521,-0.400681424,1,0,0,1.1661,submitButton,9.53256705,-0.404700521,-0.400681424,0,0,0,0,43,43,24,1,40,69610,blockT,180,2022-02-20_21h26.33.132,orientation adjustment block,2021.2.3,MacIntel,60.0024001,,,,,,,
,,,,,,,,,,,,,,,,,,,,,,24.44444444,-32,20,75,-47.55555556,15.55555556,15.55555556,0.380069444,-0.293602431,1,0,0,0.4506,submitButton,9.733333333,0.303185764,-0.407951389,1,0,1,0,44,44,16,1,32,69610,blockT,180,2022-02-20_21h26.33.132,orientation adjustment block,2021.2.3,MacIntel,60.0024001,continueButton,,,,,,
,,,,,,,,,,,,,,,,,,,,,,44.44444444,-50,20,75,-31.55555556,18.44444444,18.44444444,-0.093888889,-0.375421007,1,0,1,5.9994,submitButton,10.01433692,-0.270954861,-0.39780816,0,0,1,0,45,45,34,1,50,69610,blockT,180,2022-02-20_21h26.33.132,orientation adjustment block,2021.2.3,MacIntel,60.0024001,,,,,,,
,,,,,,,,,,,,,,,,,,,,,,30.55555556,-29,20,75,-34.44444444,5.444444444,5.444444444,-0.318125,-0.43031684,1,0,1,5.4003,submitButton,9.871527778,-0.358177083,-0.3921875,0,0,1,0,46,46,13,1,29,69610,blockT,180,2022-02-20_21h26.33.132,orientation adjustment block,2021.2.3,MacIntel,60.0024001,,,,,,,
,,,,,,,,,,,,,,,,,,,,,,-24.44444444,-75,20,75,-64.44444444,10.55555556,10.55555556,-0.347960069,-0.395737847,1,0,1,2.4161,submitButton,9.892255892,-0.291961806,-0.379943576,0,0,1,0,47,47,59,1,75,69610,blockT,180,2022-02-20_21h26.33.132,orientation adjustment block,2021.2.3,MacIntel,60.0024001,,,,,,,
,,,,,,,,,,,,,,,,,,,,,,47.77777778,-41,20,75,-28.22222222,12.77777778,12.77777778,-0.242387153,-0.409618056,1,0,1,7.7176,submitButton,9.977124183,-0.242942708,-0.4090625,0,0,1,0,48,48,25,1,41,69610,blockT,180,2022-02-20_21h26.33.132,orientation adjustment block,2021.2.3,MacIntel,60.0024001,,,,,,,
,,,,,,,,,,,,,,,,,,,,,,40,56,20,75,49,7,7,-0.351514757,-0.384071181,1,0,1,6.0334,submitButton,9.892063492,-0.351514757,-0.382200521,0,0,1,0,49,49,40,1,56,69610,blockT,180,2022-02-20_21h26.33.132,orientation adjustment block,2021.2.3,MacIntel,60.0024001,,,,,,,
,,,,,,,,,,,,,,,,,,,,,,-47.22222222,54,20,75,50.77777778,3.222222222,3.222222222,-0.377838542,-0.399353299,1,0,1,2.5496,submitButton,9.706790123,-0.377582465,-0.399353299,0,0,1,0,50,50,38,1,54,69610,blockT,180,2022-02-20_21h26.33.132,orientation adjustment block,2021.2.3,MacIntel,60.0024001,,,,,,,
,,,,,,,,,,,,,,,,,,,,,,31.66666667,58,20,75,44.66666667,13.33333333,13.33333333,-0.366032986,-0.397803819,1,0,1,2.9158,submitButton,9.804804805,-0.366032986,-0.397803819,0,0,1,0,51,51,42,1,58,69610,blockT,180,2022-02-20_21h26.33.132,orientation adjustment block,2021.2.3,MacIntel,60.0024001,,,,,,,
,,,,,,,,,,,,,,,,,,,,,,48.33333333,38,20,75,12.33333333,25.66666667,25.66666667,-0.346197917,-0.426553819,1,0,1,5.917,submitButton,10.22222222,-0.344014757,-0.43328559,0,0,1,0,52,52,22,1,38,69610,blockT,180,2022-02-20_21h26.33.132,orientation adjustment block,2021.2.3,MacIntel,60.0024001,,,,,,,
,,,,,,,,,,,,,,,,,,,,,,-20,-46,20,75,-47,1,1,-0.114934896,-0.417842882,1,0,1,4.0332,submitButton,9.985754986,-0.115186632,-0.417703993,0,0,1,0,53,53,30,1,46,69610,blockT,180,2022-02-20_21h26.33.132,orientation adjustment block,2021.2.3,MacIntel,60.0024001,,,,,,,
,,,,,,,,,,,,,,,,,,,,,,-45,-24,20,75,-43,19,19,-0.149340278,-0.40109375,1,0,1,2.5654,submitButton,10.21111111,-0.149895833,-0.40109375,0,0,1,0,54,54,8,1,24,69610,blockT,180,2022-02-20_21h26.33.132,orientation adjustment block,2021.2.3,MacIntel,60.0024001,,,,,,,
,,,,,,,,,,,,,,,,,,,,,,-27.77777778,22,20,75,32.22222222,10.22222222,10.22222222,-0.375872396,-0.400646701,1,0,1,1.0669,submitButton,10.21138211,-0.375872396,-0.400646701,0,0,1,0,55,55,6,1,22,69610,blockT,180,2022-02-20_21h26.33.132,orientation adjustment block,2021.2.3,MacIntel,60.0024001,,,,,,,
,,,,,,,,,,,,,,,,,,,,,,-66.66666667,-30,20,75,-210.6666667,0.666666667,0.666666667,-0.302734375,-0.405095486,1,0,1,5.6503,submitButton,9.984126984,-0.302734375,-0.405095486,0,0,1,0,56,56,14,1,30,69610,blockT,180,2022-02-20_21h26.33.132,orientation adjustment block,2021.2.3,MacIntel,60.0024001,,,,,,,
,,,,,,,,,,,,,,,,,,,,,,-39.44444444,-18,20,75,-34.44444444,16.44444444,16.44444444,-0.374761285,-0.381054687,1,0,1,0.8159,submitButton,10.13436693,-0.375360243,-0.381054687,0,0,1,0,57,57,2,1,18,69610,blockT,180,2022-02-20_21h26.33.132,orientation adjustment block,2021.2.3,MacIntel,60.0024001,,,,,,,
,,,,,,,,,,,,,,,,,,,,,,55.55555556,60,20,75,67.55555556,7.555555556,7.555555556,-0.372977431,-0.413702257,1,0,1,5.0652,submitButton,10.07575758,-0.372977431,-0.414474826,0,0,1,0,58,58,44,1,60,69610,blockT,180,2022-02-20_21h26.33.132,orientation adjustment block,2021.2.3,MacIntel,60.0024001,,,,,,,
,,,,,,,,,,,,,,,,,,,,,,40,62,20,75,62,0,0,-0.461480035,-0.407113715,1,0,1,6.1159,submitButton,9.851851852,0.312039931,-0.420924479,1,0,1,0,59,59,46,1,62,69610,blockT,180,2022-02-20_21h26.33.132,orientation adjustment block,2021.2.3,MacIntel,60.0024001,continueButton,,,,,,
,,,,,,,,,,,,,,,,,,,,,,70.55555556,24,20,75,104.5555556,80.55555556,80.55555556,-0.327473958,-0.415329861,1,0,1,7.35,submitButton,11.38888889,-0.329140625,-0.41421875,0,0,1,1,0,60,8,1,24,69610,blockT,180,2022-02-20_21h26.33.132,orientation adjustment block,2021.2.3,MacIntel,60.0024001,,,,,,,
,,,,,,,,,,,,,,,,,,,,,,34.44444444,-17,20,75,-15.55555556,1.444444444,1.444444444,-0.342296007,-0.400542535,1,0,1,2.5997,submitButton,11.17730496,-0.342851562,-0.399431424,0,0,1,1,1,61,1,1,17,69610,blockT,180,2022-02-20_21h26.33.132,orientation adjustment block,2021.2.3,MacIntel,60.0024001,,,,,,,
,,,,,,,,,,,,,,,,,,,,,,42.22222222,-70,20,75,-69.77777778,0.222222222,0.222222222,-0.431835937,-0.380329861,1,0,1,4.4173,submitButton,10.94907407,-0.431835937,-0.380329861,0,0,1,1,2,62,54,1,70,69610,blockT,180,2022-02-20_21h26.33.132,orientation adjustment block,2021.2.3,MacIntel,60.0024001,,,,,,,
,,,,,,,,,,,,,,,,,,,,,,71.66666667,37,20,75,207.6666667,9.333333333,9.333333333,-0.44672309,-0.391271701,1,0,1,2.8151,submitButton,10.91609977,-0.44672309,-0.391271701,0,0,1,1,3,63,21,1,37,69610,blockT,180,2022-02-20_21h26.33.132,orientation adjustment block,2021.2.3,MacIntel,60.0024001,,,,,,,
,,,,,,,,,,,,,,,,,,,,,,43.33333333,-74,20,75,-70.66666667,3.333333333,3.333333333,-0.333763021,-0.39327691,1,0,1,2.3663,submitButton,10.76444444,-0.333763021,-0.39327691,0,0,1,1,4,64,58,1,74,69610,blockT,180,2022-02-20_21h26.33.132,orientation adjustment block,2021.2.3,MacIntel,60.0024001,,,,,,,
,,,,,,,,,,,,,,,,,,,,,,-73.33333333,-58,20,75,-245.3333333,7.333333333,7.333333333,-0.381345486,-0.413242188,1,0,1,4.6489,submitButton,10.69716776,-0.381345486,-0.413242188,0,0,1,1,5,65,42,1,58,69610,blockT,180,2022-02-20_21h26.33.132,orientation adjustment block,2021.2.3,MacIntel,60.0024001,,,,,,,
,,,,,,,,,,,,,,,,,,,,,,-67.77777778,59,20,75,43.22222222,15.77777778,15.77777778,-0.474084201,-0.395590278,1,0,1,2.4333,submitButton,10.79487179,-0.474084201,-0.395590278,0,0,1,1,6,66,43,1,59,69610,blockT,180,2022-02-20_21h26.33.132,orientation adjustment block,2021.2.3,MacIntel,60.0024001,,,,,,,
,,,,,,,,,,,,,,,,,,,,,,32.77777778,72,20,75,247.7777778,4.222222222,4.222222222,-0.227921007,-0.396050347,1,0,1,5.3669,submitButton,10.67085954,-0.227921007,-0.396050347,0,0,1,1,7,67,56,1,72,69610,blockT,180,2022-02-20_21h26.33.132,orientation adjustment block,2021.2.3,MacIntel,60.0024001,,,,,,,
,,,,,,,,,,,,,,,,,,,,,,61.11111111,-28,20,75,-37.88888889,9.888888889,9.888888889,-0.320733507,-0.40203125,1,0,1,3.1491,submitButton,10.6563786,-0.320733507,-0.40203125,0,0,1,1,8,68,12,1,28,69610,blockT,180,2022-02-20_21h26.33.132,orientation adjustment block,2021.2.3,MacIntel,60.0024001,,,,,,,
,,,,,,,,,,,,,,,,,,,,,,-23.33333333,19,20,75,20.66666667,1.666666667,1.666666667,-0.350828993,-0.411614583,1,0,1,1.1988,submitButton,10.49292929,-0.350828993,-0.412170139,0,0,1,1,9,69,3,1,19,69610,blockT,180,2022-02-20_21h26.33.132,orientation adjustment block,2021.2.3,MacIntel,60.0024001,,,,,,,
,,,,,,,,,,,,,,,,,,,,,,22.22222222,-39,20,75,-38.77777778,0.222222222,0.222222222,-0.354548611,-0.39328559,1,0,1,2.1002,submitButton,10.30952381,-0.354548611,-0.39328559,0,0,1,1,10,70,23,1,39,69610,blockT,180,2022-02-20_21h26.33.132,orientation adjustment block,2021.2.3,MacIntel,60.0024001,,,,,,,
,,,,,,,,,,,,,,,,,,,,,,49.44444444,-67,20,75,-63.55555556,3.444444444,3.444444444,-0.388897569,-0.402473958,1,0,1,2.7996,submitButton,10.18908382,-0.388897569,-0.402473958,0,0,1,1,11,71,51,1,67,69610,blockT,180,2022-02-20_21h26.33.132,orientation adjustment block,2021.2.3,MacIntel,60.0024001,,,,,,,
,,,,,,,,,,,,,,,,,,,,,,-53.33333333,32,20,75,38.66666667,6.666666667,6.666666667,-0.368845486,-0.375225694,1,0,1,1.7013,submitButton,10.12835249,-0.368845486,-0.375225694,0,0,1,1,12,72,16,1,32,69610,blockT,180,2022-02-20_21h26.33.132,orientation adjustment block,2021.2.3,MacIntel,60.0024001,,,,,,,
,,,,,,,,,,,,,,,,,,,,,,-26.66666667,75,20,75,63.33333333,11.66666667,11.66666667,-0.340230035,-0.380438368,1,0,1,1.7497,submitButton,10.15442561,-0.340230035,-0.380438368,0,0,1,1,13,73,59,1,75,69610,blockT,180,2022-02-20_21h26.33.132,orientation adjustment block,2021.2.3,MacIntel,60.0024001,,,,,,,
,,,,,,,,,,,,,,,,,,,,,,35.55555556,-18,20,75,-33.44444444,15.44444444,15.44444444,-0.381705729,-0.434231771,1,0,1,1.6322,submitButton,10.24259259,0.386506076,-0.406072049,1,0,1,1,14,74,2,1,18,69610,blockT,180,2022-02-20_21h26.33.132,orientation adjustment block,2021.2.3,MacIntel,60.0024001,continueButton,,,,,,
,,,,,,,,,,,,,,,,,,,,,,-62.77777778,-45,20,75,-54.77777778,9.777777778,9.777777778,-0.377400174,-0.38625,1,0,1,4.3496,submitButton,10.23497268,-0.377400174,-0.38625,0,0,1,1,15,75,29,1,45,69610,blockT,180,2022-02-20_21h26.33.132,orientation adjustment block,2021.2.3,MacIntel,60.0024001,,,,,,,
,,,,,,,,,,,,,,,,,,,,,,-45,30,20,75,33,3,3,-0.279670139,-0.392552083,1,0,1,3.7992,submitButton,10.11827957,-0.279670139,-0.392552083,0,0,1,1,16,76,14,1,30,69610,blockT,180,2022-02-20_21h26.33.132,orientation adjustment block,2021.2.3,MacIntel,60.0024001,,,,,,,
,,,,,,,,,,,,,,,,,,,,,,-43.88888889,-57,20,75,-63.88888889,6.888888889,6.888888889,-0.261280382,-0.405828993,1,0,1,3.7827,submitButton,10.0670194,-0.261280382,-0.405828993,0,0,1,1,17,77,41,1,57,69610,blockT,180,2022-02-20_21h26.33.132,orientation adjustment block,2021.2.3,MacIntel,60.0024001,,,,,,,
,,,,,,,,,,,,,,,,,,,,,,-49.44444444,35,20,75,41.55555556,6.555555556,6.555555556,-0.36765625,-0.370021701,1,0,1,2.8502,submitButton,10.01215278,-0.389444444,-0.408350694,0,0,1,1,18,78,19,1,35,69610,blockT,180,2022-02-20_21h26.33.132,orientation adjustment block,2021.2.3,MacIntel,60.0024001,,,,,,,
,,,,,,,,,,,,,,,,,,,,,,-20,44,20,75,36,8,8,-0.446762153,-0.395572917,1,0,1,1.2822,submitButton,9.981196581,-0.446762153,-0.395572917,0,0,1,1,19,79,28,1,44,69610,blockT,180,2022-02-20_21h26.33.132,orientation adjustment block,2021.2.3,MacIntel,60.0024001,,,,,,,
,,,,,,,,,,,,,,,,,,,,,,-48.33333333,62,20,75,53.66666667,8.333333333,8.333333333,-0.33797309,-0.377907986,1,0,1,2.0835,submitButton,9.956228956,-0.33797309,-0.377907986,0,0,1,1,20,80,46,1,62,69610,blockT,180,2022-02-20_21h26.33.132,orientation adjustment block,2021.2.3,MacIntel,60.0024001,,,,,,,
,,,,,,,,,,,,,,,,,,,,,,59.44444444,52,20,75,47.44444444,4.555555556,4.555555556,-0.199570313,-0.407981771,1,0,1,4.0164,submitButton,9.875621891,-0.199570313,-0.407981771,0,0,1,1,21,81,36,1,52,69610,blockT,180,2022-02-20_21h26.33.132,orientation adjustment block,2021.2.3,MacIntel,60.0024001,,,,,,,
,,,,,,,,,,,,,,,,,,,,,,63.88888889,-40,20,75,-42.11111111,2.111111111,2.111111111,-0.357065972,-0.421636285,1,0,1,2.2845,submitButton,9.761437908,-0.357065972,-0.421636285,0,0,1,1,22,82,24,1,40,69610,blockT,180,2022-02-20_21h26.33.132,orientation adjustment block,2021.2.3,MacIntel,60.0024001,,,,,,,
,,,,,,,,,,,,,,,,,,,,,,26.66666667,63,20,75,53.66666667,9.333333333,9.333333333,-0.426649306,-0.397543403,1,0,1,2.733,submitButton,9.755233494,-0.426649306,-0.397543403,0,0,1,1,23,83,47,1,63,69610,blockT,180,2022-02-20_21h26.33.132,orientation adjustment block,2021.2.3,MacIntel,60.0024001,,,,,,,
,,,,,,,,,,,,,,,,,,,,,,-44.44444444,-54,20,75,-51.44444444,2.555555556,2.555555556,-0.317838542,-0.409210069,1,0,1,2.7507,submitButton,9.652380952,-0.317838542,-0.409210069,0,0,1,1,24,84,38,1,54,69610,blockT,180,2022-02-20_21h26.33.132,orientation adjustment block,2021.2.3,MacIntel,60.0024001,,,,,,,
,,,,,,,,,,,,,,,,,,,,,,49.44444444,69,20,75,53.44444444,15.55555556,15.55555556,-0.285707465,-0.413446181,1,0,1,2.7675,submitButton,9.735524257,-0.285707465,-0.413446181,0,0,1,1,25,85,53,1,69,69610,blockT,180,2022-02-20_21h26.33.132,orientation adjustment block,2021.2.3,MacIntel,60.0024001,,,,,,,
,,,,,,,,,,,,,,,,,,,,,,-22.22222222,29,20,75,18.77777778,10.22222222,10.22222222,-0.337821181,-0.394487847,1,0,1,2.6498,submitButton,9.742283951,-0.337821181,-0.394487847,0,0,1,1,26,86,13,1,29,69610,blockT,180,2022-02-20_21h26.33.132,orientation adjustment block,2021.2.3,MacIntel,60.0024001,,,,,,,
,,,,,,,,,,,,,,,,,,,,,,-61.66666667,43,20,75,39.33333333,3.666666667,3.666666667,-0.35655816,-0.378489583,1,0,1,1.5166,submitButton,9.659056317,-0.35655816,-0.378489583,0,0,1,1,27,87,27,1,43,69610,blockT,180,2022-02-20_21h26.33.132,orientation adjustment block,2021.2.3,MacIntel,60.0024001,,,,,,,
,,,,,,,,,,,,,,,,,,,,,,-29.44444444,64,20,75,26.55555556,37.44444444,37.44444444,-0.241306424,-0.38078559,1,0,1,2.1503,submitButton,10.03453453,-0.241306424,-0.38078559,0,0,1,1,28,88,48,1,64,69610,blockT,180,2022-02-20_21h26.33.132,orientation adjustment block,2021.2.3,MacIntel,60.0024001,,,,,,,
,,,,,,,,,,,,,,,,,,,,,,-31.11111111,-22,20,75,-25.11111111,3.111111111,3.111111111,-0.323684896,-0.412604167,1,0,1,1.2659,submitButton,9.942222222,0.289748264,-0.39266059,1,0,1,1,29,89,6,1,22,69610,blockT,180,2022-02-20_21h26.33.132,orientation adjustment block,2021.2.3,MacIntel,60.0024001,continueButton,,,,,,
,,,,,,,,,,,,,,,,,,,,,,-43.88888889,31,20,75,32.11111111,1.111111111,1.111111111,-0.297282986,-0.418472222,1,0,1,1.233,submitButton,9.826023392,-0.297282986,-0.418472222,0,0,1,1,30,90,15,1,31,69610,blockT,180,2022-02-20_21h26.33.132,orientation adjustment block,2021.2.3,MacIntel,60.0024001,,,,,,,
,,,,,,,,,,,,,,,,,,,,,,40.55555556,-42,20,75,-26.44444444,15.55555556,15.55555556,-0.342916667,-0.408059896,1,0,1,1.3499,submitButton,9.9004329,-0.342916667,-0.408059896,0,0,1,1,31,91,26,1,42,69610,blockT,180,2022-02-20_21h26.33.132,orientation adjustment block,2021.2.3,MacIntel,60.0024001,,,,,,,
,,,,,,,,,,,,,,,,,,,,,,-26.11111111,-25,20,75,-30.11111111,5.111111111,5.111111111,-0.389891493,-0.374353299,1,0,1,0.8327,submitButton,9.839031339,-0.389891493,-0.374353299,0,0,1,1,32,92,9,1,25,69610,blockT,180,2022-02-20_21h26.33.132,orientation adjustment block,2021.2.3,MacIntel,60.0024001,,,,,,,
,,,,,,,,,,,,,,,,,,,,,,-45,-21,20,75,-24,3,3,-0.368680556,-0.395889757,1,0,1,1.284,submitButton,9.752461322,-0.368680556,-0.395889757,0,0,1,1,33,93,5,1,21,69610,blockT,180,2022-02-20_21h26.33.132,orientation adjustment block,2021.2.3,MacIntel,60.0024001,,,,,,,
,,,,,,,,,,,,,,,,,,,,,,64.44444444,-34,20,75,-32.55555556,1.444444444,1.444444444,-0.317282986,-0.389726562,1,0,1,4.9323,submitButton,9.648611111,-0.317282986,-0.389726562,0,0,1,1,34,94,18,1,34,69610,blockT,180,2022-02-20_21h26.33.132,orientation adjustment block,2021.2.3,MacIntel,60.0024001,,,,,,,
,,,,,,,,,,,,,,,,,,,,,,31.66666667,-60,20,75,-35.33333333,24.66666667,24.66666667,-0.277165799,-0.365247396,1,0,1,5.6829,submitButton,9.834019204,-0.335668403,-0.40499566,0,0,1,1,35,95,44,1,60,69610,blockT,180,2022-02-20_21h26.33.132,orientation adjustment block,2021.2.3,MacIntel,60.0024001,,,,,,,
,,,,,,,,,,,,,,,,,,,,,,66.66666667,51,20,75,56.66666667,5.666666667,5.666666667,-0.407087674,-0.400555556,1,0,1,3.2163,submitButton,9.783197832,-0.407087674,-0.400555556,0,0,1,1,36,96,35,1,51,69610,blockT,180,2022-02-20_21h26.33.132,orientation adjustment block,2021.2.3,MacIntel,60.0024001,,,,,,,
,,,,,,,,,,,,,,,,,,,,,,22.22222222,-53,20,75,-56.77777778,3.777777778,3.777777778,-0.397638889,-0.418572049,1,0,1,2.1327,submitButton,9.710843373,-0.397638889,-0.418572049,0,0,1,1,37,97,37,1,53,69610,blockT,180,2022-02-20_21h26.33.132,orientation adjustment block,2021.2.3,MacIntel,60.0024001,,,,,,,
,,,,,,,,,,,,,,,,,,,,,,47.77777778,68,20,75,61.77777778,6.222222222,6.222222222,-0.457903646,-0.412226563,1,0,1,2.4829,submitButton,9.669312169,-0.457903646,-0.412226563,0,0,1,1,38,98,52,1,68,69610,blockT,180,2022-02-20_21h26.33.132,orientation adjustment block,2021.2.3,MacIntel,60.0024001,,,,,,,
,,,,,,,,,,,,,,,,,,,,,,-45.55555556,73,20,75,55.44444444,17.55555556,17.55555556,-0.491354167,-0.393940972,1,0,1,1.966,submitButton,9.762091503,-0.491354167,-0.393940972,0,0,1,1,39,99,57,1,73,69610,blockT,180,2022-02-20_21h26.33.132,orientation adjustment block,2021.2.3,MacIntel,60.0024001,,,,,,,
,,,,,,,,,,,,,,,,,,,,,,48.88888889,-20,20,75,-24.11111111,4.111111111,4.111111111,-0.492074653,-0.366961806,1,0,1,3.6157,submitButton,9.696382429,-0.480112847,-0.404869792,0,0,1,1,40,100,4,1,20,69610,blockT,180,2022-02-20_21h26.33.132,orientation adjustment block,2021.2.3,MacIntel,60.0024001,,,,,,,
,,,,,,,,,,,,,,,,,,,,,,-37.22222222,16,20,75,34.77777778,18.77777778,18.77777778,-0.428068576,-0.386866319,1,0,1,1.9326,submitButton,9.800766284,-0.428068576,-0.386866319,0,0,1,1,41,101,0,1,16,69610,blockT,180,2022-02-20_21h26.33.132,orientation adjustment block,2021.2.3,MacIntel,60.0024001,,,,,,,
,,,,,,,,,,,,,,,,,,,,,,61.11111111,-33,20,75,-28.88888889,4.111111111,4.111111111,-0.387903646,-0.39516059,1,0,1,2.0825,submitButton,9.736111111,-0.387903646,-0.39516059,0,0,1,1,42,102,17,1,33,69610,blockT,180,2022-02-20_21h26.33.132,orientation adjustment block,2021.2.3,MacIntel,60.0024001,,,,,,,
,,,,,,,,,,,,,,,,,,,,,,24.44444444,38,20,75,36.44444444,1.555555556,1.555555556,-0.363962674,-0.392604167,1,0,1,1.933,submitButton,9.644194757,-0.363962674,-0.392604167,0,0,1,1,43,103,22,1,38,69610,blockT,180,2022-02-20_21h26.33.132,orientation adjustment block,2021.2.3,MacIntel,60.0024001,,,,,,,
,,,,,,,,,,,,,,,,,,,,,,59.44444444,26,20,75,25.44444444,0.555555556,0.555555556,-0.368628472,-0.416840278,1,0,1,3.1334,submitButton,9.543209877,0.37577691,-0.393836806,1,0,1,1,44,104,10,1,26,69610,blockT,180,2022-02-20_21h26.33.132,orientation adjustment block,2021.2.3,MacIntel,60.0024001,continueButton,,,,,,
,,,,,,,,,,,,,,,,,,,,,,-49.44444444,-49,20,75,-23.44444444,25.55555556,25.55555556,-0.279813368,-0.41390191,1,0,1,3.2987,submitButton,9.719169719,-0.275047743,-0.411215278,0,0,1,1,45,105,33,1,49,69610,blockT,180,2022-02-20_21h26.33.132,orientation adjustment block,2021.2.3,MacIntel,60.0024001,,,,,,,
,,,,,,,,,,,,,,,,,,,,,,-53.33333333,50,20,75,62.66666667,12.66666667,12.66666667,-0.407443576,-0.410381944,1,0,1,2.0509,submitButton,9.751207729,-0.407443576,-0.410381944,0,0,1,1,46,106,34,1,50,69610,blockT,180,2022-02-20_21h26.33.132,orientation adjustment block,2021.2.3,MacIntel,60.0024001,,,,,,,
,,,,,,,,,,,,,,,,,,,,,,28.33333333,-46,20,75,-64.66666667,18.66666667,18.66666667,-0.409635417,-0.418619792,1,0,1,1.5664,submitButton,9.847072879,-0.409635417,-0.418619792,0,0,1,1,47,107,30,1,46,69610,blockT,180,2022-02-20_21h26.33.132,orientation adjustment block,2021.2.3,MacIntel,60.0024001,,,,,,,
,,,,,,,,,,,,,,,,,,,,,,49.44444444,-23,20,75,-47.55555556,24.55555556,24.55555556,-0.358645833,-0.395134549,1,0,1,2.6496,submitButton,10.0035461,-0.358645833,-0.395134549,0,0,1,1,48,108,7,1,23,69610,blockT,180,2022-02-20_21h26.33.132,orientation adjustment block,2021.2.3,MacIntel,60.0024001,,,,,,,
,,,,,,,,,,,,,,,,,,,,,,-57.77777778,47,20,75,67.22222222,20.22222222,20.22222222,-0.337873264,-0.396627604,1,0,1,2.9499,submitButton,10.11111111,-0.337873264,-0.396627604,0,0,1,1,49,109,31,1,47,69610,blockT,180,2022-02-20_21h26.33.132,orientation adjustment block,2021.2.3,MacIntel,60.0024001,,,,,,,
,,,,,,,,,,,,,,,,,,,,,,68.88888889,55,20,75,54.88888889,0.111111111,0.111111111,-0.447734375,-0.381345486,1,0,1,2.2995,submitButton,10.00694444,-0.447734375,-0.381345486,0,0,1,1,50,110,39,1,55,69610,blockT,180,2022-02-20_21h26.33.132,orientation adjustment block,2021.2.3,MacIntel,60.0024001,,,,,,,
,,,,,,,,,,,,,,,,,,,,,,37.77777778,56,20,75,58.77777778,2.777777778,2.777777778,-0.358684896,-0.390447049,1,0,1,2.1339,submitButton,9.932416953,-0.358684896,-0.390447049,0,0,1,1,51,111,40,1,56,69610,blockT,180,2022-02-20_21h26.33.132,orientation adjustment block,2021.2.3,MacIntel,60.0024001,,,,,,,
,,,,,,,,,,,,,,,,,,,,,,-66.11111111,-48,20,75,-68.11111111,20.11111111,20.11111111,-0.354071181,-0.418771701,1,0,1,1.3,submitButton,10.03628118,-0.354071181,-0.418771701,0,0,1,1,52,112,32,1,48,69610,blockT,180,2022-02-20_21h26.33.132,orientation adjustment block,2021.2.3,MacIntel,60.0024001,,,,,,,
,,,,,,,,,,,,,,,,,,,,,,57.77777778,36,20,75,55.77777778,19.77777778,19.77777778,-0.271080729,-0.380737847,1,0,1,2.2832,submitButton,10.13468013,-0.271080729,-0.380737847,0,0,1,1,53,113,20,1,36,69610,blockT,180,2022-02-20_21h26.33.132,orientation adjustment block,2021.2.3,MacIntel,60.0024001,,,,,,,
,,,,,,,,,,,,,,,,,,,,,,-36.11111111,-27,20,75,-32.11111111,5.111111111,5.111111111,-0.37499566,-0.393042535,1,0,1,0.6667,submitButton,10.08444444,-0.37499566,-0.393042535,0,0,1,1,54,114,11,1,27,69610,blockT,180,2022-02-20_21h26.33.132,orientation adjustment block,2021.2.3,MacIntel,60.0024001,,,,,,,
,,,,,,,,,,,,,,,,,,,,,,52.77777778,65,20,75,59.77777778,5.222222222,5.222222222,-0.409960938,-0.419448785,1,0,1,1.6005,submitButton,10.03630363,-0.409960938,-0.419448785,0,0,1,1,55,115,49,1,65,69610,blockT,180,2022-02-20_21h26.33.132,orientation adjustment block,2021.2.3,MacIntel,60.0024001,,,,,,,
,,,,,,,,,,,,,,,,,,,,,,32.22222222,71,20,75,70.22222222,0.777777778,0.777777778,-0.319192708,-0.412612847,1,0,1,3.2166,submitButton,9.945533769,-0.319192708,-0.412612847,0,0,1,1,56,116,55,1,71,69610,blockT,180,2022-02-20_21h26.33.132,orientation adjustment block,2021.2.3,MacIntel,60.0024001,,,,,,,
,,,,,,,,,,,,,,,,,,,,,,-46.66666667,66,20,75,58.33333333,7.666666667,7.666666667,-0.29125434,-0.408346354,1,0,1,2.9335,submitButton,9.923408846,-0.29125434,-0.408346354,0,0,1,1,57,117,50,1,66,69610,blockT,180,2022-02-20_21h26.33.132,orientation adjustment block,2021.2.3,MacIntel,60.0024001,,,,,,,
,,,,,,,,,,,,,,,,,,,,,,33.33333333,61,20,75,66.33333333,5.333333333,5.333333333,-0.440407986,-0.372608507,1,0,1,1.7155,submitButton,9.879273504,-0.440407986,-0.372608507,0,0,1,1,58,118,45,1,61,69610,blockT,180,2022-02-20_21h26.33.132,orientation adjustment block,2021.2.3,MacIntel,60.0024001,,,,,,,
,,,,,,,,,,,,,,,,,,,,,,-57.77777778,-41,20,75,-44.77777778,3.777777778,3.777777778,-0.303038194,-0.422070312,1,0,1,1.5819,submitButton,9.821164021,0.331840278,-0.392634549,1,0,1,1,59,119,25,1,41,69610,blockT,180,2022-02-20_21h26.33.132,orientation adjustment block,2021.2.3,MacIntel,60.0024001,continueButton,,,,,,
,,,,,,,,,,,,,,,,,,,,,,-25.55555556,61,20,75,50.44444444,10.55555556,10.55555556,-0.294717882,-0.384756944,1,0,1,2.7329,submitButton,9.828092243,-0.294717882,-0.384756944,0,0,1,2,0,120,45,1,61,69610,blockT,180,2022-02-20_21h26.33.132,orientation adjustment block,2021.2.3,MacIntel,60.0024001,,,,,,,
,,,,,,,,,,,,,,,,,,,,,,31.11111111,-36,20,75,-47.88888889,11.88888889,11.88888889,-0.298975694,-0.417235243,1,0,1,3.367,submitButton,9.847352025,-0.298975694,-0.417235243,0,0,1,2,1,121,20,1,36,69610,blockT,180,2022-02-20_21h26.33.132,orientation adjustment block,2021.2.3,MacIntel,60.0024001,,,,,,,
,,,,,,,,,,,,,,,,,,,,,,75,-65,20,75,-35,30,30,-0.374422743,-0.418450521,1,0,1,1.2837,submitButton,10.03395062,-0.374422743,-0.418450521,0,0,1,2,2,122,49,1,65,69610,blockT,180,2022-02-20_21h26.33.132,orientation adjustment block,2021.2.3,MacIntel,60.0024001,,,,,,,
,,,,,,,,,,,,,,,,,,,,,,38.88888889,17,20,75,24.88888889,7.888888889,7.888888889,-0.387235243,-0.418237847,1,0,1,3.0835,submitButton,10.01427115,-0.387235243,-0.417938368,0,0,1,2,3,123,1,1,17,69610,blockT,180,2022-02-20_21h26.33.132,orientation adjustment block,2021.2.3,MacIntel,60.0024001,,,,,,,
,,,,,,,,,,,,,,,,,,,,,,47.77777778,-49,20,75,-49.22222222,0.222222222,0.222222222,-0.442756076,-0.384479167,1,0,1,1.4664,submitButton,9.925252525,-0.442756076,-0.384479167,0,0,1,2,4,124,33,1,49,69610,blockT,180,2022-02-20_21h26.33.132,orientation adjustment block,2021.2.3,MacIntel,60.0024001,,,,,,,
,,,,,,,,,,,,,,,,,,,,,,-71.66666667,37,20,75,50.33333333,13.33333333,13.33333333,-0.417213542,-0.408207465,1,0,1,2.0157,submitButton,9.955955956,-0.417213542,-0.408207465,0,0,1,2,5,125,21,1,37,69610,blockT,180,2022-02-20_21h26.33.132,orientation adjustment block,2021.2.3,MacIntel,60.0024001,,,,,,,
,,,,,,,,,,,,,,,,,,,,,,-50,-22,20,75,-19,3,3,-0.432374132,-0.424826389,1,0,1,1.666,submitButton,9.893849206,-0.432374132,-0.424826389,0,0,1,2,6,126,6,1,22,69610,blockT,180,2022-02-20_21h26.33.132,orientation adjustment block,2021.2.3,MacIntel,60.0024001,,,,,,,
,,,,,,,,,,,,,,,,,,,,,,41.66666667,55,20,75,38.66666667,16.33333333,16.33333333,-0.284500868,-0.411592882,1,0,1,2.9002,submitButton,9.950835792,-0.285056424,-0.411037326,0,0,1,2,7,127,39,1,55,69610,blockT,180,2022-02-20_21h26.33.132,orientation adjustment block,2021.2.3,MacIntel,60.0024001,,,,,,,
,,,,,,,,,,,,,,,,,,,,,,47.22222222,29,20,75,26.22222222,2.777777778,2.777777778,-0.371684028,-0.389865451,1,0,1,1.884,submitButton,9.88791423,-0.371684028,-0.389865451,0,0,1,2,8,128,13,1,29,69610,blockT,180,2022-02-20_21h26.33.132,orientation adjustment block,2021.2.3,MacIntel,60.0024001,,,,,,,
,,,,,,,,,,,,,,,,,,,,,,42.22222222,-74,20,75,-55.77777778,18.22222222,18.22222222,-0.442322049,-0.402712674,1,0,1,2.0158,submitButton,9.960386473,-0.442322049,-0.402712674,0,0,1,2,9,129,58,1,74,69610,blockT,180,2022-02-20_21h26.33.132,orientation adjustment block,2021.2.3,MacIntel,60.0024001,,,,,,,
,,,,,,,,,,,,,,,,,,,,,,-23.33333333,62,20,75,133.6666667,71.66666667,71.66666667,-0.350668403,-0.401085069,1,0,1,3.232,submitButton,10.49233716,-0.350668403,-0.400529514,0,0,1,2,10,130,46,1,62,69610,blockT,180,2022-02-20_21h26.33.132,orientation adjustment block,2021.2.3,MacIntel,60.0024001,,,,,,,
,,,,,,,,,,,,,,,,,,,,,,-51.66666667,38,20,75,46.33333333,8.333333333,8.333333333,-0.462786458,-0.396666667,1,0,1,1.9322,submitButton,10.47388414,-0.462786458,-0.396666667,0,0,1,2,11,131,22,1,38,69610,blockT,180,2022-02-20_21h26.33.132,orientation adjustment block,2021.2.3,MacIntel,60.0024001,,,,,,,
,,,,,,,,,,,,,,,,,,,,,,66.66666667,19,20,75,22.66666667,3.666666667,3.666666667,-0.530282118,-0.387912326,1,0,1,2.1501,submitButton,10.41619586,-0.530282118,-0.388467882,0,0,1,2,12,132,3,1,19,69610,blockT,180,2022-02-20_21h26.33.132,orientation adjustment block,2021.2.3,MacIntel,60.0024001,,,,,,,
,,,,,,,,,,,,,,,,,,,,,,57.22222222,-28,20,75,-32.77777778,4.777777778,4.777777778,-0.443064236,-0.406957465,1,0,1,1.1828,submitButton,10.36881419,-0.443064236,-0.406957465,0,0,1,2,13,133,12,1,28,69610,blockT,180,2022-02-20_21h26.33.132,orientation adjustment block,2021.2.3,MacIntel,60.0024001,,,,,,,
,,,,,,,,,,,,,,,,,,,,,,71.66666667,66,20,75,267.6666667,21.66666667,21.66666667,-0.407799479,-0.399171007,1,0,1,2.6664,submitButton,10.46296296,0.359960938,-0.393346354,1,0,1,2,14,134,50,1,66,69610,blockT,180,2022-02-20_21h26.33.132,orientation adjustment block,2021.2.3,MacIntel,60.0024001,continueButton,,,,,,
,,,,,,,,,,,,,,,,,,,,,,-67.22222222,-26,20,75,-26.22222222,0.222222222,0.222222222,-0.146957465,-0.385143229,1,0,1,2.4494,submitButton,10.37832874,-0.147513021,-0.385698785,0,0,1,2,15,135,10,1,26,69610,blockT,180,2022-02-20_21h26.33.132,orientation adjustment block,2021.2.3,MacIntel,60.0024001,,,,,,,
,,,,,,,,,,,,,,,,,,,,,,63.33333333,-30,20,75,-35.66666667,5.666666667,5.666666667,-0.271610243,-0.420859375,1,0,1,2.1839,submitButton,10.33970856,-0.271610243,-0.421414931,0,0,1,2,16,136,14,1,30,69610,blockT,180,2022-02-20_21h26.33.132,orientation adjustment block,2021.2.3,MacIntel,60.0024001,,,,,,,
,,,,,,,,,,,,,,,,,,,,,,74.44444444,63,20,75,57.44444444,5.555555556,5.555555556,-0.310251736,-0.387395833,1,0,1,1.983,submitButton,10.30081301,-0.310295139,-0.387131076,0,0,1,2,17,137,47,1,63,69610,blockT,180,2022-02-20_21h26.33.132,orientation adjustment block,2021.2.3,MacIntel,60.0024001,,,,,,,
,,,,,,,,,,,,,,,,,,,,,,62.77777778,23,20,75,28.77777778,5.777777778,5.777777778,-0.448567708,-0.434205729,1,0,1,1.2663,submitButton,10.26433692,-0.412256944,-0.390164931,0,0,1,2,18,138,7,1,23,69610,blockT,180,2022-02-20_21h26.33.132,orientation adjustment block,2021.2.3,MacIntel,60.0024001,,,,,,,
,,,,,,,,,,,,,,,,,,,,,,66.66666667,-64,20,75,124.6666667,8.666666667,8.666666667,-0.427960069,-0.410928819,1,0,1,2.4163,submitButton,10.25155556,-0.428515625,-0.410373264,0,0,1,2,19,139,48,1,64,69610,blockT,180,2022-02-20_21h26.33.132,orientation adjustment block,2021.2.3,MacIntel,60.0024001,,,,,,,
,,,,,,,,,,,,,,,,,,,,,,-61.66666667,-18,20,75,-31.66666667,13.66666667,13.66666667,-0.405607639,-0.391484375,1,0,1,1.8499,submitButton,10.27865961,-0.405607639,-0.391484375,0,0,1,2,20,140,2,1,18,69610,blockT,180,2022-02-20_21h26.33.132,orientation adjustment block,2021.2.3,MacIntel,60.0024001,,,,,,,
,,,,,,,,,,,,,,,,,,,,,,49.44444444,54,20,75,39.44444444,14.55555556,14.55555556,-0.435503472,-0.358967014,1,0,1,2.1166,submitButton,10.31233596,-0.431328125,-0.398828125,0,0,1,2,21,141,38,1,54,69610,blockT,180,2022-02-20_21h26.33.132,orientation adjustment block,2021.2.3,MacIntel,60.0024001,,,,,,,
,,,,,,,,,,,,,,,,,,,,,,-65,34,20,75,-142,4,4,-0.339192708,-0.42187066,1,0,1,2.3836,submitButton,10.26302083,-0.339748264,-0.42187066,0,0,1,2,22,142,18,1,34,69610,blockT,180,2022-02-20_21h26.33.132,orientation adjustment block,2021.2.3,MacIntel,60.0024001,,,,,,,
,,,,,,,,,,,,,,,,,,,,,,57.77777778,-44,20,75,135.7777778,0.222222222,0.222222222,-0.413103299,-0.418194444,1,0,1,3.0169,submitButton,10.18518519,-0.413103299,-0.417638889,0,0,1,2,23,143,28,1,44,69610,blockT,180,2022-02-20_21h26.33.132,orientation adjustment block,2021.2.3,MacIntel,60.0024001,,,,,,,
,,,,,,,,,,,,,,,,,,,,,,-61.11111111,69,20,75,52.88888889,16.11111111,16.11111111,-0.357777778,-0.397330729,1,0,1,1.4508,submitButton,10.23076923,-0.357777778,-0.397886285,0,0,1,2,24,144,53,1,69,69610,blockT,180,2022-02-20_21h26.33.132,orientation adjustment block,2021.2.3,MacIntel,60.0024001,,,,,,,
,,,,,,,,,,,,,,,,,,,,,,45.55555556,-24,20,75,-36.44444444,12.44444444,12.44444444,-0.351115451,-0.404704861,1,0,1,1.5833,submitButton,10.24766751,-0.351671007,-0.404704861,0,0,1,2,25,145,8,1,24,69610,blockT,180,2022-02-20_21h26.33.132,orientation adjustment block,2021.2.3,MacIntel,60.0024001,,,,,,,
,,,,,,,,,,,,,,,,,,,,,,31.11111111,-57,20,75,-44.88888889,12.11111111,12.11111111,-0.406332465,-0.379574653,1,0,1,1.4002,submitButton,10.26178451,-0.171028646,-0.204184028,0,0,1,2,26,146,41,1,57,69610,blockT,180,2022-02-20_21h26.33.132,orientation adjustment block,2021.2.3,MacIntel,60.0024001,,,,,,,
,,,,,,,,,,,,,,,,,,,,,,-56.66666667,-60,20,75,-44.66666667,15.33333333,15.33333333,-0.260716146,-0.370668403,1,0,1,2.6992,submitButton,10.29991646,-0.305868056,-0.418841146,0,0,1,2,27,147,44,1,60,69610,blockT,180,2022-02-20_21h26.33.132,orientation adjustment block,2021.2.3,MacIntel,60.0024001,,,,,,,
,,,,,,,,,,,,,,,,,,,,,,38.33333333,71,20,75,53.33333333,17.66666667,17.66666667,-0.297886285,-0.386453993,1,0,1,1.4994,submitButton,10.35489221,-0.297886285,-0.387009549,0,0,1,2,28,148,55,1,71,69610,blockT,180,2022-02-20_21h26.33.132,orientation adjustment block,2021.2.3,MacIntel,60.0024001,,,,,,,
,,,,,,,,,,,,,,,,,,,,,,-58.88888889,58,20,75,54.11111111,3.888888889,3.888888889,-0.319791667,-0.382829861,1,0,1,1.6324,submitButton,10.30699588,0.544913194,-0.400434028,1,0,1,2,29,149,42,1,58,69610,blockT,180,2022-02-20_21h26.33.132,orientation adjustment block,2021.2.3,MacIntel,60.0024001,continueButton,,,,,,
,,,,,,,,,,,,,,,,,,,,,,51.66666667,20,20,75,45.66666667,25.66666667,25.66666667,-0.193190104,-0.401835938,1,0,1,0.8169,submitButton,10.41993464,-0.193190104,-0.402947049,0,0,1,2,30,150,4,1,20,69610,blockT,180,2022-02-20_21h26.33.132,orientation adjustment block,2021.2.3,MacIntel,60.0024001,,,,,,,
,,,,,,,,,,,,,,,,,,,,,,43.33333333,70,20,75,63.33333333,6.666666667,6.666666667,-0.320412326,-0.397109375,1,0,1,1.7167,submitButton,10.39253852,-0.320412326,-0.397664931,0,0,1,2,31,151,54,1,70,69610,blockT,180,2022-02-20_21h26.33.132,orientation adjustment block,2021.2.3,MacIntel,60.0024001,,,,,,,
,,,,,,,,,,,,,,,,,,,,,,-25,47,20,75,42,5,5,-0.392152778,-0.399500868,1,0,1,5.6998,submitButton,10.35346216,-0.392152778,-0.400056424,0,0,1,2,32,152,31,1,47,69610,blockT,180,2022-02-20_21h26.33.132,orientation adjustment block,2021.2.3,MacIntel,60.0024001,,,,,,,
,,,,,,,,,,,,,,,,,,,,,,-30.55555556,32,20,75,40.44444444,8.444444444,8.444444444,-0.293736979,-0.411692708,1,0,1,1.0333,submitButton,10.33972822,-0.289418403,-0.40031684,0,0,1,2,33,153,16,1,32,69610,blockT,180,2022-02-20_21h26.33.132,orientation adjustment block,2021.2.3,MacIntel,60.0024001,,,,,,,
,,,,,,,,,,,,,,,,,,,,,,27.22222222,-16,20,75,-25.77777778,9.777777778,9.777777778,-0.372048611,-0.43953125,1,0,1,1.4831,submitButton,10.33571429,-0.355234375,-0.417139757,0,0,1,2,34,154,0,1,16,69610,blockT,180,2022-02-20_21h26.33.132,orientation adjustment block,2021.2.3,MacIntel,60.0024001,,,,,,,
,,,,,,,,,,,,,,,,,,,,,,-52.77777778,-52,20,75,-63.77777778,11.77777778,11.77777778,-0.439036458,-0.420421007,1,0,1,1.9668,submitButton,10.34594169,-0.439036458,-0.418710937,0,0,1,2,35,155,36,1,52,69610,blockT,180,2022-02-20_21h26.33.132,orientation adjustment block,2021.2.3,MacIntel,60.0024001,,,,,,,
,,,,,,,,,,,,,,,,,,,,,,56.66666667,25,20,75,41.66666667,16.66666667,16.66666667,-0.439804688,-0.372096354,1,0,1,4.35,submitButton,10.39045383,-0.439804688,-0.372096354,0,0,1,2,36,156,9,1,25,69610,blockT,180,2022-02-20_21h26.33.132,orientation adjustment block,2021.2.3,MacIntel,60.0024001,,,,,,,
,,,,,,,,,,,,,,,,,,,,,,-21.66666667,-27,20,75,-24.66666667,2.333333333,2.333333333,-0.478224826,-0.3953125,1,0,1,0.6842,submitButton,10.33411033,-0.478224826,-0.395868056,0,0,1,2,37,157,11,1,27,69610,blockT,180,2022-02-20_21h26.33.132,orientation adjustment block,2021.2.3,MacIntel,60.0024001,,,,,,,
,,,,,,,,,,,,,,,,,,,,,,-35,-73,20,75,-60,13,13,-0.394956597,-0.394622396,1,0,1,1.8156,submitButton,10.35262346,-0.394956597,-0.393511285,0,0,1,2,38,158,57,1,73,69610,blockT,180,2022-02-20_21h26.33.132,orientation adjustment block,2021.2.3,MacIntel,60.0024001,,,,,,,
,,,,,,,,,,,,,,,,,,,,,,24.44444444,45,20,75,39.44444444,5.555555556,5.555555556,-0.461644965,-0.37484809,1,0,1,1.1161,submitButton,10.31954023,-0.46108941,-0.375403646,0,0,1,2,39,159,29,1,45,69610,blockT,180,2022-02-20_21h26.33.132,orientation adjustment block,2021.2.3,MacIntel,60.0024001,,,,,,,
,,,,,,,,,,,,,,,,,,,,,,42.22222222,-51,20,75,42.22222222,86.77777778,86.77777778,-0.350985243,-0.403485243,1,0,1,1.2669,submitButton,10.84322679,-0.352096354,-0.403485243,0,0,1,2,40,160,35,1,51,69610,blockT,180,2022-02-20_21h26.33.132,orientation adjustment block,2021.2.3,MacIntel,60.0024001,,,,,,,
,,,,,,,,,,,,,,,,,,,,,,-43.88888889,59,20,75,35.11111111,23.88888889,23.88888889,-0.32562934,-0.389796007,1,0,1,1.7331,submitButton,10.93197279,-0.32562934,-0.389240451,0,0,1,2,41,161,43,1,59,69610,blockT,180,2022-02-20_21h26.33.132,orientation adjustment block,2021.2.3,MacIntel,60.0024001,,,,,,,
,,,,,,,,,,,,,,,,,,,,,,72.22222222,-53,20,75,-54.77777778,1.777777778,1.777777778,-0.364244792,-0.391132812,1,0,1,1.7322,submitButton,10.87012012,-0.363133681,-0.391688368,0,0,1,2,42,162,37,1,53,69610,blockT,180,2022-02-20_21h26.33.132,orientation adjustment block,2021.2.3,MacIntel,60.0024001,,,,,,,
,,,,,,,,,,,,,,,,,,,,,,-68.88888889,-43,20,75,-42.88888889,0.111111111,0.111111111,-0.338741319,-0.416896701,1,0,1,1.7666,submitButton,10.79791201,-0.339296875,-0.416341146,0,0,1,2,43,163,27,1,43,69610,blockT,180,2022-02-20_21h26.33.132,orientation adjustment block,2021.2.3,MacIntel,60.0024001,,,,,,,
,,,,,,,,,,,,,,,,,,,,,,42.77777778,56,20,75,61.77777778,5.777777778,5.777777778,-0.357365451,-0.414761285,1,0,1,2.0834,submitButton,10.76444444,0.247222222,-0.406150174,1,0,1,2,44,164,40,1,56,69610,blockT,180,2022-02-20_21h26.33.132,orientation adjustment block,2021.2.3,MacIntel,60.0024001,continueButton,,,,,,
,,,,,,,,,,,,,,,,,,,,,,-40.55555556,-72,20,75,-66.55555556,5.444444444,5.444444444,-0.327426215,-0.41296875,1,0,1,2.5505,submitButton,10.72921266,-0.327426215,-0.41296875,0,0,1,2,45,165,56,1,72,69610,blockT,180,2022-02-20_21h26.33.132,orientation adjustment block,2021.2.3,MacIntel,60.0024001,,,,,,,
,,,,,,,,,,,,,,,,,,,,,,-63.33333333,40,20,75,-148.3333333,8.333333333,8.333333333,-0.267382813,-0.43858941,1,0,1,4.8827,submitButton,10.71345029,-0.300399306,-0.404587674,0,0,1,2,46,166,24,1,40,69610,blockT,180,2022-02-20_21h26.33.132,orientation adjustment block,2021.2.3,MacIntel,60.0024001,,,,,,,
,,,,,,,,,,,,,,,,,,,,,,23.88888889,-67,20,75,-60.11111111,6.888888889,6.888888889,-0.213645833,-0.408051215,1,0,1,1.5331,submitButton,10.68845316,-0.213645833,-0.408051215,0,0,1,2,47,167,51,1,67,69610,blockT,180,2022-02-20_21h26.33.132,orientation adjustment block,2021.2.3,MacIntel,60.0024001,,,,,,,
,,,,,,,,,,,,,,,,,,,,,,29.44444444,-31,20,75,-32.55555556,1.555555556,1.555555556,-0.324926215,-0.418220486,1,0,1,1.2003,submitButton,10.62914863,-0.325481771,-0.417109375,0,0,1,2,48,168,15,1,31,69610,blockT,180,2022-02-20_21h26.33.132,orientation adjustment block,2021.2.3,MacIntel,60.0024001,,,,,,,
,,,,,,,,,,,,,,,,,,,,,,70,68,20,75,65,3,3,-0.162912326,-0.408311632,1,0,1,4.7845,submitButton,10.57992832,-0.164023438,-0.407200521,0,0,1,2,49,169,52,1,68,69610,blockT,180,2022-02-20_21h26.33.132,orientation adjustment block,2021.2.3,MacIntel,60.0024001,,,,,,,
,,,,,,,,,,,,,,,,,,,,,,-36.66666667,75,20,75,80.33333333,5.333333333,5.333333333,-0.288259549,-0.384162326,1,0,1,1.1487,submitButton,10.5462963,-0.257530382,-0.380329861,0,0,1,2,50,170,59,1,75,69610,blockT,180,2022-02-20_21h26.33.132,orientation adjustment block,2021.2.3,MacIntel,60.0024001,,,,,,,
,,,,,,,,,,,,,,,,,,,,,,-67.22222222,-41,20,75,-24.22222222,16.77777778,16.77777778,-0.25391059,-0.409765625,1,0,1,3.1166,submitButton,10.58598726,-0.25391059,-0.409765625,0,0,1,2,51,171,25,1,41,69610,blockT,180,2022-02-20_21h26.33.132,orientation adjustment block,2021.2.3,MacIntel,60.0024001,,,,,,,
,,,,,,,,,,,,,,,,,,,,,,28.88888889,42,20,75,43.88888889,1.888888889,1.888888889,-0.370928819,-0.381037326,1,0,1,1.2001,submitButton,10.53094233,-0.371484375,-0.380481771,0,0,1,2,52,172,26,1,42,69610,blockT,180,2022-02-20_21h26.33.132,orientation adjustment block,2021.2.3,MacIntel,60.0024001,,,,,,,
,,,,,,,,,,,,,,,,,,,,,,41.66666667,-21,20,75,-29.33333333,8.333333333,8.333333333,-0.367148437,-0.395039062,1,0,1,1.7496,submitButton,10.51712089,-0.367148437,-0.395039062,0,0,1,2,53,173,5,1,21,69610,blockT,180,2022-02-20_21h26.33.132,orientation adjustment block,2021.2.3,MacIntel,60.0024001,,,,,,,
,,,,,,,,,,,,,,,,,,,,,,61.11111111,48,20,75,48.11111111,0.111111111,0.111111111,-0.392721354,-0.380494792,1,0,1,2.1993,submitButton,10.45208333,-0.392721354,-0.380494792,0,0,1,2,54,174,32,1,48,69610,blockT,180,2022-02-20_21h26.33.132,orientation adjustment block,2021.2.3,MacIntel,60.0024001,,,,,,,
,,,,,,,,,,,,,,,,,,,,,,70,50,20,75,51,1,1,-0.368459201,-0.389210069,1,0,1,2.2994,submitButton,10.39337474,-0.368459201,-0.389210069,0,0,1,2,55,175,34,1,50,69610,blockT,180,2022-02-20_21h26.33.132,orientation adjustment block,2021.2.3,MacIntel,60.0024001,,,,,,,
,,,,,,,,,,,,,,,,,,,,,,26.11111111,-35,20,75,-38.88888889,3.888888889,3.888888889,-0.321684028,-0.386914062,1,0,1,1.5991,submitButton,10.35322359,-0.324418403,-0.367473958,0,0,1,2,56,176,19,1,35,69610,blockT,180,2022-02-20_21h26.33.132,orientation adjustment block,2021.2.3,MacIntel,60.0024001,,,,,,,
,,,,,,,,,,,,,,,,,,,,,,22.77777778,33,20,75,48.77777778,15.77777778,15.77777778,-0.302517361,-0.411601563,1,0,1,1.6335,submitButton,10.38650307,-0.302517361,-0.412157118,0,0,1,2,57,177,17,1,33,69610,blockT,180,2022-02-20_21h26.33.132,orientation adjustment block,2021.2.3,MacIntel,60.0024001,,,,,,,
,,,,,,,,,,,,,,,,,,,,,,57.77777778,46,20,75,49.77777778,3.777777778,3.777777778,-0.297890625,-0.401901042,1,0,1,3.3334,submitButton,10.34620596,-0.297890625,-0.400789931,0,0,1,2,58,178,30,1,46,69610,blockT,180,2022-02-20_21h26.33.132,orientation adjustment block,2021.2.3,MacIntel,60.0024001,,,,,,,
,,,,,,,,,,,,,,,,,,,,,,33.88888889,39,20,75,42.88888889,3.888888889,3.888888889,-0.400217014,-0.404548611,1,0,1,1.6502,submitButton,10.30707071,-0.400217014,-0.404548611,0,0,1,2,59,179,23,1,39,69610,blockT,180,2022-02-20_21h26.33.132,orientation adjustment block,2021.2.3,MacIntel,60.0024001,,,,,,,
,,,,,,,,,,,,,,,,,,,,,,,,,,,,,,,,,,,,,,,,,,,,,,,,69610,blockT,180,2022-02-20_21h26.33.132,orientation adjustment block,2021.2.3,MacIntel,60.0024001,,0.258185764,-0.387157118,1,0,1,EndButtonTxt
