consentMouse1.x,consentMouse1.y,consentMouse1.leftButton,consentMouse1.midButton,consentMouse1.rightButton,consentMouse1.clicked_name,consent_Mouse.x,consent_Mouse.y,consent_Mouse.leftButton,consent_Mouse.midButton,consent_Mouse.rightButton,consent_Mouse.clicked_name,startMouse.x,startMouse.y,startMouse.leftButton,startMouse.midButton,startMouse.rightButton,startMouse_2.x,startMouse_2.y,startMouse_2.leftButton,startMouse_2.midButton,startMouse_2.rightButton,start_distance,fixedOri,minimalDistance,maxOri,this_ori,accuracy,presented_accuracy,submitMouse.x,submitMouse.y,submitMouse.leftButton,submitMouse.midButton,submitMouse.rightButton,submitMouse.time,submitMouse.clicked_name,block_accuracy,continueMouse.x,continueMouse.y,continueMouse.leftButton,continueMouse.midButton,continueMouse.rightButton,trials.thisRepN,trials.thisTrialN,trials.thisN,trials.thisIndex,trials.ran,startOri,participant,condition,nTrials,date,expName,psychopyVersion,OS,frameRate,continueMouse.clicked_name,EndButtonMouse.x,EndButtonMouse.y,EndButtonMouse.leftButton,EndButtonMouse.midButton,EndButtonMouse.rightButton,EndButtonMouse.clicked_name
0.295555556,-0.395555556,1,0,0,consent_button1,0.363333333,-0.391111111,1,0,0,consent_button,0.243333333,-0.271111111,1,0,0,0.136666667,-0.375555556,1,0,0,-70,-72,20,75,-181,71,71,0.375555556,-0.292222222,1,0,0,1.432,submitButton,71,-0.217777778,-0.387777778,0,0,0,0,0,0,56,1,72,69622,blockT,180,2022-02-16_13h13.54.730,orientation adjustment block,2021.2.3,MacIntel,58.82352941,,,,,,,
,,,,,,,,,,,,,,,,,,,,,,-37.77777778,40,20,75,-17.77777778,57.77777778,57.77777778,0.388888889,-0.306666667,1,0,0,1.4,submitButton,64.38888889,-0.113333333,-0.401111111,0,0,0,0,1,1,24,1,40,69622,blockT,180,2022-02-16_13h13.54.730,orientation adjustment block,2021.2.3,MacIntel,58.82352941,,,,,,,
,,,,,,,,,,,,,,,,,,,,,,67.77777778,69,20,75,232.7777778,16.22222222,16.22222222,0.196666667,-0.294444444,1,0,0,0.133,submitButton,48.33333333,-0.19,-0.416666667,0,0,0,0,2,2,53,1,69,69622,blockT,180,2022-02-16_13h13.54.730,orientation adjustment block,2021.2.3,MacIntel,58.82352941,,,,,,,
,,,,,,,,,,,,,,,,,,,,,,-66.11111111,63,20,75,38.88888889,24.11111111,24.11111111,-0.27,-0.391111111,1,0,0,1.367,submitButton,24.11111111,-0.27,-0.391111111,0,0,0,0,3,3,47,1,63,69622,blockT,180,2022-02-16_13h13.54.730,orientation adjustment block,2021.2.3,MacIntel,58.82352941,,,,,,,
,,,,,,,,,,,,,,,,,,,,,,51.11111111,26,20,75,201.1111111,4.888888889,4.888888889,0.181111111,-0.314444444,1,0,0,0.434,submitButton,14.5,-0.158888889,-0.413333333,0,0,0,0,4,4,10,1,26,69622,blockT,180,2022-02-16_13h13.54.730,orientation adjustment block,2021.2.3,MacIntel,58.82352941,,,,,,,
,,,,,,,,,,,,,,,,,,,,,,23.88888889,-37,20,75,-22.11111111,14.88888889,14.88888889,0.423333333,-0.276666667,1,0,0,0.051,submitButton,14.62962963,-0.163333333,-0.408888889,0,0,0,0,5,5,21,1,37,69622,blockT,180,2022-02-16_13h13.54.730,orientation adjustment block,2021.2.3,MacIntel,58.82352941,,,,,,,
,,,,,,,,,,,,,,,,,,,,,,-55,-67,20,75,-249,2,2,0.396666667,-0.292222222,1,0,0,0.901,submitButton,2,-0.217777778,-0.422222222,0,0,0,0,6,6,51,1,67,69622,blockT,180,2022-02-16_13h13.54.730,orientation adjustment block,2021.2.3,MacIntel,58.82352941,,,,,,,
,,,,,,,,,,,,,,,,,,,,,,-28.88888889,-47,20,75,-44.88888889,2.111111111,2.111111111,0.23,-0.303333333,1,0,0,0.133,submitButton,2.055555556,-0.174444444,-0.381111111,0,0,0,0,7,7,31,1,47,69622,blockT,180,2022-02-16_13h13.54.730,orientation adjustment block,2021.2.3,MacIntel,58.82352941,,,,,,,
,,,,,,,,,,,,,,,,,,,,,,55,27,20,75,215,8,8,0.204444444,-0.292222222,1,0,0,1.733,submitButton,4.037037037,-0.228888889,-0.403333333,0,0,0,0,8,8,11,1,27,69622,blockT,180,2022-02-16_13h13.54.730,orientation adjustment block,2021.2.3,MacIntel,58.82352941,,,,,,,
,,,,,,,,,,,,,,,,,,,,,,-51.11111111,-49,20,75,-229.1111111,0.111111111,0.111111111,0.4,-0.288888889,1,0,0,0.25,submitButton,0.111111111,-0.236666667,-0.381111111,0,0,0,0,9,9,33,1,49,69622,blockT,180,2022-02-16_13h13.54.730,orientation adjustment block,2021.2.3,MacIntel,58.82352941,,,,,,,
,,,,,,,,,,,,,,,,,,,,,,-64.44444444,45,20,75,29.55555556,15.44444444,15.44444444,-0.302222222,-0.395555556,1,0,0,1,submitButton,7.777777778,-0.302222222,-0.395555556,0,0,0,0,10,10,29,1,45,69622,blockT,180,2022-02-16_13h13.54.730,orientation adjustment block,2021.2.3,MacIntel,58.82352941,,,,,,,
,,,,,,,,,,,,,,,,,,,,,,20.55555556,22,20,75,41.55555556,19.55555556,19.55555556,0.471111111,-0.298888889,1,0,0,0.349,submitButton,11.7037037,-0.121111111,-0.377777778,0,0,0,0,11,11,6,1,22,69622,blockT,180,2022-02-16_13h13.54.730,orientation adjustment block,2021.2.3,MacIntel,58.82352941,,,,,,,
,,,,,,,,,,,,,,,,,,,,,,47.22222222,-34,20,75,-36.77777778,2.777777778,2.777777778,0.404444444,-0.286666667,1,0,0,0.134,submitButton,2.777777778,-0.283333333,-0.405555556,0,0,0,0,12,12,18,1,34,69622,blockT,180,2022-02-16_13h13.54.730,orientation adjustment block,2021.2.3,MacIntel,58.82352941,,,,,,,
,,,,,,,,,,,,,,,,,,,,,,-52.22222222,60,20,75,62.77777778,2.777777778,2.777777778,-0.331111111,-0.432222222,1,0,0,1.317,submitButton,2.777777778,-0.315555556,-0.382222222,0,0,0,0,13,13,44,1,60,69622,blockT,180,2022-02-16_13h13.54.730,orientation adjustment block,2021.2.3,MacIntel,58.82352941,,,,,,,
,,,,,,,,,,,,,,,,,,,,,,-71.66666667,61,20,75,64.33333333,3.333333333,3.333333333,0.174444444,-0.311111111,1,0,0,1.434,submitButton,2.962962963,0.322222222,-0.386666667,1,0,0,0,14,14,45,1,61,69622,blockT,180,2022-02-16_13h13.54.730,orientation adjustment block,2021.2.3,MacIntel,58.82352941,continueButton,,,,,,
,,,,,,,,,,,,,,,,,,,,,,-28.33333333,42,20,75,52.66666667,10.66666667,10.66666667,0.196666667,-0.298888889,1,0,0,0.084,submitButton,10.66666667,-0.231111111,-0.416666667,0,0,0,0,15,15,26,1,42,69622,blockT,180,2022-02-16_13h13.54.730,orientation adjustment block,2021.2.3,MacIntel,58.82352941,,,,,,,
,,,,,,,,,,,,,,,,,,,,,,26.11111111,-68,20,75,46.11111111,65.88888889,65.88888889,0.215555556,-0.28,1,0,0,8.4,submitButton,38.27777778,-0.26,-0.4,0,0,0,0,16,16,52,1,68,69622,blockT,180,2022-02-16_13h13.54.730,orientation adjustment block,2021.2.3,MacIntel,58.82352941,,,,,,,
,,,,,,,,,,,,,,,,,,,,,,-71.66666667,59,20,75,70.33333333,11.33333333,11.33333333,-0.16,-0.386666667,1,0,0,1.951,submitButton,29.2962963,-0.16,-0.385555556,0,0,0,0,17,17,43,1,59,69622,blockT,180,2022-02-16_13h13.54.730,orientation adjustment block,2021.2.3,MacIntel,58.82352941,,,,,,,
,,,,,,,,,,,,,,,,,,,,,,-24.44444444,18,20,75,19.55555556,1.555555556,1.555555556,-0.262222222,-0.415555556,1,0,0,0.766,submitButton,22.36111111,-0.262222222,-0.415555556,0,0,0,0,18,18,2,1,18,69622,blockT,180,2022-02-16_13h13.54.730,orientation adjustment block,2021.2.3,MacIntel,58.82352941,,,,,,,
,,,,,,,,,,,,,,,,,,,,,,38.33333333,-30,20,75,-33.66666667,3.666666667,3.666666667,0.417777778,-0.284444444,1,0,0,1.45,submitButton,18.62222222,-0.274444444,-0.374444444,0,0,0,0,19,19,14,1,30,69622,blockT,180,2022-02-16_13h13.54.730,orientation adjustment block,2021.2.3,MacIntel,58.82352941,,,,,,,
,,,,,,,,,,,,,,,,,,,,,,-75,55,20,75,59,4,4,0.168888889,-0.3,1,0,0,0.85,submitButton,16.18518519,-0.248888889,-0.415555556,0,0,0,0,20,20,39,1,55,69622,blockT,180,2022-02-16_13h13.54.730,orientation adjustment block,2021.2.3,MacIntel,58.82352941,,,,,,,
,,,,,,,,,,,,,,,,,,,,,,-35.55555556,-66,20,75,-246.5555556,0.555555556,0.555555556,0.396666667,-0.283333333,1,0,0,1.916,submitButton,13.95238095,-0.125555556,-0.39,0,0,0,0,21,21,50,1,66,69622,blockT,180,2022-02-16_13h13.54.730,orientation adjustment block,2021.2.3,MacIntel,58.82352941,,,,,,,
,,,,,,,,,,,,,,,,,,,,,,53.33333333,-41,20,75,-25.66666667,15.33333333,15.33333333,0.4,-0.29,1,0,0,0.084,submitButton,14.125,-0.286666667,-0.402222222,0,0,0,0,22,22,25,1,41,69622,blockT,180,2022-02-16_13h13.54.730,orientation adjustment block,2021.2.3,MacIntel,58.82352941,,,,,,,
,,,,,,,,,,,,,,,,,,,,,,-73.88888889,28,20,75,43.11111111,15.11111111,15.11111111,-0.18,-0.414444444,1,0,0,1.266,submitButton,14.2345679,-0.18,-0.414444444,0,0,0,0,23,23,12,1,28,69622,blockT,180,2022-02-16_13h13.54.730,orientation adjustment block,2021.2.3,MacIntel,58.82352941,,,,,,,
,,,,,,,,,,,,,,,,,,,,,,66.11111111,-19,20,75,-20.88888889,1.888888889,1.888888889,-0.223333333,-0.41,1,0,0,1.15,submitButton,13,-0.223333333,-0.41,0,0,0,0,24,24,3,1,19,69622,blockT,180,2022-02-16_13h13.54.730,orientation adjustment block,2021.2.3,MacIntel,58.82352941,,,,,,,
,,,,,,,,,,,,,,,,,,,,,,56.66666667,-53,20,75,-66.33333333,13.33333333,13.33333333,0.427777778,-0.277777778,1,0,0,0.483,submitButton,13.03030303,-0.272222222,-0.425555556,0,0,0,0,25,25,37,1,53,69622,blockT,180,2022-02-16_13h13.54.730,orientation adjustment block,2021.2.3,MacIntel,58.82352941,,,,,,,
,,,,,,,,,,,,,,,,,,,,,,-42.22222222,64,20,75,62.77777778,1.222222222,1.222222222,-0.304444444,-0.41,1,0,0,0.817,submitButton,12.0462963,-0.305555556,-0.41,0,0,0,0,26,26,48,1,64,69622,blockT,180,2022-02-16_13h13.54.730,orientation adjustment block,2021.2.3,MacIntel,58.82352941,,,,,,,
,,,,,,,,,,,,,,,,,,,,,,-30.55555556,29,20,75,24.44444444,4.555555556,4.555555556,-0.196666667,-0.416666667,1,0,0,0.867,submitButton,11.47008547,-0.196666667,-0.416666667,0,0,0,0,27,27,13,1,29,69622,blockT,180,2022-02-16_13h13.54.730,orientation adjustment block,2021.2.3,MacIntel,58.82352941,,,,,,,
,,,,,,,,,,,,,,,,,,,,,,60.55555556,52,20,75,225.5555556,6.444444444,6.444444444,-0.228888889,-0.372222222,1,0,0,1.966,submitButton,11.11111111,-0.228888889,-0.372222222,0,0,0,0,28,28,36,1,52,69622,blockT,180,2022-02-16_13h13.54.730,orientation adjustment block,2021.2.3,MacIntel,58.82352941,,,,,,,
,,,,,,,,,,,,,,,,,,,,,,-20.55555556,35,20,75,37.44444444,2.444444444,2.444444444,-0.226666667,-0.415555556,1,0,0,0.617,submitButton,10.53333333,0.288888889,-0.408888889,1,0,0,0,29,29,19,1,35,69622,blockT,180,2022-02-16_13h13.54.730,orientation adjustment block,2021.2.3,MacIntel,58.82352941,continueButton,,,,,,
,,,,,,,,,,,,,,,,,,,,,,-50,-70,20,75,-240,10,10,0.377777778,-0.31,1,0,0,1.6,submitButton,10.5,-0.195555556,-0.391111111,0,0,0,0,30,30,54,1,70,69622,blockT,180,2022-02-16_13h13.54.730,orientation adjustment block,2021.2.3,MacIntel,58.82352941,,,,,,,
,,,,,,,,,,,,,,,,,,,,,,20,51,20,75,40,11,11,0.392222222,-0.29,1,0,0,0.151,submitButton,10.52941176,-0.115555556,-0.388888889,0,0,0,0,31,31,35,1,51,69622,blockT,180,2022-02-16_13h13.54.730,orientation adjustment block,2021.2.3,MacIntel,58.82352941,,,,,,,
,,,,,,,,,,,,,,,,,,,,,,-27.22222222,-62,20,75,-69.22222222,7.222222222,7.222222222,0.386666667,-0.317777778,1,0,0,0.05,submitButton,10.34567901,-0.204444444,-0.407777778,0,0,0,0,32,32,46,1,62,69622,blockT,180,2022-02-16_13h13.54.730,orientation adjustment block,2021.2.3,MacIntel,58.82352941,,,,,,,
,,,,,,,,,,,,,,,,,,,,,,53.88888889,-54,20,75,-35.11111111,18.88888889,18.88888889,0.38,-0.294444444,1,0,0,0.133,submitButton,10.79532164,-0.178888889,-0.416666667,0,0,0,0,33,33,38,1,54,69622,blockT,180,2022-02-16_13h13.54.730,orientation adjustment block,2021.2.3,MacIntel,58.82352941,,,,,,,
,,,,,,,,,,,,,,,,,,,,,,21.66666667,-74,20,75,-73.33333333,0.666666667,0.666666667,-0.244444444,-0.418888889,1,0,0,0.666,submitButton,10.28888889,-0.244444444,-0.418888889,0,0,0,0,34,34,58,1,74,69622,blockT,180,2022-02-16_13h13.54.730,orientation adjustment block,2021.2.3,MacIntel,58.82352941,,,,,,,
,,,,,,,,,,,,,,,,,,,,,,50,25,20,75,39,14,14,0.404444444,-0.291111111,1,0,0,0.25,submitButton,10.46560847,0.011111111,-0.305555556,0,0,0,0,35,35,9,1,25,69622,blockT,180,2022-02-16_13h13.54.730,orientation adjustment block,2021.2.3,MacIntel,58.82352941,,,,,,,
,,,,,,,,,,,,,,,,,,,,,,-68.88888889,65,20,75,74.11111111,9.111111111,9.111111111,0.18,-0.296666667,1,0,0,1.333,submitButton,10.4040404,-0.275555556,-0.416666667,0,0,0,0,36,36,49,1,65,69622,blockT,180,2022-02-16_13h13.54.730,orientation adjustment block,2021.2.3,MacIntel,58.82352941,,,,,,,
,,,,,,,,,,,,,,,,,,,,,,72.22222222,-48,20,75,-36.77777778,11.22222222,11.22222222,-0.187777778,-0.398888889,1,0,0,1.734,submitButton,10.43961353,-0.187777778,-0.398888889,0,0,0,0,37,37,32,1,48,69622,blockT,180,2022-02-16_13h13.54.730,orientation adjustment block,2021.2.3,MacIntel,58.82352941,,,,,,,
,,,,,,,,,,,,,,,,,,,,,,-51.11111111,16,20,75,37.88888889,21.88888889,21.88888889,0.195555556,-0.305555556,1,0,0,1.284,submitButton,10.91666667,-0.195555556,-0.395555556,0,0,0,0,38,38,0,1,16,69622,blockT,180,2022-02-16_13h13.54.730,orientation adjustment block,2021.2.3,MacIntel,58.82352941,,,,,,,
,,,,,,,,,,,,,,,,,,,,,,72.22222222,-43,20,75,-43.77777778,0.777777778,0.777777778,-0.184444444,-0.411111111,1,0,0,1.75,submitButton,10.51111111,-0.183333333,-0.411111111,0,0,0,0,39,39,27,1,43,69622,blockT,180,2022-02-16_13h13.54.730,orientation adjustment block,2021.2.3,MacIntel,58.82352941,,,,,,,
,,,,,,,,,,,,,,,,,,,,,,-63.33333333,-58,20,75,-232.3333333,5.666666667,5.666666667,-0.157777778,-0.384444444,1,0,0,2.517,submitButton,10.32478632,-0.157777778,-0.384444444,0,0,0,0,40,40,42,1,58,69622,blockT,180,2022-02-16_13h13.54.730,orientation adjustment block,2021.2.3,MacIntel,58.82352941,,,,,,,
,,,,,,,,,,,,,,,,,,,,,,36.66666667,-75,20,75,-65.33333333,9.666666667,9.666666667,-0.286666667,-0.425555556,1,0,0,0.834,submitButton,10.30041152,-0.285555556,-0.425555556,0,0,0,0,41,41,59,1,75,69622,blockT,180,2022-02-16_13h13.54.730,orientation adjustment block,2021.2.3,MacIntel,58.82352941,,,,,,,
,,,,,,,,,,,,,,,,,,,,,,-36.11111111,-57,20,75,-69.11111111,12.11111111,12.11111111,0.398888889,-0.298888889,1,0,0,0.234,submitButton,10.36507937,-0.304444444,-0.415555556,0,0,0,0,42,42,41,1,57,69622,blockT,180,2022-02-16_13h13.54.730,orientation adjustment block,2021.2.3,MacIntel,58.82352941,,,,,,,
,,,,,,,,,,,,,,,,,,,,,,-42.22222222,24,20,75,27.77777778,3.777777778,3.777777778,-0.294444444,-0.417777778,1,0,0,1.25,submitButton,10.13793103,-0.294444444,-0.417777778,0,0,0,0,43,43,8,1,24,69622,blockT,180,2022-02-16_13h13.54.730,orientation adjustment block,2021.2.3,MacIntel,58.82352941,,,,,,,
,,,,,,,,,,,,,,,,,,,,,,-62.22222222,-50,20,75,-45.22222222,4.777777778,4.777777778,0.187777778,-0.301111111,1,0,0,0.067,submitButton,9.959259259,0.316666667,-0.394444444,1,0,0,0,44,44,34,1,50,69622,blockT,180,2022-02-16_13h13.54.730,orientation adjustment block,2021.2.3,MacIntel,58.82352941,continueButton,,,,,,
,,,,,,,,,,,,,,,,,,,,,,-60,20,20,75,42,22,22,-0.214444444,-0.411111111,1,0,0,1.8,submitButton,10.34767025,-0.214444444,-0.411111111,0,0,0,0,45,45,4,1,20,69622,blockT,180,2022-02-16_13h13.54.730,orientation adjustment block,2021.2.3,MacIntel,58.82352941,,,,,,,
,,,,,,,,,,,,,,,,,,,,,,25,-38,20,75,-39,1,1,-0.133333333,-0.394444444,1,0,0,0.883,submitButton,10.05555556,-0.133333333,-0.394444444,0,0,0,0,46,46,22,1,38,69622,blockT,180,2022-02-16_13h13.54.730,orientation adjustment block,2021.2.3,MacIntel,58.82352941,,,,,,,
,,,,,,,,,,,,,,,,,,,,,,27.77777778,-23,20,75,-28.22222222,5.222222222,5.222222222,-0.232222222,-0.408888889,1,0,0,0.867,submitButton,9.909090909,-0.232222222,-0.408888889,0,0,0,0,47,47,7,1,23,69622,blockT,180,2022-02-16_13h13.54.730,orientation adjustment block,2021.2.3,MacIntel,58.82352941,,,,,,,
,,,,,,,,,,,,,,,,,,,,,,24.44444444,46,20,75,51.44444444,5.444444444,5.444444444,0.42,-0.298888889,1,0,0,0.15,submitButton,9.777777778,-0.154444444,-0.383333333,0,0,0,0,48,48,30,1,46,69622,blockT,180,2022-02-16_13h13.54.730,orientation adjustment block,2021.2.3,MacIntel,58.82352941,,,,,,,
,,,,,,,,,,,,,,,,,,,,,,-35,-32,20,75,-43,11,11,-0.27,-0.391111111,1,0,0,1.016,submitButton,9.812698413,-0.27,-0.391111111,0,0,0,0,49,49,16,1,32,69622,blockT,180,2022-02-16_13h13.54.730,orientation adjustment block,2021.2.3,MacIntel,58.82352941,,,,,,,
,,,,,,,,,,,,,,,,,,,,,,-31.66666667,-73,20,75,-68.66666667,4.333333333,4.333333333,0.208888889,-0.307777778,1,0,0,0.233,submitButton,9.660493827,-0.301111111,-0.401111111,0,0,0,0,50,50,57,1,73,69622,blockT,180,2022-02-16_13h13.54.730,orientation adjustment block,2021.2.3,MacIntel,58.82352941,,,,,,,
,,,,,,,,,,,,,,,,,,,,,,-62.77777778,56,20,75,34.22222222,21.77777778,21.77777778,0.185555556,-0.321111111,1,0,0,0.033,submitButton,9.987987988,-0.227777778,-0.41,0,0,0,0,51,51,40,1,56,69622,blockT,180,2022-02-16_13h13.54.730,orientation adjustment block,2021.2.3,MacIntel,58.82352941,,,,,,,
,,,,,,,,,,,,,,,,,,,,,,36.11111111,44,20,75,72.11111111,28.11111111,28.11111111,0.405555556,-0.291111111,1,0,0,0.767,submitButton,10.46491228,-0.194444444,-0.4,0,0,0,0,52,52,28,1,44,69622,blockT,180,2022-02-16_13h13.54.730,orientation adjustment block,2021.2.3,MacIntel,58.82352941,,,,,,,
,,,,,,,,,,,,,,,,,,,,,,-28.33333333,-33,20,75,-41.33333333,8.333333333,8.333333333,0.177777778,-0.303333333,1,0,0,0.133,submitButton,10.41025641,-0.318888889,-0.4,0,0,0,0,53,53,17,1,33,69622,blockT,180,2022-02-16_13h13.54.730,orientation adjustment block,2021.2.3,MacIntel,58.82352941,,,,,,,
,,,,,,,,,,,,,,,,,,,,,,48.33333333,-17,20,75,-12.66666667,4.333333333,4.333333333,-0.186666667,-0.404444444,1,0,0,1.383,submitButton,10.25833333,-0.185555556,-0.404444444,0,0,0,0,54,54,1,1,17,69622,blockT,180,2022-02-16_13h13.54.730,orientation adjustment block,2021.2.3,MacIntel,58.82352941,,,,,,,
,,,,,,,,,,,,,,,,,,,,,,68.33333333,-39,20,75,-46.66666667,7.666666667,7.666666667,0.423333333,-0.291111111,1,0,0,0.017,submitButton,10.19512195,-0.211111111,-0.415555556,0,0,0,0,55,55,23,1,39,69622,blockT,180,2022-02-16_13h13.54.730,orientation adjustment block,2021.2.3,MacIntel,58.82352941,,,,,,,
,,,,,,,,,,,,,,,,,,,,,,60.55555556,-31,20,75,-31.44444444,0.444444444,0.444444444,-0.225555556,-0.41,1,0,0,1.683,submitButton,9.962962963,-0.225555556,-0.41,0,0,0,0,56,56,15,1,31,69622,blockT,180,2022-02-16_13h13.54.730,orientation adjustment block,2021.2.3,MacIntel,58.82352941,,,,,,,
,,,,,,,,,,,,,,,,,,,,,,57.22222222,-36,20,75,-41.77777778,5.777777778,5.777777778,-0.166666667,-0.4,1,0,0,1.45,submitButton,9.865633075,-0.166666667,-0.4,0,0,0,0,57,57,20,1,36,69622,blockT,180,2022-02-16_13h13.54.730,orientation adjustment block,2021.2.3,MacIntel,58.82352941,,,,,,,
,,,,,,,,,,,,,,,,,,,,,,-54.44444444,-71,20,75,-85.44444444,14.44444444,14.44444444,0.221111111,-0.313333333,1,0,0,0.084,submitButton,9.96969697,-0.224444444,-0.401111111,0,0,0,0,58,58,55,1,71,69622,blockT,180,2022-02-16_13h13.54.730,orientation adjustment block,2021.2.3,MacIntel,58.82352941,,,,,,,
,,,,,,,,,,,,,,,,,,,,,,25,21,20,75,26,5,5,0.233333333,-0.318888889,1,0,0,0.267,submitButton,9.859259259,0.292222222,-0.388888889,1,0,0,0,59,59,5,1,21,69622,blockT,180,2022-02-16_13h13.54.730,orientation adjustment block,2021.2.3,MacIntel,58.82352941,continueButton,,,,,,
,,,,,,,,,,,,,,,,,,,,,,-35,69,20,75,72,3,3,-0.205555556,-0.391111111,1,0,0,0.967,submitButton,9.710144928,-0.205555556,-0.391111111,0,0,0,1,0,60,53,1,69,69622,blockT,180,2022-02-16_13h13.54.730,orientation adjustment block,2021.2.3,MacIntel,58.82352941,,,,,,,
,,,,,,,,,,,,,,,,,,,,,,55,-22,20,75,-38,16,16,0.394444444,-0.296666667,1,0,0,0.4,submitButton,9.843971631,-0.15,-0.407777778,0,0,0,1,1,61,6,1,22,69622,blockT,180,2022-02-16_13h13.54.730,orientation adjustment block,2021.2.3,MacIntel,58.82352941,,,,,,,
,,,,,,,,,,,,,,,,,,,,,,31.66666667,-16,20,75,-28.33333333,12.33333333,12.33333333,0.382222222,-0.317777778,1,0,0,0.784,submitButton,9.895833333,-0.195555556,-0.411111111,0,0,0,1,2,62,0,1,16,69622,blockT,180,2022-02-16_13h13.54.730,orientation adjustment block,2021.2.3,MacIntel,58.82352941,,,,,,,
,,,,,,,,,,,,,,,,,,,,,,48.88888889,51,20,75,51.88888889,0.888888889,0.888888889,0.378888889,-0.312222222,1,0,0,0.8,submitButton,9.712018141,-0.177777778,-0.395555556,0,0,0,1,3,63,35,1,51,69622,blockT,180,2022-02-16_13h13.54.730,orientation adjustment block,2021.2.3,MacIntel,58.82352941,,,,,,,
,,,,,,,,,,,,,,,,,,,,,,33.88888889,-33,20,75,-36.11111111,3.111111111,3.111111111,-0.277777778,-0.426666667,1,0,0,1.233,submitButton,9.58,-0.277777778,-0.426666667,0,0,0,1,4,64,17,1,33,69622,blockT,180,2022-02-16_13h13.54.730,orientation adjustment block,2021.2.3,MacIntel,58.82352941,,,,,,,
,,,,,,,,,,,,,,,,,,,,,,40.55555556,-45,20,75,-54.44444444,9.444444444,9.444444444,-0.154444444,-0.395555556,1,0,0,1.517,submitButton,9.577342048,-0.155555556,-0.395555556,0,0,0,1,5,65,29,1,45,69622,blockT,180,2022-02-16_13h13.54.730,orientation adjustment block,2021.2.3,MacIntel,58.82352941,,,,,,,
,,,,,,,,,,,,,,,,,,,,,,-26.11111111,25,20,75,39.88888889,14.88888889,14.88888889,-0.196666667,-0.405555556,1,0,0,1.449,submitButton,9.679487179,-0.196666667,-0.405555556,0,0,0,1,6,66,9,1,25,69622,blockT,180,2022-02-16_13h13.54.730,orientation adjustment block,2021.2.3,MacIntel,58.82352941,,,,,,,
,,,,,,,,,,,,,,,,,,,,,,55,-40,20,75,-33,7,7,-0.221111111,-0.415555556,1,0,0,1.134,submitButton,9.628930818,-0.221111111,-0.415555556,0,0,0,1,7,67,24,1,40,69622,blockT,180,2022-02-16_13h13.54.730,orientation adjustment block,2021.2.3,MacIntel,58.82352941,,,,,,,
,,,,,,,,,,,,,,,,,,,,,,60,65,20,75,239,6,6,-0.185555556,-0.418888889,1,0,0,2.45,submitButton,9.561728395,-0.185555556,-0.418888889,0,0,0,1,8,68,49,1,65,69622,blockT,180,2022-02-16_13h13.54.730,orientation adjustment block,2021.2.3,MacIntel,58.82352941,,,,,,,
,,,,,,,,,,,,,,,,,,,,,,49.44444444,55,20,75,57.44444444,2.444444444,2.444444444,-0.138888889,-0.401111111,1,0,0,1.6,submitButton,9.432323232,-0.138888889,-0.401111111,0,0,0,1,9,69,39,1,55,69622,blockT,180,2022-02-16_13h13.54.730,orientation adjustment block,2021.2.3,MacIntel,58.82352941,,,,,,,
,,,,,,,,,,,,,,,,,,,,,,-29.44444444,32,20,75,32.55555556,0.555555556,0.555555556,0.224444444,-0.298888889,1,0,0,0.817,submitButton,9.273809524,-0.224444444,-0.414444444,0,0,0,1,10,70,16,1,32,69622,blockT,180,2022-02-16_13h13.54.730,orientation adjustment block,2021.2.3,MacIntel,58.82352941,,,,,,,
,,,,,,,,,,,,,,,,,,,,,,65,-20,20,75,-46,26,26,0.354444444,-0.312222222,1,0,0,0.15,submitButton,9.567251462,-0.197777778,-0.412222222,0,0,0,1,11,71,4,1,20,69622,blockT,180,2022-02-16_13h13.54.730,orientation adjustment block,2021.2.3,MacIntel,58.82352941,,,,,,,
,,,,,,,,,,,,,,,,,,,,,,-43.88888889,24,20,75,37.11111111,13.11111111,13.11111111,-0.128888889,-0.404444444,1,0,0,1.35,submitButton,9.62835249,-0.128888889,-0.404444444,0,0,0,1,12,72,8,1,24,69622,blockT,180,2022-02-16_13h13.54.730,orientation adjustment block,2021.2.3,MacIntel,58.82352941,,,,,,,
,,,,,,,,,,,,,,,,,,,,,,-51.11111111,-61,20,75,-80.11111111,19.11111111,19.11111111,0.218888889,-0.311111111,1,0,0,0.316,submitButton,9.789077213,-0.137777778,-0.396666667,0,0,0,1,13,73,45,1,61,69622,blockT,180,2022-02-16_13h13.54.730,orientation adjustment block,2021.2.3,MacIntel,58.82352941,,,,,,,
,,,,,,,,,,,,,,,,,,,,,,-67.22222222,-37,20,75,-54.22222222,17.22222222,17.22222222,-0.166666667,-0.418888889,1,0,0,1.816,submitButton,9.912962963,0.387777778,-0.396666667,1,0,0,1,14,74,21,1,37,69622,blockT,180,2022-02-16_13h13.54.730,orientation adjustment block,2021.2.3,MacIntel,58.82352941,continueButton,,,,,,
,,,,,,,,,,,,,,,,,,,,,,62.77777778,53,20,75,155.7777778,77.22222222,77.22222222,0.206666667,-0.308888889,1,0,0,1.367,submitButton,11.01639344,-0.143333333,-0.387777778,0,0,0,1,15,75,37,1,53,69622,blockT,180,2022-02-16_13h13.54.730,orientation adjustment block,2021.2.3,MacIntel,58.82352941,,,,,,,
,,,,,,,,,,,,,,,,,,,,,,54.44444444,-70,20,75,-67.55555556,2.444444444,2.444444444,0.397777778,-0.305555556,1,0,0,1.001,submitButton,10.8781362,-0.178888889,-0.392222222,0,0,0,1,16,76,54,1,70,69622,blockT,180,2022-02-16_13h13.54.730,orientation adjustment block,2021.2.3,MacIntel,58.82352941,,,,,,,
,,,,,,,,,,,,,,,,,,,,,,66.66666667,46,20,75,216.6666667,9.333333333,9.333333333,-0.184444444,-0.416666667,1,0,0,2.501,submitButton,10.85361552,-0.184444444,-0.416666667,0,0,0,1,17,77,30,1,46,69622,blockT,180,2022-02-16_13h13.54.730,orientation adjustment block,2021.2.3,MacIntel,58.82352941,,,,,,,
,,,,,,,,,,,,,,,,,,,,,,-25,39,20,75,36,3,3,0.232222222,-0.307777778,1,0,0,0.484,submitButton,10.73090278,-0.186666667,-0.393333333,0,0,0,1,18,78,23,1,39,69622,blockT,180,2022-02-16_13h13.54.730,orientation adjustment block,2021.2.3,MacIntel,58.82352941,,,,,,,
,,,,,,,,,,,,,,,,,,,,,,28.33333333,-30,20,75,-43.66666667,13.66666667,13.66666667,0.367777778,-0.312222222,1,0,0,0.383,submitButton,10.77606838,-0.126666667,-0.406666667,0,0,0,1,19,79,14,1,30,69622,blockT,180,2022-02-16_13h13.54.730,orientation adjustment block,2021.2.3,MacIntel,58.82352941,,,,,,,
,,,,,,,,,,,,,,,,,,,,,,57.22222222,-36,20,75,137.2222222,6.777777778,6.777777778,0.225555556,-0.311111111,1,0,0,0.017,submitButton,10.71548822,-0.221111111,-0.404444444,0,0,0,1,20,80,20,1,36,69622,blockT,180,2022-02-16_13h13.54.730,orientation adjustment block,2021.2.3,MacIntel,58.82352941,,,,,,,
,,,,,,,,,,,,,,,,,,,,,,-52.22222222,-57,20,75,-64.22222222,7.222222222,7.222222222,0.201111111,-0.307777778,1,0,0,0.933,submitButton,10.66334992,-0.241111111,-0.42,0,0,0,1,21,81,41,1,57,69622,blockT,180,2022-02-16_13h13.54.730,orientation adjustment block,2021.2.3,MacIntel,58.82352941,,,,,,,
,,,,,,,,,,,,,,,,,,,,,,26.11111111,-52,20,75,-36.88888889,15.11111111,15.11111111,0.416666667,-0.302222222,1,0,0,0.067,submitButton,10.72875817,-0.123333333,-0.406666667,0,0,0,1,22,82,36,1,52,69622,blockT,180,2022-02-16_13h13.54.730,orientation adjustment block,2021.2.3,MacIntel,58.82352941,,,,,,,
,,,,,,,,,,,,,,,,,,,,,,-72.22222222,17,20,75,43.77777778,26.77777778,26.77777778,0.201111111,-0.29,1,0,0,1.55,submitButton,10.96135266,-0.25,-0.397777778,0,0,0,1,23,83,1,1,17,69622,blockT,180,2022-02-16_13h13.54.730,orientation adjustment block,2021.2.3,MacIntel,58.82352941,,,,,,,
,,,,,,,,,,,,,,,,,,,,,,20.55555556,67,20,75,67.55555556,0.555555556,0.555555556,0.423333333,-0.284444444,1,0,0,0.2,submitButton,10.81269841,-0.145555556,-0.397777778,0,0,0,1,24,84,51,1,67,69622,blockT,180,2022-02-16_13h13.54.730,orientation adjustment block,2021.2.3,MacIntel,58.82352941,,,,,,,
,,,,,,,,,,,,,,,,,,,,,,-22.22222222,68,20,75,54.77777778,13.22222222,13.22222222,0.196666667,-0.314444444,1,0,0,0.015,submitButton,10.84663537,-0.155555556,-0.406666667,0,0,0,1,25,85,52,1,68,69622,blockT,180,2022-02-16_13h13.54.730,orientation adjustment block,2021.2.3,MacIntel,58.82352941,,,,,,,
,,,,,,,,,,,,,,,,,,,,,,-23.33333333,63,20,75,62.66666667,0.333333333,0.333333333,0.218888889,-0.318888889,1,0,0,0.016,submitButton,10.70061728,-0.238888889,-0.41,0,0,0,1,26,86,47,1,63,69622,blockT,180,2022-02-16_13h13.54.730,orientation adjustment block,2021.2.3,MacIntel,58.82352941,,,,,,,
,,,,,,,,,,,,,,,,,,,,,,-73.33333333,43,20,75,41.66666667,1.333333333,1.333333333,0.392222222,-0.303333333,1,0,0,0.066,submitButton,10.57229833,-0.285555556,-0.414444444,0,0,0,1,27,87,27,1,43,69622,blockT,180,2022-02-16_13h13.54.730,orientation adjustment block,2021.2.3,MacIntel,58.82352941,,,,,,,
,,,,,,,,,,,,,,,,,,,,,,-38.33333333,-41,20,75,-47.33333333,6.333333333,6.333333333,0.203333333,-0.304444444,1,0,0,0.317,submitButton,10.51501502,-0.257777778,-0.397777778,0,0,0,1,28,88,25,1,41,69622,blockT,180,2022-02-16_13h13.54.730,orientation adjustment block,2021.2.3,MacIntel,58.82352941,,,,,,,
,,,,,,,,,,,,,,,,,,,,,,34.44444444,58,20,75,52.44444444,5.555555556,5.555555556,-0.177777778,-0.406666667,1,0,0,1.351,submitButton,10.44888889,0.244444444,-0.402222222,1,0,0,1,29,89,42,1,58,69622,blockT,180,2022-02-16_13h13.54.730,orientation adjustment block,2021.2.3,MacIntel,58.82352941,continueButton,,,,,,
,,,,,,,,,,,,,,,,,,,,,,71.11111111,21,20,75,39.11111111,18.11111111,18.11111111,-0.118888889,-0.39,1,0,0,1.5,submitButton,10.5497076,-0.118888889,-0.39,0,0,0,1,30,90,5,1,21,69622,blockT,180,2022-02-16_13h13.54.730,orientation adjustment block,2021.2.3,MacIntel,58.82352941,,,,,,,
,,,,,,,,,,,,,,,,,,,,,,-55,60,20,75,55,5,5,0.223333333,-0.314444444,1,0,0,0.816,submitButton,10.47763348,-0.134444444,-0.385555556,0,0,0,1,31,91,44,1,60,69622,blockT,180,2022-02-16_13h13.54.730,orientation adjustment block,2021.2.3,MacIntel,58.82352941,,,,,,,
,,,,,,,,,,,,,,,,,,,,,,-61.66666667,-64,20,75,-235.6666667,8.333333333,8.333333333,-0.166666667,-0.4,1,0,0,2.484,submitButton,10.45014245,-0.166666667,-0.4,0,0,0,1,32,92,48,1,64,69622,blockT,180,2022-02-16_13h13.54.730,orientation adjustment block,2021.2.3,MacIntel,58.82352941,,,,,,,
,,,,,,,,,,,,,,,,,,,,,,-62.77777778,-73,20,75,-56.77777778,16.22222222,16.22222222,-0.287777778,-0.398888889,1,0,0,1.883,submitButton,10.52320675,-0.287777778,-0.398888889,0,0,0,1,33,93,57,1,73,69622,blockT,180,2022-02-16_13h13.54.730,orientation adjustment block,2021.2.3,MacIntel,58.82352941,,,,,,,
,,,,,,,,,,,,,,,,,,,,,,-38.88888889,38,20,75,44.11111111,6.111111111,6.111111111,0.223333333,-0.322222222,1,0,0,0.217,submitButton,10.46805556,-0.206666667,-0.398888889,0,0,0,1,34,94,22,1,38,69622,blockT,180,2022-02-16_13h13.54.730,orientation adjustment block,2021.2.3,MacIntel,58.82352941,,,,,,,
,,,,,,,,,,,,,,,,,,,,,,-33.33333333,54,20,75,48.66666667,5.333333333,5.333333333,0.223333333,-0.293333333,1,0,0,0.483,submitButton,10.40466392,-0.202222222,-0.417777778,0,0,0,1,35,95,38,1,54,69622,blockT,180,2022-02-16_13h13.54.730,orientation adjustment block,2021.2.3,MacIntel,58.82352941,,,,,,,
,,,,,,,,,,,,,,,,,,,,,,-38.33333333,18,20,75,22.66666667,4.666666667,4.666666667,0.191111111,-0.31,1,0,0,0.2,submitButton,10.33468835,-0.16,-0.393333333,0,0,0,1,36,96,2,1,18,69622,blockT,180,2022-02-16_13h13.54.730,orientation adjustment block,2021.2.3,MacIntel,58.82352941,,,,,,,
,,,,,,,,,,,,,,,,,,,,,,23.88888889,-59,20,75,-66.11111111,7.111111111,7.111111111,0.205555556,-0.308888889,1,0,0,0.017,submitButton,10.29585007,-0.162222222,-0.381111111,0,0,0,1,37,97,43,1,59,69622,blockT,180,2022-02-16_13h13.54.730,orientation adjustment block,2021.2.3,MacIntel,58.82352941,,,,,,,
,,,,,,,,,,,,,,,,,,,,,,-72.77777778,72,20,75,45.22222222,26.77777778,26.77777778,0.212222222,-0.317777778,1,0,0,0.817,submitButton,10.49206349,-0.184444444,-0.405555556,0,0,0,1,38,98,56,1,72,69622,blockT,180,2022-02-16_13h13.54.730,orientation adjustment block,2021.2.3,MacIntel,58.82352941,,,,,,,
,,,,,,,,,,,,,,,,,,,,,,58.88888889,-35,20,75,-37.11111111,2.111111111,2.111111111,0.401111111,-0.286666667,1,0,0,0.016,submitButton,10.39346405,-0.145555556,-0.392222222,0,0,0,1,39,99,19,1,35,69622,blockT,180,2022-02-16_13h13.54.730,orientation adjustment block,2021.2.3,MacIntel,58.82352941,,,,,,,
,,,,,,,,,,,,,,,,,,,,,,56.11111111,-56,20,75,-38.88888889,17.11111111,17.11111111,0.23,-0.303333333,1,0,0,0.167,submitButton,10.47157623,-0.144444444,-0.408888889,0,0,0,1,40,100,40,1,56,69622,blockT,180,2022-02-16_13h13.54.730,orientation adjustment block,2021.2.3,MacIntel,58.82352941,,,,,,,
,,,,,,,,,,,,,,,,,,,,,,71.66666667,-19,20,75,-34.33333333,15.33333333,15.33333333,0.385555556,-0.314444444,1,0,0,0.183,submitButton,10.52745849,-0.26,-0.415555556,0,0,0,1,41,101,3,1,19,69622,blockT,180,2022-02-16_13h13.54.730,orientation adjustment block,2021.2.3,MacIntel,58.82352941,,,,,,,
,,,,,,,,,,,,,,,,,,,,,,68.33333333,71,20,75,238.3333333,12.66666667,12.66666667,0.377777778,-0.3,1,0,0,0.083,submitButton,10.55176768,-0.233333333,-0.401111111,0,0,0,1,42,102,55,1,71,69622,blockT,180,2022-02-16_13h13.54.730,orientation adjustment block,2021.2.3,MacIntel,58.82352941,,,,,,,
,,,,,,,,,,,,,,,,,,,,,,-63.88888889,-49,20,75,-228.8888889,0.111111111,0.111111111,-0.181111111,-0.395555556,1,0,0,2.583,submitButton,10.43445693,-0.182222222,-0.395555556,0,0,0,1,43,103,33,1,49,69622,blockT,180,2022-02-16_13h13.54.730,orientation adjustment block,2021.2.3,MacIntel,58.82352941,,,,,,,
,,,,,,,,,,,,,,,,,,,,,,38.33333333,-62,20,75,-49.66666667,12.33333333,12.33333333,-0.207777778,-0.388888889,1,0,0,1.033,submitButton,10.45555556,0.245555556,-0.413333333,1,0,0,1,44,104,46,1,62,69622,blockT,180,2022-02-16_13h13.54.730,orientation adjustment block,2021.2.3,MacIntel,58.82352941,continueButton,,,,,,
,,,,,,,,,,,,,,,,,,,,,,-47.22222222,-26,20,75,-31.22222222,5.222222222,5.222222222,0.21,-0.305555556,1,0,0,0.9,submitButton,10.3980464,-0.021111111,-0.445555556,0,0,0,1,45,105,10,1,26,69622,blockT,180,2022-02-16_13h13.54.730,orientation adjustment block,2021.2.3,MacIntel,58.82352941,,,,,,,
,,,,,,,,,,,,,,,,,,,,,,-46.11111111,23,20,75,48.88888889,25.88888889,25.88888889,0.22,-0.294444444,1,0,0,0.617,submitButton,10.56642512,-0.236666667,-0.407777778,0,0,0,1,46,106,7,1,23,69622,blockT,180,2022-02-16_13h13.54.730,orientation adjustment block,2021.2.3,MacIntel,58.82352941,,,,,,,
,,,,,,,,,,,,,,,,,,,,,,-46.66666667,75,20,75,71.33333333,3.666666667,3.666666667,0.221111111,-0.302222222,1,0,0,0.648,submitButton,10.49223417,-0.124444444,-0.385555556,0,0,0,1,47,107,59,1,75,69622,blockT,180,2022-02-16_13h13.54.730,orientation adjustment block,2021.2.3,MacIntel,58.82352941,,,,,,,
,,,,,,,,,,,,,,,,,,,,,,-60.55555556,-47,20,75,-236.5555556,9.555555556,9.555555556,-0.142222222,-0.396666667,1,0,0,2.817,submitButton,10.4822695,-0.142222222,-0.396666667,0,0,0,1,48,108,31,1,47,69622,blockT,180,2022-02-16_13h13.54.730,orientation adjustment block,2021.2.3,MacIntel,58.82352941,,,,,,,
,,,,,,,,,,,,,,,,,,,,,,72.22222222,34,20,75,35.22222222,1.222222222,1.222222222,0.162222222,-0.294444444,1,0,0,0.032,submitButton,10.38479532,-0.164444444,-0.42,0,0,0,1,49,109,18,1,34,69622,blockT,180,2022-02-16_13h13.54.730,orientation adjustment block,2021.2.3,MacIntel,58.82352941,,,,,,,
,,,,,,,,,,,,,,,,,,,,,,-67.22222222,-66,20,75,-243.2222222,2.777777778,2.777777778,-0.305555556,-0.394444444,1,0,0,2.516,submitButton,10.30555556,-0.305555556,-0.394444444,0,0,0,1,50,110,50,1,66,69622,blockT,180,2022-02-16_13h13.54.730,orientation adjustment block,2021.2.3,MacIntel,58.82352941,,,,,,,
,,,,,,,,,,,,,,,,,,,,,,-53.33333333,29,20,75,36.66666667,7.666666667,7.666666667,0.183333333,-0.297777778,1,0,0,0.184,submitButton,10.27835052,-0.145555556,-0.392222222,0,0,0,1,51,111,13,1,29,69622,blockT,180,2022-02-16_13h13.54.730,orientation adjustment block,2021.2.3,MacIntel,58.82352941,,,,,,,
,,,,,,,,,,,,,,,,,,,,,,48.88888889,-44,20,75,-45.11111111,1.111111111,1.111111111,-0.108888889,-0.401111111,1,0,0,1.983,submitButton,10.18480726,-0.108888889,-0.401111111,0,0,0,1,52,112,28,1,44,69622,blockT,180,2022-02-16_13h13.54.730,orientation adjustment block,2021.2.3,MacIntel,58.82352941,,,,,,,
,,,,,,,,,,,,,,,,,,,,,,-31.66666667,48,20,75,61.33333333,13.33333333,13.33333333,0.232222222,-0.307777778,1,0,0,0.684,submitButton,10.21661055,-0.171111111,-0.417777778,0,0,0,1,53,113,32,1,48,69622,blockT,180,2022-02-16_13h13.54.730,orientation adjustment block,2021.2.3,MacIntel,58.82352941,,,,,,,
,,,,,,,,,,,,,,,,,,,,,,38.88888889,31,20,75,38.88888889,7.888888889,7.888888889,-0.155555556,-0.407777778,1,0,0,1.183,submitButton,10.19333333,-0.155555556,-0.407777778,0,0,0,1,54,114,15,1,31,69622,blockT,180,2022-02-16_13h13.54.730,orientation adjustment block,2021.2.3,MacIntel,58.82352941,,,,,,,
,,,,,,,,,,,,,,,,,,,,,,72.22222222,28,20,75,33.22222222,5.222222222,5.222222222,0.408888889,-0.3,1,0,0,1.367,submitButton,10.14411441,-0.367777778,-0.398888889,0,0,0,1,55,115,12,1,28,69622,blockT,180,2022-02-16_13h13.54.730,orientation adjustment block,2021.2.3,MacIntel,58.82352941,,,,,,,
,,,,,,,,,,,,,,,,,,,,,,67.22222222,74,20,75,55.22222222,18.77777778,18.77777778,0.4,-0.302222222,1,0,0,1.6,submitButton,10.22875817,-0.145555556,-0.396666667,0,0,0,1,56,116,58,1,74,69622,blockT,180,2022-02-16_13h13.54.730,orientation adjustment block,2021.2.3,MacIntel,58.82352941,,,,,,,
,,,,,,,,,,,,,,,,,,,,,,43.33333333,50,20,75,49.33333333,0.666666667,0.666666667,-0.15,-0.408888889,1,0,0,1.067,submitButton,10.13592233,-0.15,-0.408888889,0,0,0,1,57,117,34,1,50,69622,blockT,180,2022-02-16_13h13.54.730,orientation adjustment block,2021.2.3,MacIntel,58.82352941,,,,,,,
,,,,,,,,,,,,,,,,,,,,,,70.55555556,42,20,75,46.55555556,4.555555556,4.555555556,-0.164444444,-0.398888889,1,0,0,1.95,submitButton,10.08226496,-0.164444444,-0.398888889,0,0,0,1,58,118,26,1,42,69622,blockT,180,2022-02-16_13h13.54.730,orientation adjustment block,2021.2.3,MacIntel,58.82352941,,,,,,,
,,,,,,,,,,,,,,,,,,,,,,-58.33333333,-27,20,75,-30.33333333,3.333333333,3.333333333,-0.274444444,-0.398888889,1,0,0,1.682,submitButton,10.01798942,0.44,-0.413333333,1,0,0,1,59,119,11,1,27,69622,blockT,180,2022-02-16_13h13.54.730,orientation adjustment block,2021.2.3,MacIntel,58.82352941,continueButton,,,,,,
,,,,,,,,,,,,,,,,,,,,,,-72.22222222,54,20,75,66.77777778,12.77777778,12.77777778,0.2,-0.285555556,1,0,0,1.083,submitButton,10.04402516,-0.203333333,-0.42,0,0,0,2,0,120,38,1,54,69622,blockT,180,2022-02-16_13h13.54.730,orientation adjustment block,2021.2.3,MacIntel,58.82352941,,,,,,,
,,,,,,,,,,,,,,,,,,,,,,31.66666667,62,20,75,52.66666667,9.333333333,9.333333333,-0.303333333,-0.41,1,0,0,1.983,submitButton,10.03738318,-0.303333333,-0.41,0,0,0,2,1,121,46,1,62,69622,blockT,180,2022-02-16_13h13.54.730,orientation adjustment block,2021.2.3,MacIntel,58.82352941,,,,,,,
,,,,,,,,,,,,,,,,,,,,,,-59.44444444,-43,20,75,-57.44444444,14.44444444,14.44444444,0.201111111,-0.297777778,1,0,0,0.217,submitButton,10.0781893,-0.191111111,-0.388888889,0,0,0,2,2,122,27,1,43,69622,blockT,180,2022-02-16_13h13.54.730,orientation adjustment block,2021.2.3,MacIntel,58.82352941,,,,,,,
,,,,,,,,,,,,,,,,,,,,,,-34.44444444,59,20,75,47.55555556,11.44444444,11.44444444,0.19,-0.321111111,1,0,0,0.2,submitButton,10.09072375,-0.134444444,-0.387777778,0,0,0,2,3,123,43,1,59,69622,blockT,180,2022-02-16_13h13.54.730,orientation adjustment block,2021.2.3,MacIntel,58.82352941,,,,,,,
,,,,,,,,,,,,,,,,,,,,,,-72.77777778,74,20,75,74.22222222,0.222222222,0.222222222,0.212222222,-0.308888889,1,0,0,0.066,submitButton,10.0010101,-0.18,-0.414444444,0,0,0,2,4,124,58,1,74,69622,blockT,180,2022-02-16_13h13.54.730,orientation adjustment block,2021.2.3,MacIntel,58.82352941,,,,,,,
,,,,,,,,,,,,,,,,,,,,,,63.88888889,-34,20,75,-32.11111111,1.888888889,1.888888889,0.405555556,-0.302222222,1,0,0,0.216,submitButton,9.927927928,-0.191111111,-0.415555556,0,0,0,2,5,125,18,1,34,69622,blockT,180,2022-02-16_13h13.54.730,orientation adjustment block,2021.2.3,MacIntel,58.82352941,,,,,,,
,,,,,,,,,,,,,,,,,,,,,,70,-27,20,75,-29,2,2,-0.163333333,-0.394444444,1,0,0,2.3,submitButton,9.857142857,-0.163333333,-0.394444444,0,0,0,2,6,126,11,1,27,69622,blockT,180,2022-02-16_13h13.54.730,orientation adjustment block,2021.2.3,MacIntel,58.82352941,,,,,,,
,,,,,,,,,,,,,,,,,,,,,,-20,-26,20,75,-30,4,4,-0.205555556,-0.408888889,1,0,0,0.783,submitButton,9.805309735,-0.205555556,-0.408888889,0,0,0,2,7,127,10,1,26,69622,blockT,180,2022-02-16_13h13.54.730,orientation adjustment block,2021.2.3,MacIntel,58.82352941,,,,,,,
,,,,,,,,,,,,,,,,,,,,,,39.44444444,44,20,75,55.44444444,11.44444444,11.44444444,-0.144444444,-0.4,1,0,0,1.116,submitButton,9.819688109,-0.144444444,-0.4,0,0,0,2,8,128,28,1,44,69622,blockT,180,2022-02-16_13h13.54.730,orientation adjustment block,2021.2.3,MacIntel,58.82352941,,,,,,,
,,,,,,,,,,,,,,,,,,,,,,40.55555556,53,20,75,59.55555556,6.555555556,6.555555556,0.39,-0.296666667,1,0,0,0.017,submitButton,9.791304348,-0.173333333,-0.398888889,0,0,0,2,9,129,37,1,53,69622,blockT,180,2022-02-16_13h13.54.730,orientation adjustment block,2021.2.3,MacIntel,58.82352941,,,,,,,
,,,,,,,,,,,,,,,,,,,,,,68.88888889,-64,20,75,-60.11111111,3.888888889,3.888888889,-0.122222222,-0.382222222,1,0,0,2.466,submitButton,9.740421456,-0.122222222,-0.382222222,0,0,0,2,10,130,48,1,64,69622,blockT,180,2022-02-16_13h13.54.730,orientation adjustment block,2021.2.3,MacIntel,58.82352941,,,,,,,
,,,,,,,,,,,,,,,,,,,,,,22.77777778,-36,20,75,-42.22222222,6.222222222,6.222222222,-0.258888889,-0.368888889,1,0,0,1.767,submitButton,9.710351377,-0.258888889,-0.378888889,0,0,0,2,11,131,20,1,36,69622,blockT,180,2022-02-16_13h13.54.730,orientation adjustment block,2021.2.3,MacIntel,58.82352941,,,,,,,
,,,,,,,,,,,,,,,,,,,,,,22.77777778,-75,20,75,-76.22222222,1.222222222,1.222222222,-0.196666667,-0.421111111,1,0,0,1.183,submitButton,9.638418079,-0.196666667,-0.421111111,0,0,0,2,12,132,59,1,75,69622,blockT,180,2022-02-16_13h13.54.730,orientation adjustment block,2021.2.3,MacIntel,58.82352941,,,,,,,
,,,,,,,,,,,,,,,,,,,,,,25,57,20,75,57,0,0,-0.177777778,-0.397777778,1,0,0,1.566,submitButton,9.557422969,-0.177777778,-0.397777778,0,0,0,2,13,133,41,1,57,69622,blockT,180,2022-02-16_13h13.54.730,orientation adjustment block,2021.2.3,MacIntel,58.82352941,,,,,,,
,,,,,,,,,,,,,,,,,,,,,,-46.11111111,-65,20,75,-58.11111111,6.888888889,6.888888889,0.166666667,-0.291111111,1,0,0,0.134,submitButton,9.535185185,0.343333333,-0.404444444,1,0,0,2,14,134,49,1,65,69622,blockT,180,2022-02-16_13h13.54.730,orientation adjustment block,2021.2.3,MacIntel,58.82352941,continueButton,,,,,,
,,,,,,,,,,,,,,,,,,,,,,35.55555556,25,20,75,26.55555556,1.555555556,1.555555556,0.411111111,-0.281111111,1,0,0,0.134,submitButton,9.469237833,-0.167777778,-0.396666667,0,0,0,2,15,135,9,1,25,69622,blockT,180,2022-02-16_13h13.54.730,orientation adjustment block,2021.2.3,MacIntel,58.82352941,,,,,,,
,,,,,,,,,,,,,,,,,,,,,,56.11111111,-29,20,75,-33.88888889,4.888888889,4.888888889,-0.212222222,-0.402222222,1,0,0,1.467,submitButton,9.431693989,-0.212222222,-0.401111111,0,0,0,2,16,136,13,1,29,69622,blockT,180,2022-02-16_13h13.54.730,orientation adjustment block,2021.2.3,MacIntel,58.82352941,,,,,,,
,,,,,,,,,,,,,,,,,,,,,,27.22222222,48,20,75,45.22222222,2.777777778,2.777777778,0.383333333,-0.29,1,0,0,0.084,submitButton,9.377597109,-0.15,-0.395555556,0,0,0,2,17,137,32,1,48,69622,blockT,180,2022-02-16_13h13.54.730,orientation adjustment block,2021.2.3,MacIntel,58.82352941,,,,,,,
,,,,,,,,,,,,,,,,,,,,,,-30,-49,20,75,-52,3,3,0.195555556,-0.295555556,1,0,0,0.117,submitButton,9.326164875,-0.233333333,-0.385555556,0,0,0,2,18,138,33,1,49,69622,blockT,180,2022-02-16_13h13.54.730,orientation adjustment block,2021.2.3,MacIntel,58.82352941,,,,,,,
,,,,,,,,,,,,,,,,,,,,,,-66.66666667,50,20,75,47.33333333,2.666666667,2.666666667,0.43,-0.304444444,1,0,0,0.034,submitButton,9.272888889,-0.275555556,-0.425555556,0,0,0,2,19,139,34,1,50,69622,blockT,180,2022-02-16_13h13.54.730,orientation adjustment block,2021.2.3,MacIntel,58.82352941,,,,,,,
,,,,,,,,,,,,,,,,,,,,,,-52.22222222,61,20,75,59.77777778,1.222222222,1.222222222,-0.184444444,-0.406666667,1,0,0,2.033,submitButton,9.208994709,-0.184444444,-0.406666667,0,0,0,2,20,140,45,1,61,69622,blockT,180,2022-02-16_13h13.54.730,orientation adjustment block,2021.2.3,MacIntel,58.82352941,,,,,,,
,,,,,,,,,,,,,,,,,,,,,,49.44444444,39,20,75,41.44444444,2.444444444,2.444444444,-0.122222222,-0.404444444,1,0,0,1.2,submitButton,9.155730534,-0.122222222,-0.404444444,0,0,0,2,21,141,23,1,39,69622,blockT,180,2022-02-16_13h13.54.730,orientation adjustment block,2021.2.3,MacIntel,58.82352941,,,,,,,
,,,,,,,,,,,,,,,,,,,,,,-31.66666667,-70,20,75,-70.66666667,0.666666667,0.666666667,0.205555556,-0.294444444,1,0,0,0.066,submitButton,9.089409722,-0.286666667,-0.4,0,0,0,2,22,142,54,1,70,69622,blockT,180,2022-02-16_13h13.54.730,orientation adjustment block,2021.2.3,MacIntel,58.82352941,,,,,,,
,,,,,,,,,,,,,,,,,,,,,,21.66666667,45,20,75,44.66666667,0.333333333,0.333333333,0.39,-0.288888889,1,0,0,0.466,submitButton,9.021533161,-0.146666667,-0.385555556,0,0,0,2,23,143,29,1,45,69622,blockT,180,2022-02-16_13h13.54.730,orientation adjustment block,2021.2.3,MacIntel,58.82352941,,,,,,,
,,,,,,,,,,,,,,,,,,,,,,65.55555556,-72,20,75,-61.44444444,10.55555556,10.55555556,0.447777778,-0.29,1,0,0,1.067,submitButton,9.033333333,-0.257777778,-0.398888889,0,0,0,2,24,144,56,1,72,69622,blockT,180,2022-02-16_13h13.54.730,orientation adjustment block,2021.2.3,MacIntel,58.82352941,,,,,,,
,,,,,,,,,,,,,,,,,,,,,,-47.22222222,60,20,75,45.77777778,14.22222222,14.22222222,-0.244444444,-0.39,1,0,0,1.133,submitButton,9.072943172,-0.244444444,-0.39,0,0,0,2,25,145,44,1,60,69622,blockT,180,2022-02-16_13h13.54.730,orientation adjustment block,2021.2.3,MacIntel,58.82352941,,,,,,,
,,,,,,,,,,,,,,,,,,,,,,66.66666667,37,20,75,38.66666667,1.666666667,1.666666667,-0.137777778,-0.403333333,1,0,0,2.033,submitButton,9.016835017,-0.137777778,-0.403333333,0,0,0,2,26,146,21,1,37,69622,blockT,180,2022-02-16_13h13.54.730,orientation adjustment block,2021.2.3,MacIntel,58.82352941,,,,,,,
,,,,,,,,,,,,,,,,,,,,,,-60.55555556,40,20,75,31.44444444,8.555555556,8.555555556,-0.202222222,-0.415555556,1,0,0,1.466,submitButton,9.01336675,-0.202222222,-0.415555556,0,0,0,2,27,147,24,1,40,69622,blockT,180,2022-02-16_13h13.54.730,orientation adjustment block,2021.2.3,MacIntel,58.82352941,,,,,,,
,,,,,,,,,,,,,,,,,,,,,,-70,66,20,75,63,3,3,-0.266666667,-0.407777778,1,0,0,1.784,submitButton,8.968490879,-0.266666667,-0.407777778,0,0,0,2,28,148,50,1,66,69622,blockT,180,2022-02-16_13h13.54.730,orientation adjustment block,2021.2.3,MacIntel,58.82352941,,,,,,,
,,,,,,,,,,,,,,,,,,,,,,46.11111111,68,20,75,68.11111111,0.111111111,0.111111111,0.422222222,-0.313333333,1,0,0,0.034,submitButton,8.902880658,0.357777778,-0.412222222,1,0,0,2,29,149,52,1,68,69622,blockT,180,2022-02-16_13h13.54.730,orientation adjustment block,2021.2.3,MacIntel,58.82352941,continueButton,,,,,,
,,,,,,,,,,,,,,,,,,,,,,74.44444444,-47,20,75,-45.55555556,1.444444444,1.444444444,0.365555556,-0.294444444,1,0,0,0.617,submitButton,8.848039216,-0.137777778,-0.417777778,0,0,0,2,30,150,31,1,47,69622,blockT,180,2022-02-16_13h13.54.730,orientation adjustment block,2021.2.3,MacIntel,58.82352941,,,,,,,
,,,,,,,,,,,,,,,,,,,,,,66.66666667,46,20,75,234.6666667,8.666666667,8.666666667,0.232222222,-0.32,1,0,0,0.416,submitButton,8.846715328,-0.154444444,-0.392222222,0,0,0,2,31,151,30,1,46,69622,blockT,180,2022-02-16_13h13.54.730,orientation adjustment block,2021.2.3,MacIntel,58.82352941,,,,,,,
,,,,,,,,,,,,,,,,,,,,,,-35.55555556,-20,20,75,-23.55555556,3.555555556,3.555555556,0.202222222,-0.321111111,1,0,0,0.034,submitButton,8.808373591,-0.21,-0.384444444,0,0,0,2,32,152,4,1,20,69622,blockT,180,2022-02-16_13h13.54.730,orientation adjustment block,2021.2.3,MacIntel,58.82352941,,,,,,,
,,,,,,,,,,,,,,,,,,,,,,41.11111111,56,20,75,59.11111111,3.111111111,3.111111111,-0.122222222,-0.408888889,1,0,0,1.366,submitButton,8.767386091,-0.123333333,-0.408888889,0,0,0,2,33,153,40,1,56,69622,blockT,180,2022-02-16_13h13.54.730,orientation adjustment block,2021.2.3,MacIntel,58.82352941,,,,,,,
,,,,,,,,,,,,,,,,,,,,,,-32.22222222,42,20,75,41.77777778,0.222222222,0.222222222,-0.193333333,-0.418888889,1,0,0,1.1,submitButton,8.706349206,-0.193333333,-0.418888889,0,0,0,2,34,154,26,1,42,69622,blockT,180,2022-02-16_13h13.54.730,orientation adjustment block,2021.2.3,MacIntel,58.82352941,,,,,,,
,,,,,,,,,,,,,,,,,,,,,,53.33333333,73,20,75,60.33333333,12.66666667,12.66666667,-0.196666667,-0.378888889,1,0,0,1.733,submitButton,8.734436564,-0.196666667,-0.38,0,0,0,2,35,155,57,1,73,69622,blockT,180,2022-02-16_13h13.54.730,orientation adjustment block,2021.2.3,MacIntel,58.82352941,,,,,,,
,,,,,,,,,,,,,,,,,,,,,,-22.22222222,-17,20,75,-20.22222222,3.222222222,3.222222222,-0.311111111,-0.402222222,1,0,0,0.9,submitButton,8.695618153,-0.311111111,-0.402222222,0,0,0,2,36,156,1,1,17,69622,blockT,180,2022-02-16_13h13.54.730,orientation adjustment block,2021.2.3,MacIntel,58.82352941,,,,,,,
,,,,,,,,,,,,,,,,,,,,,,51.11111111,-18,20,75,-18.88888889,0.888888889,0.888888889,0.404444444,-0.306666667,1,0,0,0.067,submitButton,8.641025641,-0.207777778,-0.415555556,0,0,0,2,37,157,2,1,18,69622,blockT,180,2022-02-16_13h13.54.730,orientation adjustment block,2021.2.3,MacIntel,58.82352941,,,,,,,
,,,,,,,,,,,,,,,,,,,,,,68.33333333,-31,20,75,-36.66666667,5.666666667,5.666666667,0.193333333,-0.318888889,1,0,0,0.017,submitButton,8.62037037,-0.287777778,-0.41,0,0,0,2,38,158,15,1,31,69622,blockT,180,2022-02-16_13h13.54.730,orientation adjustment block,2021.2.3,MacIntel,58.82352941,,,,,,,
,,,,,,,,,,,,,,,,,,,,,,32.77777778,-58,20,75,-57.22222222,0.777777778,0.777777778,0.407777778,-0.31,1,0,0,0.316,submitButton,8.566283525,-0.202222222,-0.411111111,0,0,0,2,39,159,42,1,58,69622,blockT,180,2022-02-16_13h13.54.730,orientation adjustment block,2021.2.3,MacIntel,58.82352941,,,,,,,
,,,,,,,,,,,,,,,,,,,,,,35,-41,20,75,-52,11,11,0.378888889,-0.307777778,1,0,0,0.566,submitButton,8.582952816,-0.148888889,-0.403333333,0,0,0,2,40,160,25,1,41,69622,blockT,180,2022-02-16_13h13.54.730,orientation adjustment block,2021.2.3,MacIntel,58.82352941,,,,,,,
,,,,,,,,,,,,,,,,,,,,,,-20.55555556,-55,20,75,-39.55555556,15.44444444,15.44444444,0.467777778,-0.267777778,1,0,0,0.133,submitButton,8.62962963,-0.33,-0.401111111,0,0,0,2,41,161,39,1,55,69622,blockT,180,2022-02-16_13h13.54.730,orientation adjustment block,2021.2.3,MacIntel,58.82352941,,,,,,,
,,,,,,,,,,,,,,,,,,,,,,67.77777778,-69,20,75,-53.22222222,15.77777778,15.77777778,-0.216666667,-0.385555556,1,0,0,1.617,submitButton,8.677927928,-0.216666667,-0.386666667,0,0,0,2,42,162,53,1,69,69622,blockT,180,2022-02-16_13h13.54.730,orientation adjustment block,2021.2.3,MacIntel,58.82352941,,,,,,,
,,,,,,,,,,,,,,,,,,,,,,60,35,20,75,34,1,1,-0.145555556,-0.43,1,0,0,2.117,submitButton,8.62639821,-0.143333333,-0.392222222,0,0,0,2,43,163,19,1,35,69622,blockT,180,2022-02-16_13h13.54.730,orientation adjustment block,2021.2.3,MacIntel,58.82352941,,,,,,,
,,,,,,,,,,,,,,,,,,,,,,38.33333333,-23,20,75,-34.66666667,11.66666667,11.66666667,0.367777778,-0.288888889,1,0,0,0.284,submitButton,8.646666667,0.277777778,-0.383333333,1,0,0,2,44,164,7,1,23,69622,blockT,180,2022-02-16_13h13.54.730,orientation adjustment block,2021.2.3,MacIntel,58.82352941,continueButton,,,,,,
,,,,,,,,,,,,,,,,,,,,,,-52.77777778,-22,20,75,-28.77777778,6.777777778,6.777777778,0.187777778,-0.301111111,1,0,0,0.099,submitButton,8.634289919,-0.224444444,-0.407777778,0,0,0,2,45,165,6,1,22,69622,blockT,180,2022-02-16_13h13.54.730,orientation adjustment block,2021.2.3,MacIntel,58.82352941,,,,,,,
,,,,,,,,,,,,,,,,,,,,,,53.33333333,-16,20,75,-17.66666667,1.666666667,1.666666667,-0.187777778,-0.417777778,1,0,0,1.55,submitButton,8.588450292,-0.187777778,-0.417777778,0,0,0,2,46,166,0,1,16,69622,blockT,180,2022-02-16_13h13.54.730,orientation adjustment block,2021.2.3,MacIntel,58.82352941,,,,,,,
,,,,,,,,,,,,,,,,,,,,,,-53.33333333,33,20,75,36.66666667,3.666666667,3.666666667,0.177777778,-0.311111111,1,0,0,1.017,submitButton,8.556281772,-0.213333333,-0.384444444,0,0,0,2,47,167,17,1,33,69622,blockT,180,2022-02-16_13h13.54.730,orientation adjustment block,2021.2.3,MacIntel,58.82352941,,,,,,,
,,,,,,,,,,,,,,,,,,,,,,71.11111111,-32,20,75,-51.88888889,19.88888889,19.88888889,-0.163333333,-0.423333333,1,0,0,2.05,submitButton,8.62987013,-0.163333333,-0.423333333,0,0,0,2,48,168,16,1,32,69622,blockT,180,2022-02-16_13h13.54.730,orientation adjustment block,2021.2.3,MacIntel,58.82352941,,,,,,,
,,,,,,,,,,,,,,,,,,,,,,-27.77777778,38,20,75,38.22222222,0.222222222,0.222222222,0.217777778,-0.308888889,1,0,0,0.017,submitButton,8.57562724,-0.166666667,-0.383333333,0,0,0,2,49,169,22,1,38,69622,blockT,180,2022-02-16_13h13.54.730,orientation adjustment block,2021.2.3,MacIntel,58.82352941,,,,,,,
,,,,,,,,,,,,,,,,,,,,,,-22.77777778,30,20,75,43.22222222,13.22222222,13.22222222,-0.218888889,-0.406666667,1,0,0,1.333,submitButton,8.605413105,-0.217777778,-0.406666667,0,0,0,2,50,170,14,1,30,69622,blockT,180,2022-02-16_13h13.54.730,orientation adjustment block,2021.2.3,MacIntel,58.82352941,,,,,,,
,,,,,,,,,,,,,,,,,,,,,,71.11111111,21,20,75,34.11111111,13.11111111,13.11111111,0.431111111,-0.305555556,1,0,0,0.984,submitButton,8.634111819,-0.19,-0.373333333,0,0,0,2,51,171,5,1,21,69622,blockT,180,2022-02-16_13h13.54.730,orientation adjustment block,2021.2.3,MacIntel,58.82352941,,,,,,,
,,,,,,,,,,,,,,,,,,,,,,-57.77777778,63,20,75,79.22222222,16.22222222,16.22222222,-0.18,-0.416666667,1,0,0,1.717,submitButton,8.682137834,-0.18,-0.416666667,0,0,0,2,52,172,47,1,63,69622,blockT,180,2022-02-16_13h13.54.730,orientation adjustment block,2021.2.3,MacIntel,58.82352941,,,,,,,
,,,,,,,,,,,,,,,,,,,,,,72.77777778,19,20,75,28.77777778,9.777777778,9.777777778,-0.168888889,-0.417777778,1,0,0,1.666,submitButton,8.689028651,-0.168888889,-0.416666667,0,0,0,2,53,173,3,1,19,69622,blockT,180,2022-02-16_13h13.54.730,orientation adjustment block,2021.2.3,MacIntel,58.82352941,,,,,,,
,,,,,,,,,,,,,,,,,,,,,,-38.88888889,52,20,75,59.11111111,7.111111111,7.111111111,-0.222222222,-0.421111111,1,0,0,1.367,submitButton,8.679166667,-0.221111111,-0.42,0,0,0,2,54,174,36,1,52,69622,blockT,180,2022-02-16_13h13.54.730,orientation adjustment block,2021.2.3,MacIntel,58.82352941,,,,,,,
,,,,,,,,,,,,,,,,,,,,,,-67.77777778,28,20,75,43.22222222,15.22222222,15.22222222,0.211111111,-0.304444444,1,0,0,0.9,submitButton,8.719806763,-0.236666667,-0.403333333,0,0,0,2,55,175,12,1,28,69622,blockT,180,2022-02-16_13h13.54.730,orientation adjustment block,2021.2.3,MacIntel,58.82352941,,,,,,,
,,,,,,,,,,,,,,,,,,,,,,47.22222222,24,20,75,35.22222222,11.22222222,11.22222222,0.383333333,-0.301111111,1,0,0,0.017,submitButton,8.735253772,-0.176666667,-0.377777778,0,0,0,2,56,176,8,1,24,69622,blockT,180,2022-02-16_13h13.54.730,orientation adjustment block,2021.2.3,MacIntel,58.82352941,,,,,,,
,,,,,,,,,,,,,,,,,,,,,,-35,71,20,75,70,1,1,-0.183333333,-0.418888889,1,0,0,1.017,submitButton,8.687798228,-0.183333333,-0.418888889,0,0,0,2,57,177,55,1,71,69622,blockT,180,2022-02-16_13h13.54.730,orientation adjustment block,2021.2.3,MacIntel,58.82352941,,,,,,,
,,,,,,,,,,,,,,,,,,,,,,20,-51,20,75,-48,3,3,0.421111111,-0.301111111,1,0,0,0.184,submitButton,8.653116531,-0.161111111,-0.403333333,0,0,0,2,58,178,35,1,51,69622,blockT,180,2022-02-16_13h13.54.730,orientation adjustment block,2021.2.3,MacIntel,58.82352941,,,,,,,
,,,,,,,,,,,,,,,,,,,,,,-64.44444444,67,20,75,68.55555556,1.555555556,1.555555556,-0.184444444,-0.39,1,0,0,1.516,submitButton,8.61010101,-0.184444444,-0.39,0,0,0,2,59,179,51,1,67,69622,blockT,180,2022-02-16_13h13.54.730,orientation adjustment block,2021.2.3,MacIntel,58.82352941,,,,,,,
,,,,,,,,,,,,,,,,,,,,,,,,,,,,,,,,,,,,,,,,,,,,,,,,69622,blockT,180,2022-02-16_13h13.54.730,orientation adjustment block,2021.2.3,MacIntel,58.82352941,,0.32,-0.406666667,1,0,0,EndButtonTxt
