consentMouse1.x,consentMouse1.y,consentMouse1.leftButton,consentMouse1.midButton,consentMouse1.rightButton,consentMouse1.clicked_name,consent_Mouse.x,consent_Mouse.y,consent_Mouse.leftButton,consent_Mouse.midButton,consent_Mouse.rightButton,consent_Mouse.clicked_name,startMouse.x,startMouse.y,startMouse.leftButton,startMouse.midButton,startMouse.rightButton,startMouse_2.x,startMouse_2.y,startMouse_2.leftButton,startMouse_2.midButton,startMouse_2.rightButton,start_distance,fixedOri,minimalDistance,maxOri,this_ori,accuracy,presented_accuracy,submitMouse.x,submitMouse.y,submitMouse.leftButton,submitMouse.midButton,submitMouse.rightButton,submitMouse.time,submitMouse.clicked_name,block_accuracy,continueMouse.x,continueMouse.y,continueMouse.leftButton,continueMouse.midButton,continueMouse.rightButton,trials.thisRepN,trials.thisTrialN,trials.thisN,trials.thisIndex,trials.ran,startOri,participant,condition,nTrials,date,expName,psychopyVersion,OS,frameRate,continueMouse.clicked_name,EndButtonMouse.x,EndButtonMouse.y,EndButtonMouse.leftButton,EndButtonMouse.midButton,EndButtonMouse.rightButton,EndButtonMouse.clicked_name
0.35,-0.416666667,1,0,0,consent_button1,0.402222222,-0.411111111,1,0,0,consent_button,0.6,-0.391111111,1,0,0,0.574444444,-0.382222222,1,0,0,-53.33333333,32,20,75,-92.33333333,55.66666667,55.66666667,0.41,-0.302222222,1,0,0,2.65,submitButton,55.66666667,0.268888889,-0.385555556,0,0,0,0,0,0,16,1,32,69844,blockT,180,2022-02-14_15h50.17.764,orientation adjustment block,2021.2.3,MacIntel,62.5,,,,,,,
,,,,,,,,,,,,,,,,,,,,,,53.33333333,72,20,75,71.33333333,0.666666667,0.666666667,0.378888889,-0.306666667,1,0,0,1.866,submitButton,28.16666667,0.067777778,-0.285555556,0,0,0,0,1,1,56,1,72,69844,blockT,180,2022-02-14_15h50.17.764,orientation adjustment block,2021.2.3,MacIntel,62.5,,,,,,,
,,,,,,,,,,,,,,,,,,,,,,-25.55555556,48,20,75,44.44444444,3.555555556,3.555555556,0.224444444,-0.298888889,1,0,0,0.216,submitButton,19.96296296,0.12,-0.355555556,0,0,0,0,2,2,32,1,48,69844,blockT,180,2022-02-14_15h50.17.764,orientation adjustment block,2021.2.3,MacIntel,62.5,,,,,,,
,,,,,,,,,,,,,,,,,,,,,,73.33333333,-37,20,75,-39.66666667,2.666666667,2.666666667,0.384444444,-0.292222222,1,0,0,0.133,submitButton,2.666666667,0.142222222,-0.201111111,0,0,0,0,3,3,21,1,37,69844,blockT,180,2022-02-14_15h50.17.764,orientation adjustment block,2021.2.3,MacIntel,62.5,,,,,,,
,,,,,,,,,,,,,,,,,,,,,,33.33333333,-43,20,75,-35.66666667,7.333333333,7.333333333,0.433333333,-0.303333333,1,0,0,0.134,submitButton,5,-0.01,-0.362222222,0,0,0,0,4,4,27,1,43,69844,blockT,180,2022-02-14_15h50.17.764,orientation adjustment block,2021.2.3,MacIntel,62.5,,,,,,,
,,,,,,,,,,,,,,,,,,,,,,-40,49,20,75,48,1,1,0.204444444,-0.297777778,1,0,0,0.017,submitButton,3.666666667,0.005555556,-0.314444444,0,0,0,0,5,5,33,1,49,69844,blockT,180,2022-02-14_15h50.17.764,orientation adjustment block,2021.2.3,MacIntel,62.5,,,,,,,
,,,,,,,,,,,,,,,,,,,,,,-30.55555556,-38,20,75,-216.5555556,1.444444444,1.444444444,0.377777778,-0.294444444,1,0,0,0.15,submitButton,1.444444444,-0.077777778,-0.178888889,0,0,0,0,6,6,22,1,38,69844,blockT,180,2022-02-14_15h50.17.764,orientation adjustment block,2021.2.3,MacIntel,62.5,,,,,,,
,,,,,,,,,,,,,,,,,,,,,,20.55555556,64,20,75,66.55555556,2.555555556,2.555555556,0.218888889,-0.284444444,1,0,0,0.367,submitButton,2,0.075555556,-0.177777778,0,0,0,0,7,7,48,1,64,69844,blockT,180,2022-02-14_15h50.17.764,orientation adjustment block,2021.2.3,MacIntel,62.5,,,,,,,
,,,,,,,,,,,,,,,,,,,,,,58.88888889,24,20,75,206.8888889,2.888888889,2.888888889,0.211111111,-0.287777778,1,0,0,0.2,submitButton,2.296296296,-0.034444444,-0.343333333,0,0,0,0,8,8,8,1,24,69844,blockT,180,2022-02-14_15h50.17.764,orientation adjustment block,2021.2.3,MacIntel,62.5,,,,,,,
,,,,,,,,,,,,,,,,,,,,,,46.11111111,-73,20,75,-62.88888889,10.11111111,10.11111111,0.384444444,-0.311111111,1,0,0,0.165,submitButton,10.11111111,-0.192222222,-0.297777778,0,0,0,0,9,9,57,1,73,69844,blockT,180,2022-02-14_15h50.17.764,orientation adjustment block,2021.2.3,MacIntel,62.5,,,,,,,
,,,,,,,,,,,,,,,,,,,,,,-43.88888889,66,20,75,60.11111111,5.888888889,5.888888889,0.212222222,-0.298888889,1,0,0,0.05,submitButton,8,0.146666667,-0.291111111,0,0,0,0,10,10,50,1,66,69844,blockT,180,2022-02-14_15h50.17.764,orientation adjustment block,2021.2.3,MacIntel,62.5,,,,,,,
,,,,,,,,,,,,,,,,,,,,,,-33.88888889,-63,20,75,-79.88888889,16.88888889,16.88888889,0.402222222,-0.292222222,1,0,0,0.249,submitButton,10.96296296,0.155555556,-0.345555556,0,0,0,0,11,11,47,1,63,69844,blockT,180,2022-02-14_15h50.17.764,orientation adjustment block,2021.2.3,MacIntel,62.5,,,,,,,
,,,,,,,,,,,,,,,,,,,,,,-39.44444444,57,20,75,53.55555556,3.444444444,3.444444444,0.222222222,-0.295555556,1,0,0,0.033,submitButton,3.444444444,-0.044444444,-0.343333333,0,0,0,0,12,12,41,1,57,69844,blockT,180,2022-02-14_15h50.17.764,orientation adjustment block,2021.2.3,MacIntel,62.5,,,,,,,
,,,,,,,,,,,,,,,,,,,,,,44.44444444,-19,20,75,-24.55555556,5.555555556,5.555555556,0.377777778,-0.307777778,1,0,0,0.067,submitButton,4.5,-0.12,-0.198888889,0,0,0,0,13,13,3,1,19,69844,blockT,180,2022-02-14_15h50.17.764,orientation adjustment block,2021.2.3,MacIntel,62.5,,,,,,,
,,,,,,,,,,,,,,,,,,,,,,43.88888889,59,20,75,57.88888889,1.111111111,1.111111111,0.352222222,-0.297777778,1,0,0,0.284,submitButton,3.37037037,0.394444444,-0.397777778,1,0,0,0,14,14,43,1,59,69844,blockT,180,2022-02-14_15h50.17.764,orientation adjustment block,2021.2.3,MacIntel,62.5,continueButton,,,,,,
,,,,,,,,,,,,,,,,,,,,,,-45,52,20,75,39,13,13,0.243333333,-0.315555556,1,0,0,0.117,submitButton,13,0,-0.333333333,0,0,0,0,15,15,36,1,52,69844,blockT,180,2022-02-14_15h50.17.764,orientation adjustment block,2021.2.3,MacIntel,62.5,,,,,,,
,,,,,,,,,,,,,,,,,,,,,,-41.11111111,-55,20,75,-52.11111111,2.888888889,2.888888889,0.174444444,-0.294444444,1,0,0,0.65,submitButton,7.944444444,0.258888889,-0.361111111,0,0,0,0,16,16,39,1,55,69844,blockT,180,2022-02-14_15h50.17.764,orientation adjustment block,2021.2.3,MacIntel,62.5,,,,,,,
,,,,,,,,,,,,,,,,,,,,,,20.55555556,58,20,75,57.55555556,0.444444444,0.444444444,0.397777778,-0.286666667,1,0,0,0.201,submitButton,5.444444444,0.153333333,-0.295555556,0,0,0,0,17,17,42,1,58,69844,blockT,180,2022-02-14_15h50.17.764,orientation adjustment block,2021.2.3,MacIntel,62.5,,,,,,,
,,,,,,,,,,,,,,,,,,,,,,-32.22222222,-69,20,75,-79.22222222,10.22222222,10.22222222,0.383333333,-0.293333333,1,0,0,0.25,submitButton,6.638888889,0.073333333,-0.142222222,0,0,0,0,18,18,53,1,69,69844,blockT,180,2022-02-14_15h50.17.764,orientation adjustment block,2021.2.3,MacIntel,62.5,,,,,,,
,,,,,,,,,,,,,,,,,,,,,,-33.33333333,39,20,75,35.66666667,3.333333333,3.333333333,0.233333333,-0.301111111,1,0,0,0.182,submitButton,5.977777778,0.293333333,-0.282222222,0,0,0,0,19,19,23,1,39,69844,blockT,180,2022-02-14_15h50.17.764,orientation adjustment block,2021.2.3,MacIntel,62.5,,,,,,,
,,,,,,,,,,,,,,,,,,,,,,60,17,20,75,39,22,22,0.403333333,-0.291111111,1,0,0,0.066,submitButton,8.648148148,-0.046666667,-0.224444444,0,0,0,0,20,20,1,1,17,69844,blockT,180,2022-02-14_15h50.17.764,orientation adjustment block,2021.2.3,MacIntel,62.5,,,,,,,
,,,,,,,,,,,,,,,,,,,,,,40.55555556,25,20,75,37.55555556,12.55555556,12.55555556,0.39,-0.278888889,1,0,0,0.115,submitButton,9.206349206,0.234444444,-0.212222222,0,0,0,0,21,21,9,1,25,69844,blockT,180,2022-02-14_15h50.17.764,orientation adjustment block,2021.2.3,MacIntel,62.5,,,,,,,
,,,,,,,,,,,,,,,,,,,,,,-48.33333333,35,20,75,37.66666667,2.666666667,2.666666667,0.242222222,-0.285555556,1,0,0,0.033,submitButton,8.388888889,0.137777778,-0.193333333,0,0,0,0,22,22,19,1,35,69844,blockT,180,2022-02-14_15h50.17.764,orientation adjustment block,2021.2.3,MacIntel,62.5,,,,,,,
,,,,,,,,,,,,,,,,,,,,,,48.33333333,20,20,75,34.33333333,14.33333333,14.33333333,0.395555556,-0.282222222,1,0,0,0.017,submitButton,9.049382716,0.001111111,-0.144444444,0,0,0,0,23,23,4,1,20,69844,blockT,180,2022-02-14_15h50.17.764,orientation adjustment block,2021.2.3,MacIntel,62.5,,,,,,,
,,,,,,,,,,,,,,,,,,,,,,-62.77777778,29,20,75,30.22222222,1.222222222,1.222222222,0.22,-0.278888889,1,0,0,0.149,submitButton,8.266666667,0.22,-0.43,0,0,0,0,24,24,13,1,29,69844,blockT,180,2022-02-14_15h50.17.764,orientation adjustment block,2021.2.3,MacIntel,62.5,,,,,,,
,,,,,,,,,,,,,,,,,,,,,,38.88888889,71,20,75,77.88888889,6.888888889,6.888888889,0.413333333,-0.308888889,1,0,0,0.034,submitButton,8.141414141,0.354444444,-0.366666667,0,0,0,0,25,25,55,1,71,69844,blockT,180,2022-02-14_15h50.17.764,orientation adjustment block,2021.2.3,MacIntel,62.5,,,,,,,
,,,,,,,,,,,,,,,,,,,,,,73.88888889,-68,20,75,-61.11111111,6.888888889,6.888888889,0.414444444,-0.295555556,1,0,0,0.717,submitButton,8.037037037,0.278888889,-0.26,0,0,0,0,26,26,52,1,68,69844,blockT,180,2022-02-14_15h50.17.764,orientation adjustment block,2021.2.3,MacIntel,62.5,,,,,,,
,,,,,,,,,,,,,,,,,,,,,,27.22222222,36,20,75,61.22222222,25.22222222,25.22222222,0.215555556,-0.303333333,1,0,0,0.821,submitButton,9.358974359,0.214444444,-0.358888889,0,0,0,0,27,27,20,1,36,69844,blockT,180,2022-02-14_15h50.17.764,orientation adjustment block,2021.2.3,MacIntel,62.5,,,,,,,
,,,,,,,,,,,,,,,,,,,,,,60,42,20,75,36,6,6,0.371111111,-0.302222222,1,0,0,0.901,submitButton,9.119047619,0.398888889,-0.333333333,0,0,0,0,28,28,26,1,42,69844,blockT,180,2022-02-14_15h50.17.764,orientation adjustment block,2021.2.3,MacIntel,62.5,,,,,,,
,,,,,,,,,,,,,,,,,,,,,,27.22222222,62,20,75,48.22222222,13.77777778,13.77777778,-0.212222222,-0.391111111,1,0,0,1.083,submitButton,9.42962963,0.382222222,-0.403333333,1,0,0,0,29,29,46,1,62,69844,blockT,180,2022-02-14_15h50.17.764,orientation adjustment block,2021.2.3,MacIntel,62.5,continueButton,,,,,,
,,,,,,,,,,,,,,,,,,,,,,-63.33333333,31,20,75,23.66666667,7.333333333,7.333333333,0.216666667,-0.286666667,1,0,0,0.184,submitButton,9.298611111,0.313333333,-0.385555556,0,0,0,0,30,30,15,1,31,69844,blockT,180,2022-02-14_15h50.17.764,orientation adjustment block,2021.2.3,MacIntel,62.5,,,,,,,
,,,,,,,,,,,,,,,,,,,,,,55.55555556,34,20,75,216.5555556,2.555555556,2.555555556,-0.23,-0.393333333,1,0,0,2.299,submitButton,8.901960784,0.291111111,-0.304444444,0,0,0,0,31,31,18,1,34,69844,blockT,180,2022-02-14_15h50.17.764,orientation adjustment block,2021.2.3,MacIntel,62.5,,,,,,,
,,,,,,,,,,,,,,,,,,,,,,-61.66666667,54,20,75,-143.6666667,17.66666667,17.66666667,0.387777778,-0.286666667,1,0,0,0.067,submitButton,9.388888889,0.303333333,-0.084444444,0,0,0,0,32,32,38,1,54,69844,blockT,180,2022-02-14_15h50.17.764,orientation adjustment block,2021.2.3,MacIntel,62.5,,,,,,,
,,,,,,,,,,,,,,,,,,,,,,-39.44444444,22,20,75,27.55555556,5.555555556,5.555555556,0.222222222,-0.284444444,1,0,0,0.05,submitButton,9.187134503,0.313333333,-0.143333333,0,0,0,0,33,33,6,1,22,69844,blockT,180,2022-02-14_15h50.17.764,orientation adjustment block,2021.2.3,MacIntel,62.5,,,,,,,
,,,,,,,,,,,,,,,,,,,,,,-22.77777778,-53,20,75,-57.77777778,4.777777778,4.777777778,0.203333333,-0.258888889,1,0,0,0.088,submitButton,8.966666667,0.243333333,-0.235555556,0,0,0,0,34,34,37,1,53,69844,blockT,180,2022-02-14_15h50.17.764,orientation adjustment block,2021.2.3,MacIntel,62.5,,,,,,,
,,,,,,,,,,,,,,,,,,,,,,47.22222222,40,20,75,34.22222222,5.777777778,5.777777778,-0.245555556,-0.404444444,1,0,0,1.251,submitButton,8.814814815,0.301111111,-0.241111111,0,0,0,0,35,35,24,1,40,69844,blockT,180,2022-02-14_15h50.17.764,orientation adjustment block,2021.2.3,MacIntel,62.5,,,,,,,
,,,,,,,,,,,,,,,,,,,,,,59.44444444,61,20,75,61.44444444,0.444444444,0.444444444,-0.293333333,-0.403333333,1,0,0,1.717,submitButton,8.434343434,0.246666667,-0.28,0,0,0,0,36,36,45,1,61,69844,blockT,180,2022-02-14_15h50.17.764,orientation adjustment block,2021.2.3,MacIntel,62.5,,,,,,,
,,,,,,,,,,,,,,,,,,,,,,-75,-26,20,75,-215,9,9,0.192222222,-0.276666667,1,0,0,2.833,submitButton,8.458937198,-0.061111111,-0.156666667,0,0,0,0,37,37,10,1,26,69844,blockT,180,2022-02-14_15h50.17.764,orientation adjustment block,2021.2.3,MacIntel,62.5,,,,,,,
,,,,,,,,,,,,,,,,,,,,,,56.11111111,-65,20,75,-56.88888889,8.111111111,8.111111111,-0.315555556,-0.4,1,0,0,1.482,submitButton,8.444444444,0.068888889,-0.303333333,0,0,0,0,38,38,49,1,65,69844,blockT,180,2022-02-14_15h50.17.764,orientation adjustment block,2021.2.3,MacIntel,62.5,,,,,,,
,,,,,,,,,,,,,,,,,,,,,,70,23,20,75,220,17,17,-0.253333333,-0.384444444,1,0,0,2.282,submitButton,8.786666667,0.383333333,-0.073333333,0,0,0,0,39,39,7,1,23,69844,blockT,180,2022-02-14_15h50.17.764,orientation adjustment block,2021.2.3,MacIntel,62.5,,,,,,,
,,,,,,,,,,,,,,,,,,,,,,-71.11111111,-74,20,75,-72.11111111,1.888888889,1.888888889,-0.27,-0.4,1,0,0,1.85,submitButton,8.521367521,0.498888889,-0.287777778,0,0,0,0,40,40,58,1,74,69844,blockT,180,2022-02-14_15h50.17.764,orientation adjustment block,2021.2.3,MacIntel,62.5,,,,,,,
,,,,,,,,,,,,,,,,,,,,,,32.22222222,16,20,75,31.22222222,15.22222222,15.22222222,0.226666667,-0.314444444,1,0,0,0.783,submitButton,8.769547325,0.151111111,-0.113333333,0,0,0,0,41,41,0,1,16,69844,blockT,180,2022-02-14_15h50.17.764,orientation adjustment block,2021.2.3,MacIntel,62.5,,,,,,,
,,,,,,,,,,,,,,,,,,,,,,-47.22222222,60,20,75,56.77777778,3.222222222,3.222222222,0.388888889,-0.293333333,1,0,0,0.183,submitButton,8.571428571,0.387777778,-0.257777778,0,0,0,0,42,42,44,1,60,69844,blockT,180,2022-02-14_15h50.17.764,orientation adjustment block,2021.2.3,MacIntel,62.5,,,,,,,
,,,,,,,,,,,,,,,,,,,,,,-62.77777778,-30,20,75,-63.77777778,33.77777778,33.77777778,-0.318888889,-0.407777778,1,0,0,1.217,submitButton,9.440613027,0.247777778,-0.231111111,0,0,0,0,43,43,14,1,30,69844,blockT,180,2022-02-14_15h50.17.764,orientation adjustment block,2021.2.3,MacIntel,62.5,,,,,,,
,,,,,,,,,,,,,,,,,,,,,,23.88888889,27,20,75,27.88888889,0.888888889,0.888888889,-0.208888889,-0.375555556,1,0,0,0.717,submitButton,9.155555556,0.364444444,-0.393333333,1,0,0,0,44,44,11,1,27,69844,blockT,180,2022-02-14_15h50.17.764,orientation adjustment block,2021.2.3,MacIntel,62.5,continueButton,,,,,,
,,,,,,,,,,,,,,,,,,,,,,43.33333333,-70,20,75,-49.66666667,20.33333333,20.33333333,0.363333333,-0.302222222,1,0,0,0.017,submitButton,9.516129032,0.246666667,-0.35,0,0,0,0,45,45,54,1,70,69844,blockT,180,2022-02-14_15h50.17.764,orientation adjustment block,2021.2.3,MacIntel,62.5,,,,,,,
,,,,,,,,,,,,,,,,,,,,,,66.66666667,-21,20,75,-30.33333333,9.333333333,9.333333333,-0.242222222,-0.414444444,1,0,0,1.926,submitButton,9.510416667,0.202222222,-0.341111111,0,0,0,0,46,46,5,1,21,69844,blockT,180,2022-02-14_15h50.17.764,orientation adjustment block,2021.2.3,MacIntel,62.5,,,,,,,
,,,,,,,,,,,,,,,,,,,,,,-31.11111111,44,20,75,36.88888889,7.111111111,7.111111111,-0.358888889,-0.383333333,1,0,0,0.683,submitButton,9.437710438,0.246666667,-0.295555556,0,0,0,0,47,47,28,1,44,69844,blockT,180,2022-02-14_15h50.17.764,orientation adjustment block,2021.2.3,MacIntel,62.5,,,,,,,
,,,,,,,,,,,,,,,,,,,,,,27.22222222,-67,20,75,-62.77777778,4.222222222,4.222222222,-0.288888889,-0.377777778,1,0,0,0.783,submitButton,9.284313725,0.187777778,-0.34,0,0,0,0,48,48,51,1,67,69844,blockT,180,2022-02-14_15h50.17.764,orientation adjustment block,2021.2.3,MacIntel,62.5,,,,,,,
,,,,,,,,,,,,,,,,,,,,,,27.77777778,-56,20,75,-41.22222222,14.77777778,14.77777778,0.19,-0.301111111,1,0,0,1.058,submitButton,9.441269841,-0.187777778,-0.413333333,0,0,0,0,49,49,40,1,56,69844,blockT,180,2022-02-14_15h50.17.764,orientation adjustment block,2021.2.3,MacIntel,62.5,,,,,,,
,,,,,,,,,,,,,,,,,,,,,,56.11111111,51,20,75,232.1111111,1.111111111,1.111111111,-0.341111111,-0.406666667,1,0,0,2.232,submitButton,9.209876543,-0.198888889,-0.268888889,0,0,0,0,50,50,35,1,51,69844,blockT,180,2022-02-14_15h50.17.764,orientation adjustment block,2021.2.3,MacIntel,62.5,,,,,,,
,,,,,,,,,,,,,,,,,,,,,,-36.66666667,33,20,75,23.33333333,9.666666667,9.666666667,-0.326666667,-0.42,1,0,0,1.001,submitButton,9.222222222,-0.326666667,-0.418888889,0,0,0,0,51,51,17,1,33,69844,blockT,180,2022-02-14_15h50.17.764,orientation adjustment block,2021.2.3,MacIntel,62.5,,,,,,,
,,,,,,,,,,,,,,,,,,,,,,-60.55555556,41,20,75,33.44444444,7.555555556,7.555555556,-0.301111111,-0.407777778,1,0,0,1.333,submitButton,9.178362573,-0.301111111,-0.407777778,0,0,0,0,52,52,25,1,41,69844,blockT,180,2022-02-14_15h50.17.764,orientation adjustment block,2021.2.3,MacIntel,62.5,,,,,,,
,,,,,,,,,,,,,,,,,,,,,,-70.55555556,18,20,75,31.44444444,13.44444444,13.44444444,-0.261111111,-0.387777778,1,0,0,1.809,submitButton,9.287749288,-0.261111111,-0.387777778,0,0,0,0,53,53,2,1,18,69844,blockT,180,2022-02-14_15h50.17.764,orientation adjustment block,2021.2.3,MacIntel,62.5,,,,,,,
,,,,,,,,,,,,,,,,,,,,,,-71.11111111,-75,20,75,-80.11111111,5.111111111,5.111111111,-0.343333333,-0.41,1,0,0,1.133,submitButton,9.183333333,-0.343333333,-0.41,0,0,0,0,54,54,59,1,75,69844,blockT,180,2022-02-14_15h50.17.764,orientation adjustment block,2021.2.3,MacIntel,62.5,,,,,,,
,,,,,,,,,,,,,,,,,,,,,,63.88888889,28,20,75,34.88888889,6.888888889,6.888888889,-0.26,-0.386666667,1,0,0,0.968,submitButton,9.127371274,-0.261111111,-0.386666667,0,0,0,0,55,55,12,1,28,69844,blockT,180,2022-02-14_15h50.17.764,orientation adjustment block,2021.2.3,MacIntel,62.5,,,,,,,
,,,,,,,,,,,,,,,,,,,,,,26.66666667,45,20,75,54.66666667,9.666666667,9.666666667,0.376666667,-0.293333333,1,0,0,0.016,submitButton,9.14021164,-0.242222222,-0.397777778,0,0,0,0,56,56,29,1,45,69844,blockT,180,2022-02-14_15h50.17.764,orientation adjustment block,2021.2.3,MacIntel,62.5,,,,,,,
,,,,,,,,,,,,,,,,,,,,,,-66.66666667,50,20,75,47.33333333,2.666666667,2.666666667,0.14,-0.293333333,1,0,0,0.209,submitButton,8.989664083,-0.348888889,-0.394444444,0,0,0,0,57,57,34,1,50,69844,blockT,180,2022-02-14_15h50.17.764,orientation adjustment block,2021.2.3,MacIntel,62.5,,,,,,,
,,,,,,,,,,,,,,,,,,,,,,-58.88888889,-46,20,75,-234.8888889,8.888888889,8.888888889,-0.201111111,-0.407777778,1,0,0,2.55,submitButton,8.987373737,0.058888889,-0.267777778,0,0,0,0,58,58,30,1,46,69844,blockT,180,2022-02-14_15h50.17.764,orientation adjustment block,2021.2.3,MacIntel,62.5,,,,,,,
,,,,,,,,,,,,,,,,,,,,,,57.22222222,47,20,75,233.2222222,6.222222222,6.222222222,0.246666667,-0.301111111,1,0,0,0.033,submitButton,8.925925926,0.4,-0.402222222,1,0,0,0,59,59,31,1,47,69844,blockT,180,2022-02-14_15h50.17.764,orientation adjustment block,2021.2.3,MacIntel,62.5,continueButton,,,,,,
,,,,,,,,,,,,,,,,,,,,,,26.66666667,17,20,75,25.66666667,8.666666667,8.666666667,-0.296666667,-0.404444444,1,0,0,0.466,submitButton,8.920289855,0.236666667,-0.324444444,0,0,0,1,0,60,1,1,17,69844,blockT,180,2022-02-14_15h50.17.764,orientation adjustment block,2021.2.3,MacIntel,62.5,,,,,,,
,,,,,,,,,,,,,,,,,,,,,,41.11111111,52,20,75,54.11111111,2.111111111,2.111111111,0.424444444,-0.306666667,1,0,0,0.234,submitButton,8.775413712,0.057777778,-0.322222222,0,0,0,1,1,61,36,1,52,69844,blockT,180,2022-02-14_15h50.17.764,orientation adjustment block,2021.2.3,MacIntel,62.5,,,,,,,
,,,,,,,,,,,,,,,,,,,,,,41.66666667,21,20,75,29.66666667,8.666666667,8.666666667,-0.255555556,-0.396666667,1,0,0,3.366,submitButton,8.773148148,-0.255555556,-0.396666667,0,0,0,1,2,62,5,1,21,69844,blockT,180,2022-02-14_15h50.17.764,orientation adjustment block,2021.2.3,MacIntel,62.5,,,,,,,
,,,,,,,,,,,,,,,,,,,,,,69.44444444,-61,20,75,-38.55555556,22.44444444,22.44444444,0.221111111,-0.285555556,1,0,0,1.799,submitButton,9.052154195,0.114444444,-0.283333333,0,0,0,1,3,63,45,1,61,69844,blockT,180,2022-02-14_15h50.17.764,orientation adjustment block,2021.2.3,MacIntel,62.5,,,,,,,
,,,,,,,,,,,,,,,,,,,,,,21.66666667,31,20,75,29.66666667,1.333333333,1.333333333,0.383333333,-0.277777778,1,0,0,0.051,submitButton,8.897777778,-0.283333333,-0.413333333,0,0,0,1,4,64,15,1,31,69844,blockT,180,2022-02-14_15h50.17.764,orientation adjustment block,2021.2.3,MacIntel,62.5,,,,,,,
,,,,,,,,,,,,,,,,,,,,,,-56.11111111,-20,20,75,-29.11111111,9.111111111,9.111111111,0.233333333,-0.308888889,1,0,0,0.058,submitButton,8.901960784,-0.472222222,-0.41,0,0,0,1,5,65,4,1,20,69844,blockT,180,2022-02-14_15h50.17.764,orientation adjustment block,2021.2.3,MacIntel,62.5,,,,,,,
,,,,,,,,,,,,,,,,,,,,,,-60,43,20,75,-132,5,5,0.362222222,-0.283333333,1,0,0,0.082,submitButton,8.826923077,0.124444444,-0.314444444,0,0,0,1,6,66,27,1,43,69844,blockT,180,2022-02-14_15h50.17.764,orientation adjustment block,2021.2.3,MacIntel,62.5,,,,,,,
,,,,,,,,,,,,,,,,,,,,,,41.11111111,-27,20,75,-20.88888889,6.111111111,6.111111111,0.243333333,-0.302222222,1,0,0,0.133,submitButton,8.775681342,-0.148888889,-0.395555556,0,0,0,1,7,67,11,1,27,69844,blockT,180,2022-02-14_15h50.17.764,orientation adjustment block,2021.2.3,MacIntel,62.5,,,,,,,
,,,,,,,,,,,,,,,,,,,,,,-25,-19,20,75,-37,18,18,-0.254444444,-0.421111111,1,0,0,0.651,submitButton,8.946502058,0.053333333,-0.351111111,0,0,0,1,8,68,3,1,19,69844,blockT,180,2022-02-14_15h50.17.764,orientation adjustment block,2021.2.3,MacIntel,62.5,,,,,,,
,,,,,,,,,,,,,,,,,,,,,,41.66666667,35,20,75,29.66666667,5.333333333,5.333333333,0.397777778,-0.307777778,1,0,0,2.583,submitButton,8.880808081,-0.367777778,-0.391111111,0,0,0,1,9,69,19,1,35,69844,blockT,180,2022-02-14_15h50.17.764,orientation adjustment block,2021.2.3,MacIntel,62.5,,,,,,,
,,,,,,,,,,,,,,,,,,,,,,-72.22222222,24,20,75,-18.22222222,42.22222222,42.22222222,-0.277777778,-0.4,1,0,0,1.151,submitButton,9.476190476,-0.277777778,-0.4,0,0,0,1,10,70,8,1,24,69844,blockT,180,2022-02-14_15h50.17.764,orientation adjustment block,2021.2.3,MacIntel,62.5,,,,,,,
,,,,,,,,,,,,,,,,,,,,,,53.33333333,-75,20,75,-66.66666667,8.333333333,8.333333333,-0.185555556,-0.387777778,1,0,0,0.867,submitButton,9.456140351,-0.186666667,-0.387777778,0,0,0,1,11,71,59,1,75,69844,blockT,180,2022-02-14_15h50.17.764,orientation adjustment block,2021.2.3,MacIntel,62.5,,,,,,,
,,,,,,,,,,,,,,,,,,,,,,-70.55555556,46,20,75,36.44444444,9.555555556,9.555555556,0.211111111,-0.311111111,1,0,0,0.063,submitButton,9.457854406,-0.283333333,-0.394444444,0,0,0,1,12,72,30,1,46,69844,blockT,180,2022-02-14_15h50.17.764,orientation adjustment block,2021.2.3,MacIntel,62.5,,,,,,,
,,,,,,,,,,,,,,,,,,,,,,62.77777778,39,20,75,39.77777778,0.777777778,0.777777778,0.378888889,-0.315555556,1,0,0,0.2,submitButton,9.310734463,-0.131111111,-0.336666667,0,0,0,1,13,73,23,1,39,69844,blockT,180,2022-02-14_15h50.17.764,orientation adjustment block,2021.2.3,MacIntel,62.5,,,,,,,
,,,,,,,,,,,,,,,,,,,,,,52.22222222,37,20,75,206.2222222,10.77777778,10.77777778,-0.226666667,-0.39,1,0,0,2.383,submitButton,9.335185185,0.358888889,-0.382222222,1,0,0,1,14,74,21,1,37,69844,blockT,180,2022-02-14_15h50.17.764,orientation adjustment block,2021.2.3,MacIntel,62.5,continueButton,,,,,,
,,,,,,,,,,,,,,,,,,,,,,45,65,20,75,80,15,15,0.383333333,-0.311111111,1,0,0,0.016,submitButton,9.428051002,-0.206666667,-0.411111111,0,0,0,1,15,75,49,1,65,69844,blockT,180,2022-02-14_15h50.17.764,orientation adjustment block,2021.2.3,MacIntel,62.5,,,,,,,
,,,,,,,,,,,,,,,,,,,,,,-55,-18,20,75,-43,25,25,-0.261111111,-0.418888889,1,0,0,0.9,submitButton,9.67921147,0.348888889,-0.286666667,0,0,0,1,16,76,2,1,18,69844,blockT,180,2022-02-14_15h50.17.764,orientation adjustment block,2021.2.3,MacIntel,62.5,,,,,,,
,,,,,,,,,,,,,,,,,,,,,,-65.55555556,56,20,75,-124.5555556,0.555555556,0.555555556,-0.335555556,-0.388888889,1,0,0,2.583,submitButton,9.534391534,-0.154444444,-0.4,0,0,0,1,17,77,40,1,56,69844,blockT,180,2022-02-14_15h50.17.764,orientation adjustment block,2021.2.3,MacIntel,62.5,,,,,,,
,,,,,,,,,,,,,,,,,,,,,,-45,-63,20,75,-60,3,3,-0.184444444,-0.36,1,0,0,1.116,submitButton,9.432291667,0.256666667,-0.43,0,0,0,1,18,78,47,1,63,69844,blockT,180,2022-02-14_15h50.17.764,orientation adjustment block,2021.2.3,MacIntel,62.5,,,,,,,
,,,,,,,,,,,,,,,,,,,,,,38.88888889,-36,20,75,-17.11111111,18.88888889,18.88888889,0.245555556,-0.296666667,1,0,0,0.9,submitButton,9.577777778,-0.256666667,-0.407777778,0,0,0,1,19,79,20,1,36,69844,blockT,180,2022-02-14_15h50.17.764,orientation adjustment block,2021.2.3,MacIntel,62.5,,,,,,,
,,,,,,,,,,,,,,,,,,,,,,-24.44444444,66,20,75,63.55555556,2.444444444,2.444444444,-0.236666667,-0.413333333,1,0,0,0.766,submitButton,9.46969697,-0.236666667,-0.412222222,0,0,0,1,20,80,50,1,66,69844,blockT,180,2022-02-14_15h50.17.764,orientation adjustment block,2021.2.3,MacIntel,62.5,,,,,,,
,,,,,,,,,,,,,,,,,,,,,,-67.77777778,44,20,75,20.22222222,23.77777778,23.77777778,0.156666667,-0.308888889,1,0,0,0.417,submitButton,9.683250415,-0.363333333,-0.391111111,0,0,0,1,21,81,28,1,44,69844,blockT,180,2022-02-14_15h50.17.764,orientation adjustment block,2021.2.3,MacIntel,62.5,,,,,,,
,,,,,,,,,,,,,,,,,,,,,,-69.44444444,-34,20,75,-206.4444444,7.555555556,7.555555556,-0.247777778,-0.418888889,1,0,0,1.982,submitButton,9.651960784,-0.247777778,-0.417777778,0,0,0,1,22,82,18,1,34,69844,blockT,180,2022-02-14_15h50.17.764,orientation adjustment block,2021.2.3,MacIntel,62.5,,,,,,,
,,,,,,,,,,,,,,,,,,,,,,-56.66666667,28,20,75,22.33333333,5.666666667,5.666666667,-0.32,-0.417777778,1,0,0,1.21,submitButton,9.594202899,-0.213333333,-0.436666667,0,0,0,1,23,83,12,1,28,69844,blockT,180,2022-02-14_15h50.17.764,orientation adjustment block,2021.2.3,MacIntel,62.5,,,,,,,
,,,,,,,,,,,,,,,,,,,,,,36.11111111,-41,20,75,-21.88888889,19.11111111,19.11111111,-0.312222222,-0.422222222,1,0,0,0.418,submitButton,9.73015873,-0.312222222,-0.417777778,0,0,0,1,24,84,25,1,41,69844,blockT,180,2022-02-14_15h50.17.764,orientation adjustment block,2021.2.3,MacIntel,62.5,,,,,,,
,,,,,,,,,,,,,,,,,,,,,,70,73,20,75,238,15,15,-0.346666667,-0.394444444,1,0,0,2.284,submitButton,9.804381847,0.098888889,-0.368888889,0,0,0,1,25,85,57,1,73,69844,blockT,180,2022-02-14_15h50.17.764,orientation adjustment block,2021.2.3,MacIntel,62.5,,,,,,,
,,,,,,,,,,,,,,,,,,,,,,65.55555556,-59,20,75,-60.44444444,1.444444444,1.444444444,-0.152222222,-0.427777778,1,0,0,1.616,submitButton,9.688271605,-0.152222222,-0.427777778,0,0,0,1,26,86,43,1,59,69844,blockT,180,2022-02-14_15h50.17.764,orientation adjustment block,2021.2.3,MacIntel,62.5,,,,,,,
,,,,,,,,,,,,,,,,,,,,,,40,62,20,75,77,15,15,0.418888889,-0.29,1,0,0,0.033,submitButton,9.761035008,0.253333333,-0.257777778,0,0,0,1,27,87,46,1,62,69844,blockT,180,2022-02-14_15h50.17.764,orientation adjustment block,2021.2.3,MacIntel,62.5,,,,,,,
,,,,,,,,,,,,,,,,,,,,,,-38.88888889,-51,20,75,-66.88888889,15.88888889,15.88888889,0.261111111,-0.284444444,1,0,0,0.349,submitButton,9.843843844,-0.206666667,-0.412222222,0,0,0,1,28,88,35,1,51,69844,blockT,180,2022-02-14_15h50.17.764,orientation adjustment block,2021.2.3,MacIntel,62.5,,,,,,,
,,,,,,,,,,,,,,,,,,,,,,-23.88888889,22,20,75,31.11111111,9.111111111,9.111111111,0.218888889,-0.305555556,1,0,0,0.053,submitButton,9.834074074,0.44,-0.396666667,1,0,0,1,29,89,6,1,22,69844,blockT,180,2022-02-14_15h50.17.764,orientation adjustment block,2021.2.3,MacIntel,62.5,continueButton,,,,,,
,,,,,,,,,,,,,,,,,,,,,,-32.22222222,-50,20,75,-64.22222222,14.22222222,14.22222222,0.355555556,-0.3,1,0,0,1.016,submitButton,9.891812865,-0.23,-0.412222222,0,0,0,1,30,90,34,1,50,69844,blockT,180,2022-02-14_15h50.17.764,orientation adjustment block,2021.2.3,MacIntel,62.5,,,,,,,
,,,,,,,,,,,,,,,,,,,,,,62.22222222,-58,20,75,-47.77777778,10.22222222,10.22222222,-0.174444444,-0.387777778,1,0,0,1.233,submitButton,9.896103896,0.288888889,-0.307777778,0,0,0,1,31,91,42,1,58,69844,blockT,180,2022-02-14_15h50.17.764,orientation adjustment block,2021.2.3,MacIntel,62.5,,,,,,,
,,,,,,,,,,,,,,,,,,,,,,-48.88888889,33,20,75,-136.8888889,10.11111111,10.11111111,-0.264444444,-0.385555556,1,0,0,2.533,submitButton,9.898860399,-0.264444444,-0.385555556,0,0,0,1,32,92,17,1,33,69844,blockT,180,2022-02-14_15h50.17.764,orientation adjustment block,2021.2.3,MacIntel,62.5,,,,,,,
,,,,,,,,,,,,,,,,,,,,,,-51.11111111,64,20,75,56.88888889,7.111111111,7.111111111,-0.34,-0.411111111,1,0,0,1.183,submitButton,9.863572433,-0.34,-0.41,0,0,0,1,33,93,48,1,64,69844,blockT,180,2022-02-14_15h50.17.764,orientation adjustment block,2021.2.3,MacIntel,62.5,,,,,,,
,,,,,,,,,,,,,,,,,,,,,,-73.88888889,49,20,75,-122.8888889,8.111111111,8.111111111,-0.284444444,-0.353333333,1,0,0,2.284,submitButton,9.841666667,-0.288888889,-0.376666667,0,0,0,1,34,94,33,1,49,69844,blockT,180,2022-02-14_15h50.17.764,orientation adjustment block,2021.2.3,MacIntel,62.5,,,,,,,
,,,,,,,,,,,,,,,,,,,,,,39.44444444,23,20,75,51.44444444,28.44444444,28.44444444,0.215555556,-0.288888889,1,0,0,0.767,submitButton,10.07133059,-0.336666667,-0.416666667,0,0,0,1,35,95,7,1,23,69844,blockT,180,2022-02-14_15h50.17.764,orientation adjustment block,2021.2.3,MacIntel,62.5,,,,,,,
,,,,,,,,,,,,,,,,,,,,,,39.44444444,25,20,75,43.44444444,18.44444444,18.44444444,0.368888889,-0.282222222,1,0,0,0.301,submitButton,10.17344173,-0.37,-0.414444444,0,0,0,1,36,96,9,1,25,69844,blockT,180,2022-02-14_15h50.17.764,orientation adjustment block,2021.2.3,MacIntel,62.5,,,,,,,
,,,,,,,,,,,,,,,,,,,,,,-56.66666667,45,20,75,43.33333333,1.666666667,1.666666667,0.221111111,-0.294444444,1,0,0,0.366,submitButton,10.07095047,-0.074444444,-0.494444444,0,0,0,1,37,97,29,1,45,69844,blockT,180,2022-02-14_15h50.17.764,orientation adjustment block,2021.2.3,MacIntel,62.5,,,,,,,
,,,,,,,,,,,,,,,,,,,,,,42.22222222,-55,20,75,-34.77777778,20.22222222,20.22222222,-0.347777778,-0.388888889,1,0,0,0.564,submitButton,10.19179894,-0.09,-0.188888889,0,0,0,1,38,98,39,1,55,69844,blockT,180,2022-02-14_15h50.17.764,orientation adjustment block,2021.2.3,MacIntel,62.5,,,,,,,
,,,,,,,,,,,,,,,,,,,,,,-62.22222222,-32,20,75,-52.22222222,20.22222222,20.22222222,0.218888889,-0.293333333,1,0,0,0.165,submitButton,10.30980392,-0.257777778,-0.384444444,0,0,0,1,39,99,16,1,32,69844,blockT,180,2022-02-14_15h50.17.764,orientation adjustment block,2021.2.3,MacIntel,62.5,,,,,,,
,,,,,,,,,,,,,,,,,,,,,,-57.77777778,-48,20,75,-56.77777778,8.777777778,8.777777778,-0.273333333,-0.392222222,1,0,0,1.05,submitButton,10.29198966,-0.274444444,-0.392222222,0,0,0,1,40,100,32,1,48,69844,blockT,180,2022-02-14_15h50.17.764,orientation adjustment block,2021.2.3,MacIntel,62.5,,,,,,,
,,,,,,,,,,,,,,,,,,,,,,42.77777778,47,20,75,54.77777778,7.777777778,7.777777778,-0.232222222,-0.397777778,1,0,0,0.734,submitButton,10.26309068,-0.228888889,-0.391111111,0,0,0,1,41,101,31,1,47,69844,blockT,180,2022-02-14_15h50.17.764,orientation adjustment block,2021.2.3,MacIntel,62.5,,,,,,,
,,,,,,,,,,,,,,,,,,,,,,-69.44444444,30,20,75,51.55555556,21.55555556,21.55555556,0.235555556,-0.308888889,1,0,0,0.077,submitButton,10.39141414,0.2,-0.173333333,0,0,0,1,42,102,14,1,30,69844,blockT,180,2022-02-14_15h50.17.764,orientation adjustment block,2021.2.3,MacIntel,62.5,,,,,,,
,,,,,,,,,,,,,,,,,,,,,,63.88888889,-57,20,75,-44.11111111,12.88888889,12.88888889,0.408888889,-0.294444444,1,0,0,0.167,submitButton,10.41947566,-0.453333333,-0.398888889,0,0,0,1,43,103,41,1,57,69844,blockT,180,2022-02-14_15h50.17.764,orientation adjustment block,2021.2.3,MacIntel,62.5,,,,,,,
,,,,,,,,,,,,,,,,,,,,,,-31.66666667,-72,20,75,-71.66666667,0.333333333,0.333333333,-0.384444444,-0.438888889,1,0,0,0.937,submitButton,10.30740741,0.385555556,-0.402222222,1,0,0,1,44,104,56,1,72,69844,blockT,180,2022-02-14_15h50.17.764,orientation adjustment block,2021.2.3,MacIntel,62.5,continueButton,,,,,,
,,,,,,,,,,,,,,,,,,,,,,-45.55555556,60,20,75,38.44444444,21.55555556,21.55555556,0.231111111,-0.322222222,1,0,0,0.299,submitButton,10.43101343,-0.063333333,-0.36,0,0,0,1,45,105,44,1,60,69844,blockT,180,2022-02-14_15h50.17.764,orientation adjustment block,2021.2.3,MacIntel,62.5,,,,,,,
,,,,,,,,,,,,,,,,,,,,,,21.11111111,38,20,75,55.11111111,17.11111111,17.11111111,0.377777778,-0.298888889,1,0,0,0.05,submitButton,10.50362319,-0.235555556,-0.378888889,0,0,0,1,46,106,22,1,38,69844,blockT,180,2022-02-14_15h50.17.764,orientation adjustment block,2021.2.3,MacIntel,62.5,,,,,,,
,,,,,,,,,,,,,,,,,,,,,,-59.44444444,74,20,75,63.55555556,10.44444444,10.44444444,-0.303333333,-0.422222222,1,0,0,1.449,submitButton,10.50298686,-0.123333333,-0.397777778,0,0,0,1,47,107,58,1,74,69844,blockT,180,2022-02-14_15h50.17.764,orientation adjustment block,2021.2.3,MacIntel,62.5,,,,,,,
,,,,,,,,,,,,,,,,,,,,,,-37.77777778,53,20,75,43.22222222,9.777777778,9.777777778,0.197777778,-0.286666667,1,0,0,0.617,submitButton,10.49527187,-0.305555556,-0.416666667,0,0,0,1,48,108,37,1,53,69844,blockT,180,2022-02-14_15h50.17.764,orientation adjustment block,2021.2.3,MacIntel,62.5,,,,,,,
,,,,,,,,,,,,,,,,,,,,,,62.22222222,-69,20,75,-41.77777778,27.22222222,27.22222222,0.381111111,-0.301111111,1,0,0,0.084,submitButton,10.67134503,-0.058888889,-0.317777778,0,0,0,1,49,109,53,1,69,69844,blockT,180,2022-02-14_15h50.17.764,orientation adjustment block,2021.2.3,MacIntel,62.5,,,,,,,
,,,,,,,,,,,,,,,,,,,,,,50,40,20,75,54,14,14,0.365555556,-0.283333333,1,0,0,0.337,submitButton,10.70601852,0.185555556,-0.371111111,0,0,0,1,50,110,24,1,40,69844,blockT,180,2022-02-14_15h50.17.764,orientation adjustment block,2021.2.3,MacIntel,62.5,,,,,,,
,,,,,,,,,,,,,,,,,,,,,,38.88888889,-67,20,75,-56.11111111,10.88888889,10.88888889,-0.221111111,-0.391111111,1,0,0,0.85,submitButton,10.70790378,0.041111111,-0.288888889,0,0,0,1,51,111,51,1,67,69844,blockT,180,2022-02-14_15h50.17.764,orientation adjustment block,2021.2.3,MacIntel,62.5,,,,,,,
,,,,,,,,,,,,,,,,,,,,,,-55.55555556,-16,20,75,-36.55555556,20.55555556,20.55555556,0.24,-0.29,1,0,0,0.185,submitButton,10.80839002,0.2,-0.301111111,0,0,0,1,52,112,0,1,16,69844,blockT,180,2022-02-14_15h50.17.764,orientation adjustment block,2021.2.3,MacIntel,62.5,,,,,,,
,,,,,,,,,,,,,,,,,,,,,,43.88888889,29,20,75,54.88888889,25.88888889,25.88888889,-0.254444444,-0.414444444,1,0,0,1.165,submitButton,10.96071829,0.15,-0.377777778,0,0,0,1,53,113,13,1,29,69844,blockT,180,2022-02-14_15h50.17.764,orientation adjustment block,2021.2.3,MacIntel,62.5,,,,,,,
,,,,,,,,,,,,,,,,,,,,,,38.33333333,42,20,75,49.33333333,7.333333333,7.333333333,-0.274444444,-0.413333333,1,0,0,0.941,submitButton,10.92444444,0.297777778,-0.297777778,0,0,0,1,54,114,26,1,42,69844,blockT,180,2022-02-14_15h50.17.764,orientation adjustment block,2021.2.3,MacIntel,62.5,,,,,,,
,,,,,,,,,,,,,,,,,,,,,,32.22222222,68,20,75,79.22222222,11.22222222,11.22222222,0.195555556,-0.306666667,1,0,0,1.032,submitButton,10.92739274,0.247777778,-0.278888889,0,0,0,1,55,115,52,1,68,69844,blockT,180,2022-02-14_15h50.17.764,orientation adjustment block,2021.2.3,MacIntel,62.5,,,,,,,
,,,,,,,,,,,,,,,,,,,,,,-53.33333333,-26,20,75,-56.33333333,30.33333333,30.33333333,-0.231111111,-0.384444444,1,0,0,0.667,submitButton,11.11764706,0.128888889,-0.381111111,0,0,0,1,56,116,10,1,26,69844,blockT,180,2022-02-14_15h50.17.764,orientation adjustment block,2021.2.3,MacIntel,62.5,,,,,,,
,,,,,,,,,,,,,,,,,,,,,,68.88888889,-70,20,75,-48.11111111,21.88888889,21.88888889,-0.308888889,-0.423333333,1,0,0,1.316,submitButton,11.22222222,0.275555556,-0.318888889,0,0,0,1,57,117,54,1,70,69844,blockT,180,2022-02-14_15h50.17.764,orientation adjustment block,2021.2.3,MacIntel,62.5,,,,,,,
,,,,,,,,,,,,,,,,,,,,,,60.55555556,71,20,75,71.55555556,0.555555556,0.555555556,0.233333333,-0.268888889,1,0,0,1.483,submitButton,11.11965812,-0.234444444,-0.358888889,0,0,0,1,58,118,55,1,71,69844,blockT,180,2022-02-14_15h50.17.764,orientation adjustment block,2021.2.3,MacIntel,62.5,,,,,,,
,,,,,,,,,,,,,,,,,,,,,,30.55555556,54,20,75,64.55555556,10.55555556,10.55555556,0.363333333,-0.294444444,1,0,0,0.05,submitButton,11.11428571,0.374444444,-0.414444444,1,0,0,1,59,119,38,1,54,69844,blockT,180,2022-02-14_15h50.17.764,orientation adjustment block,2021.2.3,MacIntel,62.5,continueButton,,,,,,
,,,,,,,,,,,,,,,,,,,,,,29.44444444,24,20,75,33.44444444,9.444444444,9.444444444,-0.32,-0.385555556,1,0,0,0.609,submitButton,11.09853249,0.27,-0.33,0,0,0,2,0,120,8,1,24,69844,blockT,180,2022-02-14_15h50.17.764,orientation adjustment block,2021.2.3,MacIntel,62.5,,,,,,,
,,,,,,,,,,,,,,,,,,,,,,-48.88888889,-27,20,75,-42.88888889,15.88888889,15.88888889,-0.303333333,-0.453333333,1,0,0,0.85,submitButton,11.14330218,0.104444444,-0.291111111,0,0,0,2,1,121,11,1,27,69844,blockT,180,2022-02-14_15h50.17.764,orientation adjustment block,2021.2.3,MacIntel,62.5,,,,,,,
,,,,,,,,,,,,,,,,,,,,,,33.33333333,46,20,75,54.33333333,8.333333333,8.333333333,-0.362222222,-0.425555556,1,0,0,0.6,submitButton,11.11728395,0.046666667,-0.223333333,0,0,0,2,2,122,30,1,46,69844,blockT,180,2022-02-14_15h50.17.764,orientation adjustment block,2021.2.3,MacIntel,62.5,,,,,,,
,,,,,,,,,,,,,,,,,,,,,,72.22222222,-68,20,75,-54.77777778,13.22222222,13.22222222,-0.383333333,-0.407777778,1,0,0,0.967,submitButton,11.13659531,-0.177777778,-0.216666667,0,0,0,2,3,123,52,1,68,69844,blockT,180,2022-02-14_15h50.17.764,orientation adjustment block,2021.2.3,MacIntel,62.5,,,,,,,
,,,,,,,,,,,,,,,,,,,,,,-48.33333333,58,20,75,38.66666667,19.33333333,19.33333333,-0.347777778,-0.386666667,1,0,0,1.083,submitButton,11.21111111,-0.071111111,-0.366666667,0,0,0,2,4,124,42,1,58,69844,blockT,180,2022-02-14_15h50.17.764,orientation adjustment block,2021.2.3,MacIntel,62.5,,,,,,,
,,,,,,,,,,,,,,,,,,,,,,44.44444444,-28,20,75,-31.55555556,3.555555556,3.555555556,-0.26,-0.426666667,1,0,0,1.017,submitButton,11.14214214,0.245555556,-0.176666667,0,0,0,2,5,125,12,1,28,69844,blockT,180,2022-02-14_15h50.17.764,orientation adjustment block,2021.2.3,MacIntel,62.5,,,,,,,
,,,,,,,,,,,,,,,,,,,,,,58.33333333,34,20,75,57.33333333,23.33333333,23.33333333,0.451111111,-0.284444444,1,0,0,0.033,submitButton,11.25099206,0.138888889,-0.258888889,0,0,0,2,6,126,18,1,34,69844,blockT,180,2022-02-14_15h50.17.764,orientation adjustment block,2021.2.3,MacIntel,62.5,,,,,,,
,,,,,,,,,,,,,,,,,,,,,,-26.11111111,17,20,75,41.88888889,24.88888889,24.88888889,-0.365555556,-0.425555556,1,0,0,1.11,submitButton,11.37168142,0.121111111,-0.367777778,0,0,0,2,7,127,1,1,17,69844,blockT,180,2022-02-14_15h50.17.764,orientation adjustment block,2021.2.3,MacIntel,62.5,,,,,,,
,,,,,,,,,,,,,,,,,,,,,,-60,72,20,75,81,9,9,-0.295555556,-0.386666667,1,0,0,1.151,submitButton,11.35087719,0.222222222,-0.38,0,0,0,2,8,128,56,1,72,69844,blockT,180,2022-02-14_15h50.17.764,orientation adjustment block,2021.2.3,MacIntel,62.5,,,,,,,
,,,,,,,,,,,,,,,,,,,,,,75,61,20,75,245,4,4,0.248888889,-0.317777778,1,0,0,0.216,submitButton,11.28695652,-0.347777778,-0.414444444,0,0,0,2,9,129,45,1,61,69844,blockT,180,2022-02-14_15h50.17.764,orientation adjustment block,2021.2.3,MacIntel,62.5,,,,,,,
,,,,,,,,,,,,,,,,,,,,,,27.22222222,-69,20,75,-65.77777778,3.222222222,3.222222222,0.232222222,-0.315555556,1,0,0,0.035,submitButton,11.21743295,0.074444444,-0.314444444,0,0,0,2,10,130,53,1,69,69844,blockT,180,2022-02-14_15h50.17.764,orientation adjustment block,2021.2.3,MacIntel,62.5,,,,,,,
,,,,,,,,,,,,,,,,,,,,,,-38.88888889,-22,20,75,-35.88888889,13.88888889,13.88888889,0.22,-0.29,1,0,0,0.534,submitButton,11.24026591,0.117777778,-0.16,0,0,0,2,11,131,6,1,22,69844,blockT,180,2022-02-14_15h50.17.764,orientation adjustment block,2021.2.3,MacIntel,62.5,,,,,,,
,,,,,,,,,,,,,,,,,,,,,,40,-33,20,75,65,82,82,0.247777778,-0.323333333,1,0,0,1.211,submitButton,11.83992467,-0.047777778,-0.418888889,0,0,0,2,12,132,17,1,33,69844,blockT,180,2022-02-14_15h50.17.764,orientation adjustment block,2021.2.3,MacIntel,62.5,,,,,,,
,,,,,,,,,,,,,,,,,,,,,,-65,59,20,75,63,4,4,-0.357777778,-0.398888889,1,0,0,1.585,submitButton,11.77404295,-0.07,-0.281111111,0,0,0,2,13,133,43,1,59,69844,blockT,180,2022-02-14_15h50.17.764,orientation adjustment block,2021.2.3,MacIntel,62.5,,,,,,,
,,,,,,,,,,,,,,,,,,,,,,-30.55555556,71,20,75,74.44444444,3.444444444,3.444444444,-0.4,-0.378888889,1,0,0,0.784,submitButton,11.70462963,0.376666667,-0.416666667,1,0,0,2,14,134,55,1,71,69844,blockT,180,2022-02-14_15h50.17.764,orientation adjustment block,2021.2.3,MacIntel,62.5,continueButton,,,,,,
,,,,,,,,,,,,,,,,,,,,,,-71.66666667,-54,20,75,-75.66666667,21.66666667,21.66666667,0.24,-0.286666667,1,0,0,0.318,submitButton,11.78696051,0.173333333,-0.198888889,0,0,0,2,15,135,38,1,54,69844,blockT,180,2022-02-14_15h50.17.764,orientation adjustment block,2021.2.3,MacIntel,62.5,,,,,,,
,,,,,,,,,,,,,,,,,,,,,,24.44444444,18,20,75,54.44444444,36.44444444,36.44444444,0.202222222,-0.304444444,1,0,0,0.551,submitButton,11.98907104,0.21,-0.302222222,0,0,0,2,16,136,2,1,18,69844,blockT,180,2022-02-14_15h50.17.764,orientation adjustment block,2021.2.3,MacIntel,62.5,,,,,,,
,,,,,,,,,,,,,,,,,,,,,,35,-16,20,75,-23,7,7,-0.257777778,-0.393333333,1,0,0,1.199,submitButton,11.94850949,-0.064444444,-0.396666667,0,0,0,2,17,137,0,1,16,69844,blockT,180,2022-02-14_15h50.17.764,orientation adjustment block,2021.2.3,MacIntel,62.5,,,,,,,
,,,,,,,,,,,,,,,,,,,,,,-22.77777778,43,20,75,36.22222222,6.777777778,6.777777778,-0.277777778,-0.395555556,1,0,0,0.383,submitButton,11.90681004,0.148888889,-0.422222222,0,0,0,2,18,138,27,1,43,69844,blockT,180,2022-02-14_15h50.17.764,orientation adjustment block,2021.2.3,MacIntel,62.5,,,,,,,
,,,,,,,,,,,,,,,,,,,,,,54.44444444,-64,20,75,-42.55555556,21.44444444,21.44444444,-0.253333333,-0.335555556,1,0,0,0.734,submitButton,11.98311111,-0.198888889,-0.39,0,0,0,2,19,139,48,1,64,69844,blockT,180,2022-02-14_15h50.17.764,orientation adjustment block,2021.2.3,MacIntel,62.5,,,,,,,
,,,,,,,,,,,,,,,,,,,,,,-39.44444444,56,20,75,53.55555556,2.444444444,2.444444444,-0.387777778,-0.451111111,1,0,0,0.833,submitButton,11.90740741,0.201111111,-0.275555556,0,0,0,2,20,140,40,1,56,69844,blockT,180,2022-02-14_15h50.17.764,orientation adjustment block,2021.2.3,MacIntel,62.5,,,,,,,
,,,,,,,,,,,,,,,,,,,,,,-52.22222222,19,20,75,49.77777778,30.77777778,30.77777778,-0.341111111,-0.383333333,1,0,0,2.033,submitButton,12.055993,-0.341111111,-0.383333333,0,0,0,2,21,141,3,1,19,69844,blockT,180,2022-02-14_15h50.17.764,orientation adjustment block,2021.2.3,MacIntel,62.5,,,,,,,
,,,,,,,,,,,,,,,,,,,,,,49.44444444,66,20,75,75.44444444,9.444444444,9.444444444,0.365555556,-0.318888889,1,0,0,0.207,submitButton,12.03559028,0.067777778,-0.347777778,0,0,0,2,22,142,50,1,66,69844,blockT,180,2022-02-14_15h50.17.764,orientation adjustment block,2021.2.3,MacIntel,62.5,,,,,,,
,,,,,,,,,,,,,,,,,,,,,,-20.55555556,-51,20,75,-71.55555556,20.55555556,20.55555556,-0.306666667,-0.424444444,1,0,0,0.682,submitButton,12.10163652,0.148888889,-0.29,0,0,0,2,23,143,35,1,51,69844,blockT,180,2022-02-14_15h50.17.764,orientation adjustment block,2021.2.3,MacIntel,62.5,,,,,,,
,,,,,,,,,,,,,,,,,,,,,,46.11111111,74,20,75,72.11111111,1.888888889,1.888888889,-0.251111111,-0.37,1,0,0,1.35,submitButton,12.02307692,-0.044444444,-0.22,0,0,0,2,24,144,58,1,74,69844,blockT,180,2022-02-14_15h50.17.764,orientation adjustment block,2021.2.3,MacIntel,62.5,,,,,,,
,,,,,,,,,,,,,,,,,,,,,,65.55555556,63,20,75,64.55555556,1.555555556,1.555555556,-0.334444444,-0.402222222,1,0,0,1.633,submitButton,11.94317218,0.023333333,-0.213333333,0,0,0,2,25,145,47,1,63,69844,blockT,180,2022-02-14_15h50.17.764,orientation adjustment block,2021.2.3,MacIntel,62.5,,,,,,,
,,,,,,,,,,,,,,,,,,,,,,46.11111111,26,20,75,46.11111111,20.11111111,20.11111111,0.437777778,-0.32,1,0,0,0.4,submitButton,12.00505051,-0.343333333,-0.393333333,0,0,0,2,26,146,10,1,26,69844,blockT,180,2022-02-14_15h50.17.764,orientation adjustment block,2021.2.3,MacIntel,62.5,,,,,,,
,,,,,,,,,,,,,,,,,,,,,,-42.22222222,50,20,75,44.77777778,5.222222222,5.222222222,0.248888889,-0.301111111,1,0,0,0.267,submitButton,11.9540518,0.094444444,-0.124444444,0,0,0,2,27,147,34,1,50,69844,blockT,180,2022-02-14_15h50.17.764,orientation adjustment block,2021.2.3,MacIntel,62.5,,,,,,,
,,,,,,,,,,,,,,,,,,,,,,41.66666667,-73,20,75,-83.33333333,10.33333333,10.33333333,0.384444444,-0.3,1,0,0,0.033,submitButton,11.94195688,-0.252222222,-0.387777778,0,0,0,2,28,148,57,1,73,69844,blockT,180,2022-02-14_15h50.17.764,orientation adjustment block,2021.2.3,MacIntel,62.5,,,,,,,
,,,,,,,,,,,,,,,,,,,,,,-67.22222222,-35,20,75,-52.22222222,17.22222222,17.22222222,-0.237777778,-0.35,1,0,0,0.834,submitButton,11.98106996,0.44,-0.397777778,1,0,0,2,29,149,19,1,35,69844,blockT,180,2022-02-14_15h50.17.764,orientation adjustment block,2021.2.3,MacIntel,62.5,continueButton,,,,,,
,,,,,,,,,,,,,,,,,,,,,,58.33333333,-37,20,75,-27.66666667,9.333333333,9.333333333,0.374444444,-0.286666667,1,0,0,0.15,submitButton,11.96160131,0.082222222,-0.242222222,0,0,0,2,30,150,21,1,37,69844,blockT,180,2022-02-14_15h50.17.764,orientation adjustment block,2021.2.3,MacIntel,62.5,,,,,,,
,,,,,,,,,,,,,,,,,,,,,,-22.22222222,-62,20,75,-64.22222222,2.222222222,2.222222222,0.188888889,-0.287777778,1,0,0,0.225,submitButton,11.89051095,0.195555556,-0.376666667,0,0,0,2,31,151,46,1,62,69844,blockT,180,2022-02-14_15h50.17.764,orientation adjustment block,2021.2.3,MacIntel,62.5,,,,,,,
,,,,,,,,,,,,,,,,,,,,,,24.44444444,42,20,75,55.44444444,13.44444444,13.44444444,0.394444444,-0.283333333,1,0,0,0.368,submitButton,11.90177134,0.003333333,-0.367777778,0,0,0,2,32,152,26,1,42,69844,blockT,180,2022-02-14_15h50.17.764,orientation adjustment block,2021.2.3,MacIntel,62.5,,,,,,,
,,,,,,,,,,,,,,,,,,,,,,-45.55555556,-55,20,75,-67.55555556,12.55555556,12.55555556,-0.337777778,-0.416666667,1,0,0,1.051,submitButton,11.90647482,0.321111111,-0.187777778,0,0,0,2,33,153,39,1,55,69844,blockT,180,2022-02-14_15h50.17.764,orientation adjustment block,2021.2.3,MacIntel,62.5,,,,,,,
,,,,,,,,,,,,,,,,,,,,,,-26.66666667,-53,20,75,-53.66666667,0.666666667,0.666666667,0.395555556,-0.287777778,1,0,0,0.732,submitButton,11.82619048,0.378888889,-0.254444444,0,0,0,2,34,154,37,1,53,69844,blockT,180,2022-02-14_15h50.17.764,orientation adjustment block,2021.2.3,MacIntel,62.5,,,,,,,
,,,,,,,,,,,,,,,,,,,,,,67.22222222,47,20,75,50.22222222,3.222222222,3.222222222,0.373333333,-0.287777778,1,0,0,0.6,submitButton,11.76516942,0.341111111,-0.114444444,0,0,0,2,35,155,31,1,47,69844,blockT,180,2022-02-14_15h50.17.764,orientation adjustment block,2021.2.3,MacIntel,62.5,,,,,,,
,,,,,,,,,,,,,,,,,,,,,,33.33333333,-44,20,75,-30.66666667,13.33333333,13.33333333,-0.282222222,-0.388888889,1,0,0,1.099,submitButton,11.77621283,0.383333333,-0.142222222,0,0,0,2,36,156,28,1,44,69844,blockT,180,2022-02-14_15h50.17.764,orientation adjustment block,2021.2.3,MacIntel,62.5,,,,,,,
,,,,,,,,,,,,,,,,,,,,,,60.55555556,-65,20,75,-49.44444444,15.55555556,15.55555556,-0.361111111,-0.377777778,1,0,0,1.151,submitButton,11.8026418,-0.207777778,-0.405555556,0,0,0,2,37,157,49,1,65,69844,blockT,180,2022-02-14_15h50.17.764,orientation adjustment block,2021.2.3,MacIntel,62.5,,,,,,,
,,,,,,,,,,,,,,,,,,,,,,-51.11111111,-67,20,75,-83.11111111,16.11111111,16.11111111,0.394444444,-0.284444444,1,0,0,1.306,submitButton,11.83256173,-0.317777778,-0.403333333,0,0,0,2,38,158,51,1,67,69844,blockT,180,2022-02-14_15h50.17.764,orientation adjustment block,2021.2.3,MacIntel,62.5,,,,,,,
,,,,,,,,,,,,,,,,,,,,,,51.66666667,-23,20,75,-21.33333333,1.666666667,1.666666667,-0.343333333,-0.408888889,1,0,0,1.441,submitButton,11.76245211,-0.017777778,-0.261111111,0,0,0,2,39,159,7,1,23,69844,blockT,180,2022-02-14_15h50.17.764,orientation adjustment block,2021.2.3,MacIntel,62.5,,,,,,,
,,,,,,,,,,,,,,,,,,,,,,74.44444444,25,20,75,29.44444444,4.444444444,4.444444444,-0.337777778,-0.398888889,1,0,0,1.583,submitButton,11.71232877,0.043333333,-0.274444444,0,0,0,2,40,160,9,1,25,69844,blockT,180,2022-02-14_15h50.17.764,orientation adjustment block,2021.2.3,MacIntel,62.5,,,,,,,
,,,,,,,,,,,,,,,,,,,,,,68.33333333,60,20,75,48.33333333,11.66666667,11.66666667,-0.328888889,-0.394444444,1,0,0,1.966,submitButton,11.71201814,0.195555556,-0.403333333,0,0,0,2,41,161,44,1,60,69844,blockT,180,2022-02-14_15h50.17.764,orientation adjustment block,2021.2.3,MacIntel,62.5,,,,,,,
,,,,,,,,,,,,,,,,,,,,,,-25.55555556,38,20,75,34.44444444,3.555555556,3.555555556,-0.345555556,-0.397777778,1,0,0,0.884,submitButton,11.65690691,0.223333333,-0.045555556,0,0,0,2,42,162,22,1,38,69844,blockT,180,2022-02-14_15h50.17.764,orientation adjustment block,2021.2.3,MacIntel,62.5,,,,,,,
,,,,,,,,,,,,,,,,,,,,,,21.11111111,57,20,75,67.11111111,10.11111111,10.11111111,0.398888889,-0.291111111,1,0,0,0.351,submitButton,11.64653244,0.127777778,-0.1,0,0,0,2,43,163,41,1,57,69844,blockT,180,2022-02-14_15h50.17.764,orientation adjustment block,2021.2.3,MacIntel,62.5,,,,,,,
,,,,,,,,,,,,,,,,,,,,,,-56.11111111,-31,20,75,-38.11111111,7.111111111,7.111111111,-0.313333333,-0.392222222,1,0,0,1.433,submitButton,11.6162963,0.376666667,-0.396666667,1,0,0,2,44,164,15,1,31,69844,blockT,180,2022-02-14_15h50.17.764,orientation adjustment block,2021.2.3,MacIntel,62.5,continueButton,,,,,,
,,,,,,,,,,,,,,,,,,,,,,-40.55555556,32,20,75,39.44444444,7.444444444,7.444444444,-0.347777778,-0.392222222,1,0,0,1.267,submitButton,11.58866814,-0.073333333,-0.277777778,0,0,0,2,45,165,16,1,32,69844,blockT,180,2022-02-14_15h50.17.764,orientation adjustment block,2021.2.3,MacIntel,62.5,,,,,,,
,,,,,,,,,,,,,,,,,,,,,,60.55555556,45,20,75,53.55555556,8.555555556,8.555555556,0.381111111,-0.306666667,1,0,0,0.033,submitButton,11.56871345,0.22,-0.41,0,0,0,2,46,166,29,1,45,69844,blockT,180,2022-02-14_15h50.17.764,orientation adjustment block,2021.2.3,MacIntel,62.5,,,,,,,
,,,,,,,,,,,,,,,,,,,,,,-65,-52,20,75,-221,11,11,-0.295555556,-0.418888889,1,0,0,1.8,submitButton,11.56499637,0.296666667,-0.116666667,0,0,0,2,47,167,36,1,52,69844,blockT,180,2022-02-14_15h50.17.764,orientation adjustment block,2021.2.3,MacIntel,62.5,,,,,,,
,,,,,,,,,,,,,,,,,,,,,,-40.55555556,70,20,75,72.44444444,2.444444444,2.444444444,-0.344444444,-0.387777778,1,0,0,0.933,submitButton,11.50577201,0.241111111,-0.264444444,0,0,0,2,48,168,54,1,70,69844,blockT,180,2022-02-14_15h50.17.764,orientation adjustment block,2021.2.3,MacIntel,62.5,,,,,,,
,,,,,,,,,,,,,,,,,,,,,,-23.33333333,21,20,75,29.66666667,8.666666667,8.666666667,0.224444444,-0.293333333,1,0,0,0.127,submitButton,11.4874552,0.254444444,-0.28,0,0,0,2,49,169,5,1,21,69844,blockT,180,2022-02-14_15h50.17.764,orientation adjustment block,2021.2.3,MacIntel,62.5,,,,,,,
,,,,,,,,,,,,,,,,,,,,,,-62.22222222,49,20,75,55.77777778,6.777777778,6.777777778,-0.281111111,-0.406666667,1,0,0,1.4,submitButton,11.45726496,0.348888889,-0.172222222,0,0,0,2,50,170,33,1,49,69844,blockT,180,2022-02-14_15h50.17.764,orientation adjustment block,2021.2.3,MacIntel,62.5,,,,,,,
,,,,,,,,,,,,,,,,,,,,,,-32.77777778,39,20,75,40.22222222,1.222222222,1.222222222,-0.251111111,-0.44,1,0,0,0.984,submitButton,11.3920736,0.278888889,-0.418888889,0,0,0,2,51,171,23,1,39,69844,blockT,180,2022-02-14_15h50.17.764,orientation adjustment block,2021.2.3,MacIntel,62.5,,,,,,,
,,,,,,,,,,,,,,,,,,,,,,22.77777778,48,20,75,43.77777778,4.222222222,4.222222222,0.404444444,-0.303333333,1,0,0,0.849,submitButton,11.3466948,0.261111111,-0.244444444,0,0,0,2,52,172,32,1,48,69844,blockT,180,2022-02-14_15h50.17.764,orientation adjustment block,2021.2.3,MacIntel,62.5,,,,,,,
,,,,,,,,,,,,,,,,,,,,,,-22.22222222,-41,20,75,-42.22222222,1.222222222,1.222222222,0.253333333,-0.256666667,1,0,0,0.016,submitButton,11.28301887,0.108888889,-0.362222222,0,0,0,2,53,173,25,1,41,69844,blockT,180,2022-02-14_15h50.17.764,orientation adjustment block,2021.2.3,MacIntel,62.5,,,,,,,
,,,,,,,,,,,,,,,,,,,,,,-46.11111111,-40,20,75,-47.11111111,7.111111111,7.111111111,0.183333333,-0.273333333,1,0,0,0.018,submitButton,11.25694444,0.225555556,-0.243333333,0,0,0,2,54,174,24,1,40,69844,blockT,180,2022-02-14_15h50.17.764,orientation adjustment block,2021.2.3,MacIntel,62.5,,,,,,,
,,,,,,,,,,,,,,,,,,,,,,-60,29,20,75,-148,3,3,0.381111111,-0.313333333,1,0,0,0.484,submitButton,11.20565908,0.15,-0.284444444,0,0,0,2,55,175,13,1,29,69844,blockT,180,2022-02-14_15h50.17.764,orientation adjustment block,2021.2.3,MacIntel,62.5,,,,,,,
,,,,,,,,,,,,,,,,,,,,,,43.33333333,-20,20,75,-28.66666667,8.666666667,8.666666667,-0.173333333,-0.382222222,1,0,0,1.266,submitButton,11.18998628,0.317777778,-0.18,0,0,0,2,56,176,4,1,20,69844,blockT,180,2022-02-14_15h50.17.764,orientation adjustment block,2021.2.3,MacIntel,62.5,,,,,,,
,,,,,,,,,,,,,,,,,,,,,,46.11111111,-36,20,75,-23.88888889,12.11111111,12.11111111,0.344444444,-0.3,1,0,0,0.033,submitButton,11.19563736,0.15,-0.162222222,0,0,0,2,57,177,20,1,36,69844,blockT,180,2022-02-14_15h50.17.764,orientation adjustment block,2021.2.3,MacIntel,62.5,,,,,,,
,,,,,,,,,,,,,,,,,,,,,,55,-30,20,75,-28,2,2,-0.285555556,-0.426666667,1,0,0,1.15,submitButton,11.1395664,0.41,-0.077777778,0,0,0,2,58,178,14,1,30,69844,blockT,180,2022-02-14_15h50.17.764,orientation adjustment block,2021.2.3,MacIntel,62.5,,,,,,,
,,,,,,,,,,,,,,,,,,,,,,54.44444444,-75,20,75,-71.55555556,3.444444444,3.444444444,-0.281111111,-0.388888889,1,0,0,1.183,submitButton,11.09292929,0.267777778,-0.232222222,0,0,0,2,59,179,59,1,75,69844,blockT,180,2022-02-14_15h50.17.764,orientation adjustment block,2021.2.3,MacIntel,62.5,,,,,,,
,,,,,,,,,,,,,,,,,,,,,,,,,,,,,,,,,,,,,,,,,,,,,,,,69844,blockT,180,2022-02-14_15h50.17.764,orientation adjustment block,2021.2.3,MacIntel,62.5,,0.383333333,-0.412222222,1,0,0,EndButtonTxt
