consentMouse1.x,consentMouse1.y,consentMouse1.leftButton,consentMouse1.midButton,consentMouse1.rightButton,consentMouse1.clicked_name,consent_Mouse.x,consent_Mouse.y,consent_Mouse.leftButton,consent_Mouse.midButton,consent_Mouse.rightButton,consent_Mouse.clicked_name,startMouse.x,startMouse.y,startMouse.leftButton,startMouse.midButton,startMouse.rightButton,start_distance,fixedOri,minimalDistance,maxOri,this_ori,accuracy,presented_accuracy,submitMouse.x,submitMouse.y,submitMouse.leftButton,submitMouse.midButton,submitMouse.rightButton,submitMouse.time,submitMouse.clicked_name,block_accuracy,continueMouse.x,continueMouse.y,continueMouse.leftButton,continueMouse.midButton,continueMouse.rightButton,trials.thisRepN,trials.thisTrialN,trials.thisN,trials.thisIndex,trials.ran,startOri,participant,condition,nTrials,date,expName,psychopyVersion,OS,frameRate,continueMouse.clicked_name,EndButtonMouse.x,EndButtonMouse.y,EndButtonMouse.leftButton,EndButtonMouse.midButton,EndButtonMouse.rightButton,EndButtonMouse.clicked_name
0.345370407,-0.404629713,1,0,0,consent_button1,0.345370407,-0.404629713,1,0,0,consent_button,0.226851885,-0.341666692,1,0,0,-41.11111111,54,20,75,50.88888889,3.111111111,3.111111111,0.225925959,-0.289814838,1,0,0,1.0652,submitButton,3.111111111,-0.294444427,-0.401851935,0,0,0,0,0,0,38,1,54,21486,N,180,2022-02-12_11h54.11.939,orientation adjustment blockN,2021.2.3,Win32,60.10337781,,,,,,,
,,,,,,,,,,,,,,,,,-62.22222222,42,20,75,33.77777778,8.222222222,8.222222222,0.20277781,-0.308333357,1,0,0,0.3172,submitButton,5.666666667,-0.324074057,-0.400000027,0,0,0,0,1,1,26,1,42,21486,N,180,2022-02-12_11h54.11.939,orientation adjustment blockN,2021.2.3,Win32,60.10337781,,,,,,,
,,,,,,,,,,,,,,,,,-53.33333333,-36,20,75,-49.33333333,13.33333333,13.33333333,0.214814848,-0.307407488,1,0,0,1.1499,submitButton,8.222222222,-0.34166665,-0.387963046,0,0,0,0,2,2,20,1,36,21486,N,180,2022-02-12_11h54.11.939,orientation adjustment blockN,2021.2.3,Win32,60.10337781,,,,,,,
,,,,,,,,,,,,,,,,,-21.66666667,-61,20,75,-53.66666667,7.333333333,7.333333333,0.201851884,-0.284259283,1,0,0,0.1661,submitButton,7.333333333,-0.34166665,-0.399074157,0,0,0,0,3,3,45,1,61,21486,N,180,2022-02-12_11h54.11.939,orientation adjustment blockN,2021.2.3,Win32,60.10337781,,,,,,,
,,,,,,,,,,,,,,,,,-69.44444444,68,20,75,49.55555556,18.44444444,18.44444444,0.215740774,-0.286111135,1,0,0,0.4165,submitButton,12.88888889,-0.327777761,-0.402777805,0,0,0,0,4,4,52,1,68,21486,N,180,2022-02-12_11h54.11.939,orientation adjustment blockN,2021.2.3,Win32,60.10337781,,,,,,,
,,,,,,,,,,,,,,,,,22.77777778,-62,20,75,-77.22222222,15.22222222,15.22222222,-0.339814798,-0.400925953,1,0,0,2.3256,submitButton,13.66666667,-0.339814798,-0.400925953,0,0,0,0,5,5,46,1,62,21486,N,180,2022-02-12_11h54.11.939,orientation adjustment blockN,2021.2.3,Win32,60.10337781,,,,,,,
,,,,,,,,,,,,,,,,,-62.22222222,-58,20,75,-49.22222222,8.777777778,8.777777778,0.200925958,-0.295370394,1,0,0,0.7329,submitButton,8.777777778,-0.227777758,-0.401851935,0,0,0,0,6,6,42,1,58,21486,N,180,2022-02-12_11h54.11.939,orientation adjustment blockN,2021.2.3,Win32,60.10337781,,,,,,,
,,,,,,,,,,,,,,,,,-71.11111111,-26,20,75,-24.11111111,1.888888889,1.888888889,0.219444477,-0.286111135,1,0,0,0.3334,submitButton,5.333333333,-0.178703683,-0.388888915,0,0,0,0,7,7,10,1,26,21486,N,180,2022-02-12_11h54.11.939,orientation adjustment blockN,2021.2.3,Win32,60.10337781,,,,,,,
,,,,,,,,,,,,,,,,,-26.11111111,-60,20,75,-46.11111111,13.88888889,13.88888889,0.165740772,-0.309259283,1,0,0,1.7493,submitButton,8.185185185,-0.272222204,-0.410185269,0,0,0,0,8,8,44,1,60,21486,N,180,2022-02-12_11h54.11.939,orientation adjustment blockN,2021.2.3,Win32,60.10337781,,,,,,,
,,,,,,,,,,,,,,,,,27.77777778,64,20,75,63.77777778,0.222222222,0.222222222,0.41111115,-0.301851932,1,0,0,0.6159,submitButton,0.222222222,-0.269444426,-0.407407491,0,0,0,0,9,9,48,1,64,21486,N,180,2022-02-12_11h54.11.939,orientation adjustment blockN,2021.2.3,Win32,60.10337781,,,,,,,
,,,,,,,,,,,,,,,,,-62.22222222,32,20,75,41.77777778,9.777777778,9.777777778,0.208333366,-0.299074154,1,0,0,0.134,submitButton,5,-0.23425924,-0.397222249,0,0,0,0,10,10,16,1,32,21486,N,180,2022-02-12_11h54.11.939,orientation adjustment blockN,2021.2.3,Win32,60.10337781,,,,,,,
,,,,,,,,,,,,,,,,,33.88888889,71,20,75,77.88888889,6.888888889,6.888888889,0.197222255,-0.30555558,1,0,0,0.2329,submitButton,5.62962963,-0.223148128,-0.406481508,0,0,0,0,11,11,55,1,71,21486,N,180,2022-02-12_11h54.11.939,orientation adjustment blockN,2021.2.3,Win32,60.10337781,,,,,,,
,,,,,,,,,,,,,,,,,45,30,20,75,47,17,17,0.215740774,-0.29166669,1,0,0,0.0172,submitButton,17,-0.244444425,-0.409259286,0,0,0,0,12,12,14,1,30,21486,N,180,2022-02-12_11h54.11.939,orientation adjustment blockN,2021.2.3,Win32,60.10337781,,,,,,,
,,,,,,,,,,,,,,,,,-47.77777778,-44,20,75,-37.77777778,6.222222222,6.222222222,0.192592625,-0.299074154,1,0,0,0.4995,submitButton,11.61111111,-0.286111093,-0.393518602,0,0,0,0,13,13,28,1,44,21486,N,180,2022-02-12_11h54.11.939,orientation adjustment blockN,2021.2.3,Win32,60.10337781,,,,,,,
,,,,,,,,,,,,,,,,,32.77777778,69,20,75,50.77777778,18.22222222,18.22222222,0.387963001,-0.307407488,1,0,0,0.6493,submitButton,13.81481481,0.262037071,-0.39629638,1,0,0,0,14,14,53,1,69,21486,N,180,2022-02-12_11h54.11.939,orientation adjustment blockN,2021.2.3,Win32,60.10337781,continueButton,,,,,,
,,,,,,,,,,,,,,,,,42.77777778,23,20,75,28.77777778,5.777777778,5.777777778,0.381481519,-0.287963043,1,0,0,0.4671,submitButton,5.777777778,0.024074158,-0.33981484,0,0,0,0,15,15,7,1,23,21486,N,180,2022-02-12_11h54.11.939,orientation adjustment blockN,2021.2.3,Win32,60.10337781,,,,,,,
,,,,,,,,,,,,,,,,,-65,29,20,75,-140,11,11,0.382407445,-0.296296377,1,0,0,0.0168,submitButton,8.388888889,-0.359259243,-0.404629713,0,0,0,0,16,16,13,1,29,21486,N,180,2022-02-12_11h54.11.939,orientation adjustment blockN,2021.2.3,Win32,60.10337781,,,,,,,
,,,,,,,,,,,,,,,,,56.11111111,-52,20,75,52.11111111,75.88888889,75.88888889,0.180555587,-0.329629711,1,0,0,1.6487,submitButton,30.88888889,-0.337037021,-0.413888916,0,0,0,0,17,17,36,1,52,21486,N,180,2022-02-12_11h54.11.939,orientation adjustment blockN,2021.2.3,Win32,60.10337781,,,,,,,
,,,,,,,,,,,,,,,,,-38.33333333,-19,20,75,-32.33333333,13.33333333,13.33333333,0.183333365,-0.29166669,1,0,0,0.4327,submitButton,26.5,-0.275925908,-0.398148175,0,0,0,0,18,18,3,1,19,21486,N,180,2022-02-12_11h54.11.939,orientation adjustment blockN,2021.2.3,Win32,60.10337781,,,,,,,
,,,,,,,,,,,,,,,,,25.55555556,-55,20,75,-57.44444444,2.444444444,2.444444444,0.384259297,-0.301851932,1,0,0,0.1665,submitButton,21.68888889,-0.237962944,-0.393518602,0,0,0,0,19,19,39,1,55,21486,N,180,2022-02-12_11h54.11.939,orientation adjustment blockN,2021.2.3,Win32,60.10337781,,,,,,,
,,,,,,,,,,,,,,,,,-37.22222222,-24,20,75,-25.22222222,1.222222222,1.222222222,-0.290740723,-0.376851934,1,0,0,1.9155,submitButton,18.27777778,-0.290740723,-0.376851934,0,0,0,0,20,20,8,1,24,21486,N,180,2022-02-12_11h54.11.939,orientation adjustment blockN,2021.2.3,Win32,60.10337781,,,,,,,
,,,,,,,,,,,,,,,,,28.88888889,27,20,75,30.88888889,3.888888889,3.888888889,0.412037076,-0.294444468,1,0,0,0.3994,submitButton,16.22222222,-0.423148134,-0.38240749,0,0,0,0,21,21,11,1,27,21486,N,180,2022-02-12_11h54.11.939,orientation adjustment blockN,2021.2.3,Win32,60.10337781,,,,,,,
,,,,,,,,,,,,,,,,,-61.11111111,22,20,75,38.88888889,16.88888889,16.88888889,0.212962996,-0.283333357,1,0,0,0.2994,submitButton,16.30555556,-0.23425924,-0.403703731,0,0,0,0,22,22,6,1,22,21486,N,180,2022-02-12_11h54.11.939,orientation adjustment blockN,2021.2.3,Win32,60.10337781,,,,,,,
,,,,,,,,,,,,,,,,,75,74,20,75,251,3,3,0.189814847,-0.320370395,1,0,0,0.0665,submitButton,14.82716049,-0.359259243,-0.412963047,0,0,0,0,23,23,58,1,74,21486,N,180,2022-02-12_11h54.11.939,orientation adjustment blockN,2021.2.3,Win32,60.10337781,,,,,,,
,,,,,,,,,,,,,,,,,22.77777778,53,20,75,62.77777778,9.777777778,9.777777778,0.358333371,-0.295370394,1,0,0,0.4826,submitButton,14.32222222,-0.373148133,-0.405555583,0,0,0,0,24,24,37,1,53,21486,N,180,2022-02-12_11h54.11.939,orientation adjustment blockN,2021.2.3,Win32,60.10337781,,,,,,,
,,,,,,,,,,,,,,,,,-61.11111111,-35,20,75,-46.11111111,11.11111111,11.11111111,0.195370403,-0.33055558,1,0,0,0.7831,submitButton,14.03030303,-0.276851834,-0.393518602,0,0,0,0,25,25,19,1,35,21486,N,180,2022-02-12_11h54.11.939,orientation adjustment blockN,2021.2.3,Win32,60.10337781,,,,,,,
,,,,,,,,,,,,,,,,,-51.66666667,-40,20,75,-44.66666667,4.666666667,4.666666667,0.394444483,-0.280555579,1,0,0,0.4659,submitButton,13.25,-0.204629609,-0.404629713,0,0,0,0,26,26,24,1,40,21486,N,180,2022-02-12_11h54.11.939,orientation adjustment blockN,2021.2.3,Win32,60.10337781,,,,,,,
,,,,,,,,,,,,,,,,,21.66666667,-37,20,75,-41.33333333,4.333333333,4.333333333,0.397222261,-0.296296377,1,0,0,0.2336,submitButton,12.56410256,-0.235185166,-0.387037063,0,0,0,0,27,27,21,1,37,21486,N,180,2022-02-12_11h54.11.939,orientation adjustment blockN,2021.2.3,Win32,60.10337781,,,,,,,
,,,,,,,,,,,,,,,,,65.55555556,-17,20,75,-40.44444444,23.44444444,23.44444444,0.382407445,-0.299074154,1,0,0,1.0654,submitButton,13.34126984,-0.325925909,-0.385185268,0,0,0,0,28,28,1,1,17,21486,N,180,2022-02-12_11h54.11.939,orientation adjustment blockN,2021.2.3,Win32,60.10337781,,,,,,,
,,,,,,,,,,,,,,,,,28.33333333,-57,20,75,-65.66666667,8.666666667,8.666666667,0.209259292,-0.310185266,1,0,0,1.8591,submitButton,13.02962963,0.375000038,-0.409259286,1,0,0,0,29,29,41,1,57,21486,N,180,2022-02-12_11h54.11.939,orientation adjustment blockN,2021.2.3,Win32,60.10337781,continueButton,,,,,,
,,,,,,,,,,,,,,,,,32.22222222,-51,20,75,-55.77777778,4.777777778,4.777777778,0.189814847,-0.295370394,1,0,0,1.6485,submitButton,12.51388889,-0.330555539,-0.411111138,0,0,0,0,30,30,35,1,51,21486,N,180,2022-02-12_11h54.11.939,orientation adjustment blockN,2021.2.3,Win32,60.10337781,,,,,,,
,,,,,,,,,,,,,,,,,43.33333333,-65,20,75,-83.66666667,18.66666667,18.66666667,0.371296334,-0.295370394,1,0,0,0.0832,submitButton,12.87581699,0.068518547,-0.380555582,0,0,0,0,31,31,49,1,65,21486,N,180,2022-02-12_11h54.11.939,orientation adjustment blockN,2021.2.3,Win32,60.10337781,,,,,,,
,,,,,,,,,,,,,,,,,27.77777778,34,20,75,35.77777778,1.777777778,1.777777778,0.404629668,-0.302777802,1,0,0,1.249,submitButton,12.25925926,-0.300925908,-0.394444471,0,0,0,0,32,32,18,1,34,21486,N,180,2022-02-12_11h54.11.939,orientation adjustment blockN,2021.2.3,Win32,60.10337781,,,,,,,
,,,,,,,,,,,,,,,,,-48.88888889,21,20,75,38.11111111,17.11111111,17.11111111,0.184259291,-0.279629709,1,0,0,0.149,submitButton,12.51461988,-0.19074072,-0.410185269,0,0,0,0,33,33,5,1,21,21486,N,180,2022-02-12_11h54.11.939,orientation adjustment blockN,2021.2.3,Win32,60.10337781,,,,,,,
,,,,,,,,,,,,,,,,,53.33333333,25,20,75,42.33333333,17.33333333,17.33333333,0.400000038,-0.274074154,1,0,0,0.2325,submitButton,12.75555556,-0.182407386,-0.401851935,0,0,0,0,34,34,9,1,25,21486,N,180,2022-02-12_11h54.11.939,orientation adjustment blockN,2021.2.3,Win32,60.10337781,,,,,,,
,,,,,,,,,,,,,,,,,40,-41,20,75,62,77,77,0.203703736,-0.296296377,1,0,0,0.6335,submitButton,15.81481481,-0.199999979,-0.391666693,0,0,0,0,35,35,25,1,41,21486,N,180,2022-02-12_11h54.11.939,orientation adjustment blockN,2021.2.3,Win32,60.10337781,,,,,,,
,,,,,,,,,,,,,,,,,-69.44444444,75,20,75,86.55555556,11.55555556,11.55555556,0.201851884,-0.306481506,1,0,0,0.0665,submitButton,15.62121212,-0.198148128,-0.407407491,0,0,0,0,36,36,59,1,75,21486,N,180,2022-02-12_11h54.11.939,orientation adjustment blockN,2021.2.3,Win32,60.10337781,,,,,,,
,,,,,,,,,,,,,,,,,59.44444444,56,20,75,88.44444444,32.44444444,32.44444444,0.217592626,-0.290740821,1,0,0,1.3662,submitButton,16.352657,-0.267592574,-0.409259286,0,0,0,0,37,37,40,1,56,21486,N,180,2022-02-12_11h54.11.939,orientation adjustment blockN,2021.2.3,Win32,60.10337781,,,,,,,
,,,,,,,,,,,,,,,,,57.22222222,70,20,75,61.22222222,8.777777778,8.777777778,0.198148181,-0.296296377,1,0,0,0.1504,submitButton,16.03703704,-0.19074072,-0.395370397,0,0,0,0,38,38,54,1,70,21486,N,180,2022-02-12_11h54.11.939,orientation adjustment blockN,2021.2.3,Win32,60.10337781,,,,,,,
,,,,,,,,,,,,,,,,,44.44444444,-47,20,75,-54.55555556,7.555555556,7.555555556,0.384259297,-0.274074154,1,0,0,0.9163,submitButton,15.69777778,-0.281481463,-0.425000028,0,0,0,0,39,39,31,1,47,21486,N,180,2022-02-12_11h54.11.939,orientation adjustment blockN,2021.2.3,Win32,60.10337781,,,,,,,
,,,,,,,,,,,,,,,,,-46.66666667,39,20,75,58.33333333,19.33333333,19.33333333,0.183333365,-0.314814839,1,0,0,0.8829,submitButton,15.83760684,-0.212962943,-0.41759262,0,0,0,0,40,40,23,1,39,21486,N,180,2022-02-12_11h54.11.939,orientation adjustment blockN,2021.2.3,Win32,60.10337781,,,,,,,
,,,,,,,,,,,,,,,,,32.22222222,-73,20,75,-62.77777778,10.22222222,10.22222222,0.363888926,-0.30092595,1,0,0,0.3002,submitButton,15.62962963,-0.266666648,-0.41759262,0,0,0,0,41,41,57,1,73,21486,N,180,2022-02-12_11h54.11.939,orientation adjustment blockN,2021.2.3,Win32,60.10337781,,,,,,,
,,,,,,,,,,,,,,,,,41.66666667,38,20,75,53.66666667,15.66666667,15.66666667,0.375000038,-0.288888912,1,0,0,0.3662,submitButton,15.63095238,-0.244444425,-0.415740825,0,0,0,0,42,42,22,1,38,21486,N,180,2022-02-12_11h54.11.939,orientation adjustment blockN,2021.2.3,Win32,60.10337781,,,,,,,
,,,,,,,,,,,,,,,,,45.55555556,-28,20,75,-37.44444444,9.444444444,9.444444444,0.40648152,-0.287963043,1,0,0,0.5328,submitButton,15.41762452,-0.398148134,-0.42222225,0,0,0,0,43,43,12,1,28,21486,N,180,2022-02-12_11h54.11.939,orientation adjustment blockN,2021.2.3,Win32,60.10337781,,,,,,,
,,,,,,,,,,,,,,,,,-67.22222222,-16,20,75,-207.2222222,11.22222222,11.22222222,0.400925964,-0.294444468,1,0,0,0.1659,submitButton,15.27777778,0.382407445,-0.42129638,1,0,0,0,44,44,0,1,16,21486,N,180,2022-02-12_11h54.11.939,orientation adjustment blockN,2021.2.3,Win32,60.10337781,continueButton,,,,,,
,,,,,,,,,,,,,,,,,22.22222222,63,20,75,47.22222222,15.77777778,15.77777778,0.375925964,-0.302777802,1,0,0,0.3995,submitButton,15.29390681,-0.499074034,-0.42129638,0,0,0,0,45,45,47,1,63,21486,N,180,2022-02-12_11h54.11.939,orientation adjustment blockN,2021.2.3,Win32,60.10337781,,,,,,,
,,,,,,,,,,,,,,,,,-31.66666667,-49,20,75,-54.66666667,5.666666667,5.666666667,0.194444477,-0.30555558,1,0,0,0.1934,submitButton,14.99305556,0.160185216,-0.254629709,0,0,0,0,46,46,33,1,49,21486,N,180,2022-02-12_11h54.11.939,orientation adjustment blockN,2021.2.3,Win32,60.10337781,,,,,,,
,,,,,,,,,,,,,,,,,-66.11111111,-43,20,75,-60.11111111,17.11111111,17.11111111,0.2166667,-0.302777802,1,0,0,0.4493,submitButton,15.05723906,-0.298148131,-0.401851935,0,0,0,0,47,47,27,1,43,21486,N,180,2022-02-12_11h54.11.939,orientation adjustment blockN,2021.2.3,Win32,60.10337781,,,,,,,
,,,,,,,,,,,,,,,,,47.77777778,-48,20,75,-49.22222222,1.222222222,1.222222222,0.393518557,-0.298148172,1,0,0,0.1824,submitButton,14.6503268,-0.19074072,-0.407407491,0,0,0,0,48,48,32,1,48,21486,N,180,2022-02-12_11h54.11.939,orientation adjustment blockN,2021.2.3,Win32,60.10337781,,,,,,,
,,,,,,,,,,,,,,,,,36.66666667,-33,20,75,-22.33333333,10.66666667,10.66666667,0.377777816,-0.322222247,1,0,0,0.1005,submitButton,14.53650794,-0.256481463,-0.411111138,0,0,0,0,49,49,17,1,33,21486,N,180,2022-02-12_11h54.11.939,orientation adjustment blockN,2021.2.3,Win32,60.10337781,,,,,,,
,,,,,,,,,,,,,,,,,-33.33333333,46,20,75,46.66666667,0.666666667,0.666666667,-0.383333318,-0.381481508,1,0,0,1.5884,submitButton,14.15123457,-0.383333318,-0.381481508,0,0,0,0,50,50,30,1,46,21486,N,180,2022-02-12_11h54.11.939,orientation adjustment blockN,2021.2.3,Win32,60.10337781,,,,,,,
,,,,,,,,,,,,,,,,,-63.88888889,59,20,75,56.11111111,2.888888889,2.888888889,0.20740744,-0.314814839,1,0,0,0.4009,submitButton,13.84684685,-0.492592581,-0.397222249,0,0,0,0,51,51,43,1,59,21486,N,180,2022-02-12_11h54.11.939,orientation adjustment blockN,2021.2.3,Win32,60.10337781,,,,,,,
,,,,,,,,,,,,,,,,,62.22222222,-20,20,75,-19.77777778,0.222222222,0.222222222,0.371296334,-0.292592616,1,0,0,0.5671,submitButton,13.48830409,-0.478703691,-0.411111138,0,0,0,0,52,52,4,1,20,21486,N,180,2022-02-12_11h54.11.939,orientation adjustment blockN,2021.2.3,Win32,60.10337781,,,,,,,
,,,,,,,,,,,,,,,,,62.77777778,-67,20,75,-63.22222222,3.777777778,3.777777778,0.387037075,-0.309259283,1,0,0,1.0596,submitButton,13.23931624,-0.499074034,-0.40833336,0,0,0,0,53,53,51,1,67,21486,N,180,2022-02-12_11h54.11.939,orientation adjustment blockN,2021.2.3,Win32,60.10337781,,,,,,,
,,,,,,,,,,,,,,,,,-52.22222222,31,20,75,37.77777778,6.777777778,6.777777778,0.20740744,-0.30555558,1,0,0,1.4911,submitButton,13.07777778,-0.375925911,-0.394444471,0,0,0,0,54,54,15,1,31,21486,N,180,2022-02-12_11h54.11.939,orientation adjustment blockN,2021.2.3,Win32,60.10337781,,,,,,,
,,,,,,,,,,,,,,,,,22.77777778,45,20,75,43.77777778,1.222222222,1.222222222,0.387037075,-0.290740821,1,0,0,0.5273,submitButton,12.78861789,-0.34166665,-0.394444471,0,0,0,0,55,55,29,1,45,21486,N,180,2022-02-12_11h54.11.939,orientation adjustment blockN,2021.2.3,Win32,60.10337781,,,,,,,
,,,,,,,,,,,,,,,,,41.11111111,50,20,75,53.11111111,3.111111111,3.111111111,0.412037076,-0.318518599,1,0,0,0.7325,submitButton,12.55820106,-0.342592576,-0.392592619,0,0,0,0,56,56,34,1,50,21486,N,180,2022-02-12_11h54.11.939,orientation adjustment blockN,2021.2.3,Win32,60.10337781,,,,,,,
,,,,,,,,,,,,,,,,,58.33333333,-66,20,75,-66.66666667,0.666666667,0.666666667,-0.326851835,-0.403703731,1,0,0,2.7127,submitButton,12.28165375,-0.326851835,-0.403703731,0,0,0,0,57,57,50,1,66,21486,N,180,2022-02-12_11h54.11.939,orientation adjustment blockN,2021.2.3,Win32,60.10337781,,,,,,,
,,,,,,,,,,,,,,,,,30,72,20,75,52,20,20,0.418518557,-0.310185266,1,0,0,0.0834,submitButton,12.45707071,-0.128703625,-0.403703731,0,0,0,0,58,58,56,1,72,21486,N,180,2022-02-12_11h54.11.939,orientation adjustment blockN,2021.2.3,Win32,60.10337781,,,,,,,
,,,,,,,,,,,,,,,,,-60,18,20,75,42,24,24,0.155555587,-0.296296377,1,0,0,0.1003,submitButton,12.71358025,0.41574078,-0.385185268,1,0,0,0,59,59,2,1,18,21486,N,180,2022-02-12_11h54.11.939,orientation adjustment blockN,2021.2.3,Win32,60.10337781,continueButton,,,,,,
,,,,,,,,,,,,,,,,,21.11111111,-75,20,75,-78.88888889,3.888888889,3.888888889,-0.305555538,-0.39629638,1,0,0,1.8256,submitButton,12.52173913,-0.305555538,-0.39629638,0,0,0,1,0,60,59,1,75,21486,N,180,2022-02-12_11h54.11.939,orientation adjustment blockN,2021.2.3,Win32,60.10337781,,,,,,,
,,,,,,,,,,,,,,,,,-37.77777778,58,20,75,53.22222222,4.777777778,4.777777778,0.175000032,-0.293518599,1,0,0,0.1336,submitButton,12.356974,-0.332407391,-0.376851934,0,0,0,1,1,61,42,1,58,21486,N,180,2022-02-12_11h54.11.939,orientation adjustment blockN,2021.2.3,Win32,60.10337781,,,,,,,
,,,,,,,,,,,,,,,,,36.11111111,64,20,75,68.11111111,4.111111111,4.111111111,0.417592632,-0.289814838,1,0,0,0.5162,submitButton,12.18518519,-0.218518499,-0.401851935,0,0,0,1,2,62,48,1,64,21486,N,180,2022-02-12_11h54.11.939,orientation adjustment blockN,2021.2.3,Win32,60.10337781,,,,,,,
,,,,,,,,,,,,,,,,,46.11111111,24,20,75,44.11111111,20.11111111,20.11111111,0.424074113,-0.273148171,1,0,0,0.5005,submitButton,12.34693878,0.180555587,-0.484259289,0,0,0,1,3,63,8,1,24,21486,N,180,2022-02-12_11h54.11.939,orientation adjustment blockN,2021.2.3,Win32,60.10337781,,,,,,,
,,,,,,,,,,,,,,,,,-56.66666667,65,20,75,63.33333333,1.666666667,1.666666667,0.231481515,-0.303703728,1,0,0,1.0092,submitButton,12.13333333,-0.174999979,-0.410185269,0,0,0,1,4,64,49,1,65,21486,N,180,2022-02-12_11h54.11.939,orientation adjustment blockN,2021.2.3,Win32,60.10337781,,,,,,,
,,,,,,,,,,,,,,,,,-27.22222222,16,20,75,19.77777778,3.777777778,3.777777778,0.145370401,-0.308333357,1,0,0,0.0674,submitButton,11.96949891,-0.23425924,-0.414814842,0,0,0,1,5,65,0,1,16,21486,N,180,2022-02-12_11h54.11.939,orientation adjustment blockN,2021.2.3,Win32,60.10337781,,,,,,,
,,,,,,,,,,,,,,,,,68.33333333,-17,20,75,-22.66666667,5.666666667,5.666666667,0.385185223,-0.314814839,1,0,0,0.4664,submitButton,11.8482906,-0.233333314,-0.399074157,0,0,0,1,6,66,1,1,17,21486,N,180,2022-02-12_11h54.11.939,orientation adjustment blockN,2021.2.3,Win32,60.10337781,,,,,,,
,,,,,,,,,,,,,,,,,-50,27,20,75,32,5,5,-0.164814737,-0.385185268,1,0,0,2.0418,submitButton,11.71907757,-0.164814737,-0.385185268,0,0,0,1,7,67,11,1,27,21486,N,180,2022-02-12_11h54.11.939,orientation adjustment blockN,2021.2.3,Win32,60.10337781,,,,,,,
,,,,,,,,,,,,,,,,,-45.55555556,18,20,75,27.44444444,9.444444444,9.444444444,0.36759263,-0.278703727,1,0,0,2.099,submitButton,11.67695473,-0.124074051,-0.400925953,0,0,0,1,8,68,2,1,18,21486,N,180,2022-02-12_11h54.11.939,orientation adjustment blockN,2021.2.3,Win32,60.10337781,,,,,,,
,,,,,,,,,,,,,,,,,47.77777778,-19,20,75,-26.22222222,7.222222222,7.222222222,-0.201851831,-0.387963046,1,0,0,1.849,submitButton,11.5959596,-0.201851831,-0.387963046,0,0,0,1,9,69,3,1,19,21486,N,180,2022-02-12_11h54.11.939,orientation adjustment blockN,2021.2.3,Win32,60.10337781,,,,,,,
,,,,,,,,,,,,,,,,,21.11111111,-33,20,75,-28.88888889,4.111111111,4.111111111,0.37685189,-0.285185265,1,0,0,0.1016,submitButton,11.46230159,-0.162962941,-0.406481508,0,0,0,1,10,70,17,1,33,21486,N,180,2022-02-12_11h54.11.939,orientation adjustment blockN,2021.2.3,Win32,60.10337781,,,,,,,
,,,,,,,,,,,,,,,,,-21.66666667,20,20,75,29.33333333,9.333333333,9.333333333,0.217592626,-0.29166669,1,0,0,0.5161,submitButton,11.42495127,-0.271296278,-0.391666693,0,0,0,1,11,71,4,1,20,21486,N,180,2022-02-12_11h54.11.939,orientation adjustment blockN,2021.2.3,Win32,60.10337781,,,,,,,
,,,,,,,,,,,,,,,,,-58.88888889,-29,20,75,-33.88888889,4.888888889,4.888888889,0.16388892,-0.313888913,1,0,0,0.2999,submitButton,11.31226054,-0.170370292,-0.413888916,0,0,0,1,12,72,13,1,29,21486,N,180,2022-02-12_11h54.11.939,orientation adjustment blockN,2021.2.3,Win32,60.10337781,,,,,,,
,,,,,,,,,,,,,,,,,-37.77777778,30,20,75,27.22222222,2.777777778,2.777777778,-0.272222204,-0.415740825,1,0,0,2.4655,submitButton,11.16760829,-0.272222204,-0.415740825,0,0,0,1,13,73,14,1,30,21486,N,180,2022-02-12_11h54.11.939,orientation adjustment blockN,2021.2.3,Win32,60.10337781,,,,,,,
,,,,,,,,,,,,,,,,,38.33333333,59,20,75,51.33333333,7.666666667,7.666666667,0.369444482,-0.30462971,1,0,0,0.5329,submitButton,11.10925926,0.329629666,-0.402777805,1,0,0,1,14,74,43,1,59,21486,N,180,2022-02-12_11h54.11.939,orientation adjustment blockN,2021.2.3,Win32,60.10337781,continueButton,,,,,,
,,,,,,,,,,,,,,,,,67.77777778,66,20,75,243.7777778,2.222222222,2.222222222,0.229629663,-0.294444468,1,0,0,0.1905,submitButton,10.96357013,-0.205555535,-0.391666693,0,0,0,1,15,75,50,1,66,21486,N,180,2022-02-12_11h54.11.939,orientation adjustment blockN,2021.2.3,Win32,60.10337781,,,,,,,
,,,,,,,,,,,,,,,,,20.55555556,50,20,75,108.5555556,58.55555556,58.55555556,0.402777816,-0.280555579,1,0,0,0.6667,submitButton,11.7311828,-0.203703683,-0.39629638,0,0,0,1,16,76,34,1,50,21486,N,180,2022-02-12_11h54.11.939,orientation adjustment blockN,2021.2.3,Win32,60.10337781,,,,,,,
,,,,,,,,,,,,,,,,,-36.66666667,-25,20,75,-31.66666667,6.666666667,6.666666667,0.175925958,-0.293518599,1,0,0,0.4829,submitButton,11.65079365,-0.335185169,-0.418518602,0,0,0,1,17,77,9,1,25,21486,N,180,2022-02-12_11h54.11.939,orientation adjustment blockN,2021.2.3,Win32,60.10337781,,,,,,,
,,,,,,,,,,,,,,,,,-70,-61,20,75,-245,4,4,0.400925964,-0.28703706,1,0,0,0.8331,submitButton,11.53125,-0.353703688,-0.415740825,0,0,0,1,18,78,45,1,61,21486,N,180,2022-02-12_11h54.11.939,orientation adjustment blockN,2021.2.3,Win32,60.10337781,,,,,,,
,,,,,,,,,,,,,,,,,-25,-47,20,75,-60,13,13,0.187037069,-0.303703728,1,0,0,0.3664,submitButton,11.55384615,-0.261111092,-0.394444471,0,0,0,1,19,79,31,1,47,21486,N,180,2022-02-12_11h54.11.939,orientation adjustment blockN,2021.2.3,Win32,60.10337781,,,,,,,
,,,,,,,,,,,,,,,,,37.22222222,55,20,75,58.22222222,3.222222222,3.222222222,0.383333371,-0.301851932,1,0,0,0.2994,submitButton,11.42760943,-0.35092591,-0.402777805,0,0,0,1,20,80,39,1,55,21486,N,180,2022-02-12_11h54.11.939,orientation adjustment blockN,2021.2.3,Win32,60.10337781,,,,,,,
,,,,,,,,,,,,,,,,,27.77777778,26,20,75,27.77777778,1.777777778,1.777777778,0.428703743,-0.268518598,1,0,0,0.6174,submitButton,11.28358209,-0.205555535,-0.385185268,0,0,0,1,21,81,10,1,26,21486,N,180,2022-02-12_11h54.11.939,orientation adjustment blockN,2021.2.3,Win32,60.10337781,,,,,,,
,,,,,,,,,,,,,,,,,-45.55555556,28,20,75,30.44444444,2.444444444,2.444444444,0.20277781,-0.29166669,1,0,0,0.2172,submitButton,11.15359477,-0.221296276,-0.402777805,0,0,0,1,22,82,12,1,28,21486,N,180,2022-02-12_11h54.11.939,orientation adjustment blockN,2021.2.3,Win32,60.10337781,,,,,,,
,,,,,,,,,,,,,,,,,60.55555556,54,20,75,54.55555556,0.555555556,0.555555556,0.381481519,-0.333333358,1,0,0,0.1328,submitButton,11,-0.258333315,-0.418518602,0,0,0,1,23,83,38,1,54,21486,N,180,2022-02-12_11h54.11.939,orientation adjustment blockN,2021.2.3,Win32,60.10337781,,,,,,,
,,,,,,,,,,,,,,,,,-23.88888889,-48,20,75,-47.88888889,0.111111111,0.111111111,0.242592626,-0.290740821,1,0,0,0.2827,submitButton,10.84444444,-0.217592573,-0.41759262,0,0,0,1,24,84,32,1,48,21486,N,180,2022-02-12_11h54.11.939,orientation adjustment blockN,2021.2.3,Win32,60.10337781,,,,,,,
,,,,,,,,,,,,,,,,,51.66666667,-67,20,75,-73.33333333,6.333333333,6.333333333,0.425925965,-0.272222245,1,0,0,0.117,submitButton,10.78090767,-0.326851835,-0.407407491,0,0,0,1,25,85,51,1,67,21486,N,180,2022-02-12_11h54.11.939,orientation adjustment blockN,2021.2.3,Win32,60.10337781,,,,,,,
,,,,,,,,,,,,,,,,,39.44444444,32,20,75,38.44444444,6.444444444,6.444444444,0.380555593,-0.306481506,1,0,0,0.4164,submitButton,10.72067901,-0.283333315,-0.407407491,0,0,0,1,26,86,16,1,32,21486,N,180,2022-02-12_11h54.11.939,orientation adjustment blockN,2021.2.3,Win32,60.10337781,,,,,,,
,,,,,,,,,,,,,,,,,52.77777778,-71,20,75,-75.22222222,4.222222222,4.222222222,0.398148187,-0.285185265,1,0,0,0.4829,submitButton,10.63165906,-0.391666652,-0.405555583,0,0,0,1,27,87,55,1,71,21486,N,180,2022-02-12_11h54.11.939,orientation adjustment blockN,2021.2.3,Win32,60.10337781,,,,,,,
,,,,,,,,,,,,,,,,,-55,38,20,75,39,1,1,0.20277781,-0.28703706,1,0,0,0.4828,submitButton,10.5015015,-0.366666651,-0.398148175,0,0,0,1,28,88,22,1,38,21486,N,180,2022-02-12_11h54.11.939,orientation adjustment blockN,2021.2.3,Win32,60.10337781,,,,,,,
,,,,,,,,,,,,,,,,,36.11111111,35,20,75,36.11111111,1.111111111,1.111111111,0.395370409,-0.286111135,1,0,0,0.6663,submitButton,10.3762963,0.297222258,-0.400000027,1,0,0,1,29,89,19,1,35,21486,N,180,2022-02-12_11h54.11.939,orientation adjustment blockN,2021.2.3,Win32,60.10337781,continueButton,,,,,,
,,,,,,,,,,,,,,,,,68.33333333,-22,20,75,-18.66666667,3.333333333,3.333333333,0.199074106,-0.318518599,1,0,0,2.8146,submitButton,10.28362573,-0.278703686,-0.406481508,0,0,0,1,30,90,6,1,22,21486,N,180,2022-02-12_11h54.11.939,orientation adjustment blockN,2021.2.3,Win32,60.10337781,,,,,,,
,,,,,,,,,,,,,,,,,21.11111111,-63,20,75,-61.88888889,1.111111111,1.111111111,0.166666698,-0.298148172,1,0,0,2.0919,submitButton,10.16450216,-0.249074055,-0.386111138,0,0,0,1,31,91,47,1,63,21486,N,180,2022-02-12_11h54.11.939,orientation adjustment blockN,2021.2.3,Win32,60.10337781,,,,,,,
,,,,,,,,,,,,,,,,,28.33333333,-49,20,75,-54.66666667,5.666666667,5.666666667,0.223148181,-0.282407487,1,0,0,1.7921,submitButton,10.10683761,-0.141666644,-0.392592619,0,0,0,1,32,92,33,1,49,21486,N,180,2022-02-12_11h54.11.939,orientation adjustment blockN,2021.2.3,Win32,60.10337781,,,,,,,
,,,,,,,,,,,,,,,,,70.55555556,53,20,75,248.5555556,15.55555556,15.55555556,0.187037069,-0.284259283,1,0,0,3.5321,submitButton,10.17580872,-0.169444423,-0.388888915,0,0,0,1,33,93,37,1,53,21486,N,180,2022-02-12_11h54.11.939,orientation adjustment blockN,2021.2.3,Win32,60.10337781,,,,,,,
,,,,,,,,,,,,,,,,,-22.77777778,-72,20,75,-59.77777778,12.22222222,12.22222222,0.212962996,-0.320370395,1,0,0,0.466,submitButton,10.20138889,-0.332407391,-0.413888916,0,0,0,1,34,94,56,1,72,21486,N,180,2022-02-12_11h54.11.939,orientation adjustment blockN,2021.2.3,Win32,60.10337781,,,,,,,
,,,,,,,,,,,,,,,,,-63.88888889,-41,20,75,-36.88888889,4.111111111,4.111111111,0.40185189,-0.314814839,1,0,0,0.2333,submitButton,10.12620027,-0.212962943,-0.397222249,0,0,0,1,35,95,25,1,41,21486,N,180,2022-02-12_11h54.11.939,orientation adjustment blockN,2021.2.3,Win32,60.10337781,,,,,,,
,,,,,,,,,,,,,,,,,-42.22222222,-62,20,75,-57.22222222,4.777777778,4.777777778,0.192592625,-0.306481506,1,0,0,1.4496,submitButton,10.06097561,-0.247222203,-0.41759262,0,0,0,1,36,96,46,1,62,21486,N,180,2022-02-12_11h54.11.939,orientation adjustment blockN,2021.2.3,Win32,60.10337781,,,,,,,
,,,,,,,,,,,,,,,,,56.11111111,37,20,75,49.11111111,12.11111111,12.11111111,-0.192592572,-0.407407491,1,0,0,3.0904,submitButton,10.08567604,-0.192592572,-0.407407491,0,0,0,1,37,97,21,1,37,21486,N,180,2022-02-12_11h54.11.939,orientation adjustment blockN,2021.2.3,Win32,60.10337781,,,,,,,
,,,,,,,,,,,,,,,,,-60,46,20,75,55,9,9,0.182407439,-0.306481506,1,0,0,0.0668,submitButton,10.07275132,2.6491E-08,-0.398148175,0,0,0,1,38,98,30,1,46,21486,N,180,2022-02-12_11h54.11.939,orientation adjustment blockN,2021.2.3,Win32,60.10337781,,,,,,,
,,,,,,,,,,,,,,,,,28.33333333,-70,20,75,-61.66666667,8.333333333,8.333333333,0.385185223,-0.278703727,1,0,0,0.2505,submitButton,10.05228758,-0.242592573,-0.42222225,0,0,0,1,39,99,54,1,70,21486,N,180,2022-02-12_11h54.11.939,orientation adjustment blockN,2021.2.3,Win32,60.10337781,,,,,,,
,,,,,,,,,,,,,,,,,21.11111111,57,20,75,65.11111111,8.111111111,8.111111111,0.350000037,-0.297222246,1,0,0,0.6497,submitButton,10.02971576,-0.232407388,-0.397222249,0,0,0,1,40,100,41,1,57,21486,N,180,2022-02-12_11h54.11.939,orientation adjustment blockN,2021.2.3,Win32,60.10337781,,,,,,,
,,,,,,,,,,,,,,,,,-67.22222222,73,20,75,76.77777778,3.777777778,3.777777778,0.160185216,-0.294444468,1,0,0,0.0165,submitButton,9.957854406,-0.125925847,-0.395370397,0,0,0,1,41,101,57,1,73,21486,N,180,2022-02-12_11h54.11.939,orientation adjustment blockN,2021.2.3,Win32,60.10337781,,,,,,,
,,,,,,,,,,,,,,,,,60.55555556,52,20,75,56.55555556,4.555555556,4.555555556,0.332407444,-0.30555558,1,0,0,0.7328,submitButton,9.896464646,-0.174999979,-0.404629713,0,0,0,1,42,102,36,1,52,21486,N,180,2022-02-12_11h54.11.939,orientation adjustment blockN,2021.2.3,Win32,60.10337781,,,,,,,
,,,,,,,,,,,,,,,,,72.22222222,43,20,75,65.22222222,22.22222222,22.22222222,0.403703742,-0.312037061,1,0,0,0.0832,submitButton,10.0349563,-0.27777776,-0.388888915,0,0,0,1,43,103,27,1,43,21486,N,180,2022-02-12_11h54.11.939,orientation adjustment blockN,2021.2.3,Win32,60.10337781,,,,,,,
,,,,,,,,,,,,,,,,,32.77777778,68,20,75,63.77777778,4.222222222,4.222222222,0.434259299,-0.306481506,1,0,0,1.9985,submitButton,9.97037037,0.302777813,-0.412037064,1,0,0,1,44,104,52,1,68,21486,N,180,2022-02-12_11h54.11.939,orientation adjustment blockN,2021.2.3,Win32,60.10337781,continueButton,,,,,,
,,,,,,,,,,,,,,,,,66.66666667,-45,20,75,-38.33333333,6.666666667,6.666666667,0.412963002,-0.316666691,1,0,0,0.2815,submitButton,9.934065934,-0.230555536,-0.418518602,0,0,0,1,45,105,29,1,45,21486,N,180,2022-02-12_11h54.11.939,orientation adjustment blockN,2021.2.3,Win32,60.10337781,,,,,,,
,,,,,,,,,,,,,,,,,-25,39,20,75,39,0,0,-0.270370352,-0.41759262,1,0,0,1.6825,submitButton,9.826086957,-0.270370352,-0.41759262,0,0,0,1,46,106,23,1,39,21486,N,180,2022-02-12_11h54.11.939,orientation adjustment blockN,2021.2.3,Win32,60.10337781,,,,,,,
,,,,,,,,,,,,,,,,,48.88888889,44,20,75,46.88888889,2.888888889,2.888888889,0.388888927,-0.286111135,1,0,0,0.2506,submitButton,9.751493429,-0.262037018,-0.416666694,0,0,0,1,47,107,28,1,44,21486,N,180,2022-02-12_11h54.11.939,orientation adjustment blockN,2021.2.3,Win32,60.10337781,,,,,,,
,,,,,,,,,,,,,,,,,-72.22222222,34,20,75,44.77777778,10.77777778,10.77777778,0.196296329,-0.294444468,1,0,0,0.266,submitButton,9.762411348,-0.287037019,-0.389814841,0,0,0,1,48,108,18,1,34,21486,N,180,2022-02-12_11h54.11.939,orientation adjustment blockN,2021.2.3,Win32,60.10337781,,,,,,,
,,,,,,,,,,,,,,,,,-25,-51,20,75,-64,13,13,0.197222255,-0.323148173,1,0,0,0.5001,submitButton,9.796491228,-0.125925847,-0.389814841,0,0,0,1,49,109,35,1,51,21486,N,180,2022-02-12_11h54.11.939,orientation adjustment blockN,2021.2.3,Win32,60.10337781,,,,,,,
,,,,,,,,,,,,,,,,,-48.88888889,36,20,75,46.11111111,10.11111111,10.11111111,-0.176851831,-0.392592619,1,0,0,2.2488,submitButton,9.799768519,-0.176851831,-0.392592619,0,0,0,1,50,110,20,1,36,21486,N,180,2022-02-12_11h54.11.939,orientation adjustment blockN,2021.2.3,Win32,60.10337781,,,,,,,
,,,,,,,,,,,,,,,,,27.77777778,-21,20,75,-29.22222222,8.222222222,8.222222222,0.391666705,-0.303703728,1,0,0,0.2829,submitButton,9.783505155,-0.214814795,-0.403703731,0,0,0,1,51,111,5,1,21,21486,N,180,2022-02-12_11h54.11.939,orientation adjustment blockN,2021.2.3,Win32,60.10337781,,,,,,,
,,,,,,,,,,,,,,,,,73.88888889,-56,20,75,-64.11111111,8.111111111,8.111111111,0.412963002,-0.282407487,1,0,0,0.1511,submitButton,9.766439909,-0.130555533,-0.386111138,0,0,0,1,52,112,40,1,56,21486,N,180,2022-02-12_11h54.11.939,orientation adjustment blockN,2021.2.3,Win32,60.10337781,,,,,,,
,,,,,,,,,,,,,,,,,30,-31,20,75,-21,10,10,0.156481513,-0.275925949,1,0,0,0.7931,submitButton,9.768799102,-0.221296276,-0.413888916,0,0,0,1,53,113,15,1,31,21486,N,180,2022-02-12_11h54.11.939,orientation adjustment blockN,2021.2.3,Win32,60.10337781,,,,,,,
,,,,,,,,,,,,,,,,,27.22222222,-74,20,75,-58.77777778,15.22222222,15.22222222,-0.188888868,-0.40833336,1,0,0,1.7651,submitButton,9.823333333,-0.188888868,-0.40833336,0,0,0,1,54,114,58,1,74,21486,N,180,2022-02-12_11h54.11.939,orientation adjustment blockN,2021.2.3,Win32,60.10337781,,,,,,,
,,,,,,,,,,,,,,,,,26.66666667,-69,20,75,-75.33333333,6.333333333,6.333333333,0.364814852,-0.290740821,1,0,0,0.5167,submitButton,9.788778878,-0.285185167,-0.403703731,0,0,0,1,55,115,53,1,69,21486,N,180,2022-02-12_11h54.11.939,orientation adjustment blockN,2021.2.3,Win32,60.10337781,,,,,,,
,,,,,,,,,,,,,,,,,-72.77777778,-40,20,75,-55.77777778,15.77777778,15.77777778,0.205555588,-0.301851932,1,0,0,0.7831,submitButton,9.847494553,-0.138888867,-0.387037063,0,0,0,1,56,116,24,1,40,21486,N,180,2022-02-12_11h54.11.939,orientation adjustment blockN,2021.2.3,Win32,60.10337781,,,,,,,
,,,,,,,,,,,,,,,,,-58.33333333,-23,20,75,-24.33333333,1.333333333,1.333333333,0.190740773,-0.297222246,1,0,0,0.267,submitButton,9.764832794,-0.174074053,-0.387963046,0,0,0,1,57,117,7,1,23,21486,N,180,2022-02-12_11h54.11.939,orientation adjustment blockN,2021.2.3,Win32,60.10337781,,,,,,,
,,,,,,,,,,,,,,,,,27.77777778,-60,20,75,-67.22222222,7.222222222,7.222222222,0.375925964,-0.279629709,1,0,0,0.0506,submitButton,9.740384615,-0.209259239,-0.39629638,0,0,0,1,58,118,44,1,60,21486,N,180,2022-02-12_11h54.11.939,orientation adjustment blockN,2021.2.3,Win32,60.10337781,,,,,,,
,,,,,,,,,,,,,,,,,56.11111111,42,20,75,50.11111111,8.111111111,8.111111111,0.373148186,-0.290740821,1,0,0,0.8266,submitButton,9.724867725,0.251851886,-0.387037063,1,0,0,1,59,119,26,1,42,21486,N,180,2022-02-12_11h54.11.939,orientation adjustment blockN,2021.2.3,Win32,60.10337781,continueButton,,,,,,
,,,,,,,,,,,,,,,,,-38.33333333,69,20,75,46.66666667,22.33333333,22.33333333,0.183333365,-0.315740822,1,0,0,0.233,submitButton,9.843815514,-0.219444424,-0.411111138,0,0,0,2,0,120,53,1,69,21486,N,180,2022-02-12_11h54.11.939,orientation adjustment blockN,2021.2.3,Win32,60.10337781,,,,,,,
,,,,,,,,,,,,,,,,,56.11111111,61,20,75,60.11111111,0.888888889,0.888888889,0.438888928,-0.30092595,1,0,0,0.0501,submitButton,9.760124611,-0.23425924,-0.400000027,0,0,0,2,1,121,45,1,61,21486,N,180,2022-02-12_11h54.11.939,orientation adjustment blockN,2021.2.3,Win32,60.10337781,,,,,,,
,,,,,,,,,,,,,,,,,-50.55555556,34,20,75,41.44444444,7.444444444,7.444444444,0.196296329,-0.300000024,1,0,0,0.1676,submitButton,9.738683128,-0.199999979,-0.392592619,0,0,0,2,2,122,18,1,34,21486,N,180,2022-02-12_11h54.11.939,orientation adjustment blockN,2021.2.3,Win32,60.10337781,,,,,,,
,,,,,,,,,,,,,,,,,63.33333333,-63,20,75,-68.66666667,5.666666667,5.666666667,0.409259298,-0.281481505,1,0,0,0.1168,submitButton,9.701325178,-0.143518496,-0.387963046,0,0,0,2,3,123,47,1,63,21486,N,180,2022-02-12_11h54.11.939,orientation adjustment blockN,2021.2.3,Win32,60.10337781,,,,,,,
,,,,,,,,,,,,,,,,,68.33333333,-58,20,75,-51.66666667,6.333333333,6.333333333,0.162962994,-0.29166669,1,0,0,1.9257,submitButton,9.670707071,-0.249999981,-0.388888915,0,0,0,2,4,124,42,1,58,21486,N,180,2022-02-12_11h54.11.939,orientation adjustment blockN,2021.2.3,Win32,60.10337781,,,,,,,
,,,,,,,,,,,,,,,,,61.11111111,40,20,75,46.11111111,6.111111111,6.111111111,0.395370409,-0.317592617,1,0,0,0.1495,submitButton,9.638638639,-0.216666647,-0.397222249,0,0,0,2,5,125,24,1,40,21486,N,180,2022-02-12_11h54.11.939,orientation adjustment blockN,2021.2.3,Win32,60.10337781,,,,,,,
,,,,,,,,,,,,,,,,,-38.88888889,-38,20,75,-38.88888889,0.888888889,0.888888889,0.170370402,-0.295370394,1,0,0,0.1005,submitButton,9.560515873,-0.183333312,-0.424074158,0,0,0,2,6,126,22,1,38,21486,N,180,2022-02-12_11h54.11.939,orientation adjustment blockN,2021.2.3,Win32,60.10337781,,,,,,,
,,,,,,,,,,,,,,,,,58.33333333,-41,20,75,-43.66666667,2.666666667,2.666666667,0.392592631,-0.30462971,1,0,0,2.7648,submitButton,9.499508358,-0.149999978,-0.399074157,0,0,0,2,7,127,25,1,41,21486,N,180,2022-02-12_11h54.11.939,orientation adjustment blockN,2021.2.3,Win32,60.10337781,,,,,,,
,,,,,,,,,,,,,,,,,49.44444444,-37,20,75,-22.55555556,14.44444444,14.44444444,0.391666705,-0.274074154,1,0,0,0.2,submitButton,9.54288499,-0.137036958,-0.397222249,0,0,0,2,8,128,21,1,37,21486,N,180,2022-02-12_11h54.11.939,orientation adjustment blockN,2021.2.3,Win32,60.10337781,,,,,,,
,,,,,,,,,,,,,,,,,-31.66666667,22,20,75,35.33333333,13.33333333,13.33333333,0.194444477,-0.30555558,1,0,0,0.2163,submitButton,9.575845411,-0.005555529,-0.294444468,0,0,0,2,9,129,6,1,22,21486,N,180,2022-02-12_11h54.11.939,orientation adjustment blockN,2021.2.3,Win32,60.10337781,,,,,,,
,,,,,,,,,,,,,,,,,-33.33333333,-18,20,75,-16.33333333,1.666666667,1.666666667,0.223148181,-0.29166669,1,0,0,0.2,submitButton,9.507662835,-0.192592572,-0.392592619,0,0,0,2,10,130,2,1,18,21486,N,180,2022-02-12_11h54.11.939,orientation adjustment blockN,2021.2.3,Win32,60.10337781,,,,,,,
,,,,,,,,,,,,,,,,,-67.22222222,-55,20,75,-64.22222222,9.222222222,9.222222222,0.210185218,-0.311111135,1,0,0,0.2322,submitButton,9.505223172,-0.119444422,-0.376851934,0,0,0,2,11,131,39,1,55,21486,N,180,2022-02-12_11h54.11.939,orientation adjustment blockN,2021.2.3,Win32,60.10337781,,,,,,,
,,,,,,,,,,,,,,,,,-44.44444444,36,20,75,50.55555556,14.55555556,14.55555556,0.192592625,-0.321296377,1,0,0,0.5169,submitButton,9.548022599,-0.179629608,-0.380555582,0,0,0,2,12,132,20,1,36,21486,N,180,2022-02-12_11h54.11.939,orientation adjustment blockN,2021.2.3,Win32,60.10337781,,,,,,,
,,,,,,,,,,,,,,,,,-27.22222222,-17,20,75,-14.22222222,2.777777778,2.777777778,0.213888922,-0.312963044,1,0,0,0.0351,submitButton,9.491129785,-0.157407386,-0.414814842,0,0,0,2,13,133,1,1,17,21486,N,180,2022-02-12_11h54.11.939,orientation adjustment blockN,2021.2.3,Win32,60.10337781,,,,,,,
,,,,,,,,,,,,,,,,,-35,-75,20,75,-78,3,3,0.235185219,-0.306481506,1,0,0,0.0333,submitButton,9.437037037,0.354629667,-0.394444471,1,0,0,2,14,134,59,1,75,21486,N,180,2022-02-12_11h54.11.939,orientation adjustment blockN,2021.2.3,Win32,60.10337781,continueButton,,,,,,
,,,,,,,,,,,,,,,,,-59.44444444,20,20,75,22.55555556,2.555555556,2.555555556,0.212962996,-0.284259283,1,0,0,0.2161,submitButton,9.380165289,0.185185217,-0.337963044,0,0,0,2,15,135,4,1,20,21486,N,180,2022-02-12_11h54.11.939,orientation adjustment blockN,2021.2.3,Win32,60.10337781,,,,,,,
,,,,,,,,,,,,,,,,,30.55555556,21,20,75,28.55555556,7.555555556,7.555555556,0.44074078,-0.274074154,1,0,0,0.1667,submitButton,9.365209472,-0.212962943,-0.399074157,0,0,0,2,16,136,5,1,21,21486,N,180,2022-02-12_11h54.11.939,orientation adjustment blockN,2021.2.3,Win32,60.10337781,,,,,,,
,,,,,,,,,,,,,,,,,35,39,20,75,118,79,79,0.211111144,-0.331481506,1,0,0,2.0652,submitButton,9.93134598,-0.231481462,-0.406481508,0,0,0,2,17,137,23,1,39,21486,N,180,2022-02-12_11h54.11.939,orientation adjustment blockN,2021.2.3,Win32,60.10337781,,,,,,,
,,,,,,,,,,,,,,,,,-38.33333333,23,20,75,29.66666667,6.666666667,6.666666667,0.199074106,-0.308333357,1,0,0,0.0339,submitButton,9.905017921,-0.249999981,-0.404629713,0,0,0,2,18,138,7,1,23,21486,N,180,2022-02-12_11h54.11.939,orientation adjustment blockN,2021.2.3,Win32,60.10337781,,,,,,,
,,,,,,,,,,,,,,,,,-58.88888889,-46,20,75,-60.88888889,14.88888889,14.88888889,0.171296328,-0.282407487,1,0,0,0.017,submitButton,9.944888889,-0.203703683,-0.403703731,0,0,0,2,19,139,30,1,46,21486,N,180,2022-02-12_11h54.11.939,orientation adjustment blockN,2021.2.3,Win32,60.10337781,,,,,,,
,,,,,,,,,,,,,,,,,-39.44444444,66,20,75,63.55555556,2.444444444,2.444444444,-0.172222201,-0.405555583,1,0,0,1.7655,submitButton,9.885361552,-0.172222201,-0.405555583,0,0,0,2,20,140,50,1,66,21486,N,180,2022-02-12_11h54.11.939,orientation adjustment blockN,2021.2.3,Win32,60.10337781,,,,,,,
,,,,,,,,,,,,,,,,,-27.77777778,59,20,75,64.22222222,5.222222222,5.222222222,0.225925959,-0.300000024,1,0,0,0.1933,submitButton,9.84864392,-0.15185183,-0.401851935,0,0,0,2,21,141,43,1,59,21486,N,180,2022-02-12_11h54.11.939,orientation adjustment blockN,2021.2.3,Win32,60.10337781,,,,,,,
,,,,,,,,,,,,,,,,,-42.22222222,-72,20,75,-72.22222222,0.222222222,0.222222222,0.230555589,-0.300000024,1,0,0,0.1675,submitButton,9.7734375,-0.1472222,-0.420370398,0,0,0,2,22,142,56,1,72,21486,N,180,2022-02-12_11h54.11.939,orientation adjustment blockN,2021.2.3,Win32,60.10337781,,,,,,,
,,,,,,,,,,,,,,,,,-61.11111111,-74,20,75,-68.11111111,5.888888889,5.888888889,0.158333365,-0.303703728,1,0,0,0.1999,submitButton,9.74332472,-0.175925848,-0.403703731,0,0,0,2,23,143,58,1,74,21486,N,180,2022-02-12_11h54.11.939,orientation adjustment blockN,2021.2.3,Win32,60.10337781,,,,,,,
,,,,,,,,,,,,,,,,,-71.11111111,44,20,75,42.88888889,1.111111111,1.111111111,0.187962995,-0.316666691,1,0,0,0.1839,submitButton,9.676923077,-0.158333312,-0.418518602,0,0,0,2,24,144,28,1,44,21486,N,180,2022-02-12_11h54.11.939,orientation adjustment blockN,2021.2.3,Win32,60.10337781,,,,,,,
,,,,,,,,,,,,,,,,,-42.77777778,-71,20,75,-67.77777778,3.222222222,3.222222222,-0.187962942,-0.397222249,1,0,0,2.5319,submitButton,9.627650551,-0.187962942,-0.397222249,0,0,0,2,25,145,55,1,71,21486,N,180,2022-02-12_11h54.11.939,orientation adjustment blockN,2021.2.3,Win32,60.10337781,,,,,,,
,,,,,,,,,,,,,,,,,26.11111111,52,20,75,65.11111111,13.11111111,13.11111111,0.350000037,-0.30092595,1,0,0,0.6828,submitButton,9.654040404,-0.149999978,-0.400925953,0,0,0,2,26,146,36,1,52,21486,N,180,2022-02-12_11h54.11.939,orientation adjustment blockN,2021.2.3,Win32,60.10337781,,,,,,,
,,,,,,,,,,,,,,,,,68.88888889,-68,20,75,-57.11111111,10.88888889,10.88888889,0.380555593,-0.296296377,1,0,0,0.3493,submitButton,9.663324979,-0.25925924,-0.392592619,0,0,0,2,27,147,52,1,68,21486,N,180,2022-02-12_11h54.11.939,orientation adjustment blockN,2021.2.3,Win32,60.10337781,,,,,,,
,,,,,,,,,,,,,,,,,31.66666667,-28,20,75,-20.33333333,7.666666667,7.666666667,0.380555593,-0.277777801,1,0,0,0.0167,submitButton,9.648424544,-0.124074051,-0.397222249,0,0,0,2,28,148,12,1,28,21486,N,180,2022-02-12_11h54.11.939,orientation adjustment blockN,2021.2.3,Win32,60.10337781,,,,,,,
,,,,,,,,,,,,,,,,,-47.22222222,49,20,75,51.77777778,2.777777778,2.777777778,0.157407439,-0.288888912,1,0,0,1.2474,submitButton,9.597530864,-0.212037017,-0.412037064,0,0,0,2,29,149,33,1,49,21486,N,180,2022-02-12_11h54.11.939,orientation adjustment blockN,2021.2.3,Win32,60.10337781,,,,,,,
,,,,,,,,,,,,,,,,,20.55555556,67,20,75,63.55555556,3.444444444,3.444444444,0.395370409,-0.303703728,1,0,0,0.317,submitButton,9.552287582,-0.161111089,-0.400000027,0,0,0,2,30,150,51,1,67,21486,N,180,2022-02-12_11h54.11.939,orientation adjustment blockN,2021.2.3,Win32,60.10337781,,,,,,,
,,,,,,,,,,,,,,,,,57.77777778,-50,20,75,-39.22222222,10.77777778,10.77777778,0.37222226,-0.280555579,1,0,0,0.5902,submitButton,9.561232766,-0.162962941,-0.391666693,0,0,0,2,31,151,34,1,50,21486,N,180,2022-02-12_11h54.11.939,orientation adjustment blockN,2021.2.3,Win32,60.10337781,,,,,,,
,,,,,,,,,,,,,,,,,-31.11111111,25,20,75,28.88888889,3.888888889,3.888888889,0.165740772,-0.292592616,1,0,0,0.0407,submitButton,9.520128824,-0.200925905,-0.407407491,0,0,0,2,32,152,9,1,25,21486,N,180,2022-02-12_11h54.11.939,orientation adjustment blockN,2021.2.3,Win32,60.10337781,,,,,,,
,,,,,,,,,,,,,,,,,43.33333333,73,20,75,72.33333333,0.666666667,0.666666667,0.425000039,-0.30555558,1,0,0,0.1664,submitButton,9.456434852,-0.127777755,-0.398148175,0,0,0,2,33,153,57,1,73,21486,N,180,2022-02-12_11h54.11.939,orientation adjustment blockN,2021.2.3,Win32,60.10337781,,,,,,,
,,,,,,,,,,,,,,,,,67.77777778,64,20,75,60.77777778,3.222222222,3.222222222,0.400925964,-0.290740821,1,0,0,0.2001,submitButton,9.411904762,-0.164814737,-0.393518602,0,0,0,2,34,154,48,1,64,21486,N,180,2022-02-12_11h54.11.939,orientation adjustment blockN,2021.2.3,Win32,60.10337781,,,,,,,
,,,,,,,,,,,,,,,,,-35.55555556,51,20,75,65.44444444,14.44444444,14.44444444,0.210185218,-0.292592616,1,0,0,0.0668,submitButton,9.447596533,-0.170370292,-0.387963046,0,0,0,2,35,155,35,1,51,21486,N,180,2022-02-12_11h54.11.939,orientation adjustment blockN,2021.2.3,Win32,60.10337781,,,,,,,
,,,,,,,,,,,,,,,,,55.55555556,-70,20,75,-49.44444444,20.55555556,20.55555556,-0.172222201,-0.40833336,1,0,0,1.691,submitButton,9.525821596,-0.172222201,-0.40833336,0,0,0,2,36,156,54,1,70,21486,N,180,2022-02-12_11h54.11.939,orientation adjustment blockN,2021.2.3,Win32,60.10337781,,,,,,,
,,,,,,,,,,,,,,,,,-28.88888889,48,20,75,50.11111111,2.111111111,2.111111111,0.369444482,-0.286111135,1,0,0,1.3156,submitButton,9.473970474,-0.192592572,-0.413888916,0,0,0,2,37,157,32,1,48,21486,N,180,2022-02-12_11h54.11.939,orientation adjustment blockN,2021.2.3,Win32,60.10337781,,,,,,,
,,,,,,,,,,,,,,,,,50.55555556,-57,20,75,-46.44444444,10.55555556,10.55555556,0.386111149,-0.309259283,1,0,0,0.3503,submitButton,9.481481481,-0.164814737,-0.393518602,0,0,0,2,38,158,41,1,57,21486,N,180,2022-02-12_11h54.11.939,orientation adjustment blockN,2021.2.3,Win32,60.10337781,,,,,,,
,,,,,,,,,,,,,,,,,-46.11111111,32,20,75,32.88888889,0.888888889,0.888888889,0.342592629,-0.281481505,1,0,0,2.4741,submitButton,9.422222222,-0.154629608,-0.397222249,0,0,0,2,39,159,16,1,32,21486,N,180,2022-02-12_11h54.11.939,orientation adjustment blockN,2021.2.3,Win32,60.10337781,,,,,,,
,,,,,,,,,,,,,,,,,61.66666667,45,20,75,60.66666667,15.66666667,15.66666667,0.384259297,-0.275925949,1,0,0,1.1998,submitButton,9.46499239,-0.226851832,-0.407407491,0,0,0,2,40,160,29,1,45,21486,N,180,2022-02-12_11h54.11.939,orientation adjustment blockN,2021.2.3,Win32,60.10337781,,,,,,,
,,,,,,,,,,,,,,,,,-26.66666667,26,20,75,31.33333333,5.333333333,5.333333333,0.215740774,-0.337037062,1,0,0,0.2496,submitButton,9.436885865,-0.23425924,-0.414814842,0,0,0,2,41,161,10,1,26,21486,N,180,2022-02-12_11h54.11.939,orientation adjustment blockN,2021.2.3,Win32,60.10337781,,,,,,,
,,,,,,,,,,,,,,,,,30.55555556,54,20,75,60.55555556,6.555555556,6.555555556,0.375925964,-0.325925951,1,0,0,0.0676,submitButton,9.417417417,-0.265740722,-0.418518602,0,0,0,2,42,162,38,1,54,21486,N,180,2022-02-12_11h54.11.939,orientation adjustment blockN,2021.2.3,Win32,60.10337781,,,,,,,
,,,,,,,,,,,,,,,,,41.11111111,53,20,75,65.11111111,12.11111111,12.11111111,0.414814854,-0.306481506,1,0,0,0.8158,submitButton,9.435495899,-0.177777757,-0.387037063,0,0,0,2,43,163,37,1,53,21486,N,180,2022-02-12_11h54.11.939,orientation adjustment blockN,2021.2.3,Win32,60.10337781,,,,,,,
,,,,,,,,,,,,,,,,,36.11111111,-30,20,75,-37.88888889,7.888888889,7.888888889,-0.18611109,-0.411111138,1,0,0,1.9775,submitButton,9.425185185,-0.18611109,-0.411111138,0,0,0,2,44,164,14,1,30,21486,N,180,2022-02-12_11h54.11.939,orientation adjustment blockN,2021.2.3,Win32,60.10337781,,,,,,,
,,,,,,,,,,,,,,,,,-40,-19,20,75,-36,17,17,0.206481514,-0.327777802,1,0,0,0.2495,submitButton,9.475349522,-0.156481403,-0.376851934,0,0,0,2,45,165,3,1,19,21486,N,180,2022-02-12_11h54.11.939,orientation adjustment blockN,2021.2.3,Win32,60.10337781,,,,,,,
,,,,,,,,,,,,,,,,,61.66666667,42,20,75,53.66666667,11.66666667,11.66666667,0.405555594,-0.296296377,1,0,0,1.0663,submitButton,9.489766082,-0.171296275,-0.387037063,0,0,0,2,46,166,26,1,42,21486,N,180,2022-02-12_11h54.11.939,orientation adjustment blockN,2021.2.3,Win32,60.10337781,,,,,,,
,,,,,,,,,,,,,,,,,-48.88888889,16,20,75,33.11111111,17.11111111,17.11111111,0.218518552,-0.322222247,1,0,0,0.6005,submitButton,9.539578794,-0.221296276,-0.412963047,0,0,0,2,47,167,0,1,16,21486,N,180,2022-02-12_11h54.11.939,orientation adjustment blockN,2021.2.3,Win32,60.10337781,,,,,,,
,,,,,,,,,,,,,,,,,75,27,20,75,55,28,28,0.392592631,-0.313888913,1,0,0,0.6571,submitButton,9.659451659,-0.225925906,-0.400925953,0,0,0,2,48,168,11,1,27,21486,N,180,2022-02-12_11h54.11.939,orientation adjustment blockN,2021.2.3,Win32,60.10337781,,,,,,,
,,,,,,,,,,,,,,,,,-23.33333333,-43,20,75,-53.33333333,10.33333333,10.33333333,0.190740773,-0.301851932,1,0,0,0.3326,submitButton,9.663799283,-0.18148146,-0.388888915,0,0,0,2,49,169,27,1,43,21486,N,180,2022-02-12_11h54.11.939,orientation adjustment blockN,2021.2.3,Win32,60.10337781,,,,,,,
,,,,,,,,,,,,,,,,,45.55555556,-47,20,75,-34.44444444,12.55555556,12.55555556,0.348148185,-0.296296377,1,0,0,0.0835,submitButton,9.682336182,-0.198148128,-0.399074157,0,0,0,2,50,170,31,1,47,21486,N,180,2022-02-12_11h54.11.939,orientation adjustment blockN,2021.2.3,Win32,60.10337781,,,,,,,
,,,,,,,,,,,,,,,,,-20,-33,20,75,-29,4,4,0.377777816,-0.286111135,1,0,0,0.3329,submitButton,9.646142958,-0.223148128,-0.388888915,0,0,0,2,51,171,17,1,33,21486,N,180,2022-02-12_11h54.11.939,orientation adjustment blockN,2021.2.3,Win32,60.10337781,,,,,,,
,,,,,,,,,,,,,,,,,50.55555556,-31,20,75,-24.44444444,6.555555556,6.555555556,0.37685189,-0.295370394,1,0,0,1.1435,submitButton,9.626582278,-0.251851833,-0.411111138,0,0,0,2,52,172,15,1,31,21486,N,180,2022-02-12_11h54.11.939,orientation adjustment blockN,2021.2.3,Win32,60.10337781,,,,,,,
,,,,,,,,,,,,,,,,,56.66666667,24,20,75,43.66666667,19.66666667,19.66666667,0.403703742,-0.285185265,1,0,0,0.2161,submitButton,9.689727463,-0.175925848,-0.399074157,0,0,0,2,53,173,8,1,24,21486,N,180,2022-02-12_11h54.11.939,orientation adjustment blockN,2021.2.3,Win32,60.10337781,,,,,,,
,,,,,,,,,,,,,,,,,29.44444444,62,20,75,56.44444444,5.555555556,5.555555556,0.363888926,-0.299074154,1,0,0,0.0992,submitButton,9.663888889,-0.193518498,-0.406481508,0,0,0,2,54,174,46,1,62,21486,N,180,2022-02-12_11h54.11.939,orientation adjustment blockN,2021.2.3,Win32,60.10337781,,,,,,,
,,,,,,,,,,,,,,,,,-26.66666667,-56,20,75,-58.66666667,2.666666667,2.666666667,-0.249999981,-0.416666694,1,0,0,2.3256,submitButton,9.620427881,-0.249999981,-0.416666694,0,0,0,2,55,175,40,1,56,21486,N,180,2022-02-12_11h54.11.939,orientation adjustment blockN,2021.2.3,Win32,60.10337781,,,,,,,
,,,,,,,,,,,,,,,,,-47.77777778,29,20,75,56.22222222,27.22222222,27.22222222,0.220370403,-0.306481506,1,0,0,0.2156,submitButton,9.729080933,-0.180555534,-0.414814842,0,0,0,2,56,176,13,1,29,21486,N,180,2022-02-12_11h54.11.939,orientation adjustment blockN,2021.2.3,Win32,60.10337781,,,,,,,
,,,,,,,,,,,,,,,,,74.44444444,35,20,75,47.44444444,12.44444444,12.44444444,0.388888927,-0.297222246,1,0,0,0.2005,submitButton,9.745739605,-0.218518499,-0.415740825,0,0,0,2,57,177,19,1,35,21486,N,180,2022-02-12_11h54.11.939,orientation adjustment blockN,2021.2.3,Win32,60.10337781,,,,,,,
,,,,,,,,,,,,,,,,,33.88888889,60,20,75,67.88888889,7.888888889,7.888888889,0.362037074,-0.288888912,1,0,0,0.1496,submitButton,9.734417344,-0.209259239,-0.420370398,0,0,0,2,58,178,44,1,60,21486,N,180,2022-02-12_11h54.11.939,orientation adjustment blockN,2021.2.3,Win32,60.10337781,,,,,,,
,,,,,,,,,,,,,,,,,-27.77777778,-65,20,75,-57.77777778,7.222222222,7.222222222,-0.17314807,-0.410185269,1,0,0,1.6319,submitButton,9.719191919,-0.17314807,-0.410185269,0,0,0,2,59,179,49,1,65,21486,N,180,2022-02-12_11h54.11.939,orientation adjustment blockN,2021.2.3,Win32,60.10337781,,,,,,,
,,,,,,,,,,,,,,,,,,,,,,,,,,,,,,,,,,,,,,,,,,,21486,N,180,2022-02-12_11h54.11.939,orientation adjustment blockN,2021.2.3,Win32,60.10337781,,0.338888925,-0.392592619,1,0,0,EndButtonTxt
