consentMouse1.x,consentMouse1.y,consentMouse1.leftButton,consentMouse1.midButton,consentMouse1.rightButton,consentMouse1.clicked_name,consent_Mouse.x,consent_Mouse.y,consent_Mouse.leftButton,consent_Mouse.midButton,consent_Mouse.rightButton,consent_Mouse.clicked_name,startMouse.x,startMouse.y,startMouse.leftButton,startMouse.midButton,startMouse.rightButton,start_distance,fixedOri,minimalDistance,maxOri,this_ori,accuracy,presented_accuracy,submitMouse.x,submitMouse.y,submitMouse.leftButton,submitMouse.midButton,submitMouse.rightButton,submitMouse.time,submitMouse.clicked_name,block_accuracy,continueMouse.x,continueMouse.y,continueMouse.leftButton,continueMouse.midButton,continueMouse.rightButton,trials.thisRepN,trials.thisTrialN,trials.thisN,trials.thisIndex,trials.ran,startOri,participant,condition,nTrials,date,expName,psychopyVersion,OS,frameRate,continueMouse.clicked_name,EndButtonMouse.x,EndButtonMouse.y,EndButtonMouse.leftButton,EndButtonMouse.midButton,EndButtonMouse.rightButton,EndButtonMouse.clicked_name
0.41421441,-0.407365451,1,0,0,consent_button1,0.41421441,-0.407365451,1,0,0,consent_button,0.415073785,-0.409084201,1,0,0,-37.22222222,-30,20,75,-219.2222222,9.222222222,9.222222222,0.117782118,-0.012873264,1,0,0,2.9488,submitButton,9.222222222,-0.209657118,-0.394717882,0,0,0,0,0,0,14,1,30,21589,N,180,2022-02-11_13h45.54.595,orientation adjustment blockN,2021.2.3,MacIntel,59.99880002,,,,,,,
,,,,,,,,,,,,,,,,,-22.77777778,-75,20,75,-260.7777778,5.777777778,5.777777778,0.418428819,-0.310078125,1,0,0,0.8501,submitButton,7.5,-0.25203559,-0.397052951,0,0,0,0,1,1,59,1,75,21589,N,180,2022-02-11_13h45.54.595,orientation adjustment blockN,2021.2.3,MacIntel,59.99880002,,,,,,,
,,,,,,,,,,,,,,,,,34.44444444,47,20,75,24.44444444,22.55555556,22.55555556,0.379722222,-0.300538194,1,0,0,0.9838,submitButton,12.51851852,-0.203172743,-0.399500868,0,0,0,0,2,2,31,1,47,21589,N,180,2022-02-11_13h45.54.595,orientation adjustment blockN,2021.2.3,MacIntel,59.99880002,,,,,,,
,,,,,,,,,,,,,,,,,-56.66666667,33,20,75,-138.6666667,8.333333333,8.333333333,0.377291667,-0.311901042,1,0,0,0.8336,submitButton,8.333333333,-0.302122396,-0.405212674,0,0,0,0,3,3,17,1,33,21589,N,180,2022-02-11_13h45.54.595,orientation adjustment blockN,2021.2.3,MacIntel,59.99880002,,,,,,,
,,,,,,,,,,,,,,,,,-71.66666667,-53,20,75,-229.6666667,3.333333333,3.333333333,0.403007813,-0.307638889,1,0,0,0.1489,submitButton,5.833333333,-0.243980035,-0.403936632,0,0,0,0,4,4,37,1,53,21589,N,180,2022-02-11_13h45.54.595,orientation adjustment blockN,2021.2.3,MacIntel,59.99880002,,,,,,,
,,,,,,,,,,,,,,,,,-48.88888889,48,20,75,40.11111111,7.888888889,7.888888889,0.406679687,-0.302213542,1,0,0,0.6324,submitButton,6.518518519,-0.376184896,-0.387196181,0,0,0,0,5,5,32,1,48,21589,N,180,2022-02-11_13h45.54.595,orientation adjustment blockN,2021.2.3,MacIntel,59.99880002,,,,,,,
,,,,,,,,,,,,,,,,,-41.11111111,-66,20,75,-242.1111111,3.888888889,3.888888889,0.399913194,-0.294040799,1,0,0,1.1832,submitButton,3.888888889,-0.036102431,-0.240125868,0,0,0,0,6,6,50,1,66,21589,N,180,2022-02-11_13h45.54.595,orientation adjustment blockN,2021.2.3,MacIntel,59.99880002,,,,,,,
,,,,,,,,,,,,,,,,,-66.66666667,74,20,75,74.33333333,0.333333333,0.333333333,0.18218316,-0.292855903,1,0,0,0.9337,submitButton,2.111111111,-0.274474826,-0.388446181,0,0,0,0,7,7,58,1,74,21589,N,180,2022-02-11_13h45.54.595,orientation adjustment blockN,2021.2.3,MacIntel,59.99880002,,,,,,,
,,,,,,,,,,,,,,,,,-48.33333333,-23,20,75,-196.3333333,6.666666667,6.666666667,-0.212269965,-0.398085937,1,0,0,3.6991,submitButton,3.62962963,-0.212269965,-0.398085937,0,0,0,0,8,8,7,1,23,21589,N,180,2022-02-11_13h45.54.595,orientation adjustment blockN,2021.2.3,MacIntel,59.99880002,,,,,,,
,,,,,,,,,,,,,,,,,-40.55555556,16,20,75,25.44444444,9.444444444,9.444444444,0.144587674,-0.30875434,1,0,0,0.5001,submitButton,9.444444444,-0.056983507,0.5,0,0,0,0,9,9,0,1,16,21589,N,180,2022-02-11_13h45.54.595,orientation adjustment blockN,2021.2.3,MacIntel,59.99880002,,,,,,,
,,,,,,,,,,,,,,,,,-41.11111111,65,20,75,71.88888889,6.888888889,6.888888889,0.194800347,-0.295221354,1,0,0,1.0164,submitButton,8.166666667,-0.271128472,-0.410924479,0,0,0,0,10,10,49,1,65,21589,N,180,2022-02-11_13h45.54.595,orientation adjustment blockN,2021.2.3,MacIntel,59.99880002,,,,,,,
,,,,,,,,,,,,,,,,,39.44444444,-59,20,75,-59.55555556,0.555555556,0.555555556,0.390559896,-0.312764757,1,0,0,0.8821,submitButton,5.62962963,-0.341584201,-0.409071181,0,0,0,0,11,11,43,1,59,21589,N,180,2022-02-11_13h45.54.595,orientation adjustment blockN,2021.2.3,MacIntel,59.99880002,,,,,,,
,,,,,,,,,,,,,,,,,20,49,20,75,-74,57,57,0.421414931,-0.297682292,1,0,0,4.3678,submitButton,57,-0.341323785,-0.413576389,0,0,0,0,12,12,33,1,49,21589,N,180,2022-02-11_13h45.54.595,orientation adjustment blockN,2021.2.3,MacIntel,59.99880002,,,,,,,
,,,,,,,,,,,,,,,,,56.11111111,-37,20,75,-27.88888889,9.111111111,9.111111111,0.3940625,-0.296796875,1,0,0,1.1836,submitButton,33.05555556,-0.21577691,-0.404657118,0,0,0,0,13,13,21,1,37,21589,N,180,2022-02-11_13h45.54.595,orientation adjustment blockN,2021.2.3,MacIntel,59.99880002,,,,,,,
,,,,,,,,,,,,,,,,,-53.33333333,62,20,75,50.66666667,11.33333333,11.33333333,0.170811632,-0.305082465,1,0,0,0.5666,submitButton,25.81481481,0.395303819,-0.402847222,1,0,0,0,14,14,46,1,62,21589,N,180,2022-02-11_13h45.54.595,orientation adjustment blockN,2021.2.3,MacIntel,59.99880002,continueButton,,,,,,
,,,,,,,,,,,,,,,,,37.77777778,28,20,75,14.77777778,13.22222222,13.22222222,0.181375868,-0.297430556,1,0,0,0.833,submitButton,13.22222222,-0.143528646,-0.322161458,0,0,0,0,15,15,12,1,28,21589,N,180,2022-02-11_13h45.54.595,orientation adjustment blockN,2021.2.3,MacIntel,59.99880002,,,,,,,
,,,,,,,,,,,,,,,,,-67.22222222,-61,20,75,-254.2222222,13.22222222,13.22222222,0.42312066,-0.295360243,1,0,0,0.5831,submitButton,13.22222222,-0.217947049,-0.406644965,0,0,0,0,16,16,45,1,61,21589,N,180,2022-02-11_13h45.54.595,orientation adjustment blockN,2021.2.3,MacIntel,59.99880002,,,,,,,
,,,,,,,,,,,,,,,,,67.77777778,-68,20,75,-84.22222222,16.22222222,16.22222222,-0.272604167,-0.413858507,1,0,0,2.3003,submitButton,14.22222222,-0.272604167,-0.413858507,0,0,0,0,17,17,52,1,68,21589,N,180,2022-02-11_13h45.54.595,orientation adjustment blockN,2021.2.3,MacIntel,59.99880002,,,,,,,
,,,,,,,,,,,,,,,,,46.66666667,39,20,75,212.6666667,6.333333333,6.333333333,0.187921007,-0.3025,1,0,0,0.2836,submitButton,12.25,-0.196371528,-0.395850694,0,0,0,0,18,18,23,1,39,21589,N,180,2022-02-11_13h45.54.595,orientation adjustment blockN,2021.2.3,MacIntel,59.99880002,,,,,,,
,,,,,,,,,,,,,,,,,-31.11111111,-21,20,75,-36.11111111,15.11111111,15.11111111,0.415125868,-0.296757812,1,0,0,0.5826,submitButton,12.82222222,-0.279774306,-0.399231771,0,0,0,0,19,19,5,1,21,21589,N,180,2022-02-11_13h45.54.595,orientation adjustment blockN,2021.2.3,MacIntel,59.99880002,,,,,,,
,,,,,,,,,,,,,,,,,-21.66666667,-52,20,75,-58.66666667,6.666666667,6.666666667,0.388159722,-0.299375,1,0,0,2.8146,submitButton,11.7962963,-0.256588542,-0.398684896,0,0,0,0,20,20,36,1,52,21589,N,180,2022-02-11_13h45.54.595,orientation adjustment blockN,2021.2.3,MacIntel,59.99880002,,,,,,,
,,,,,,,,,,,,,,,,,-48.33333333,24,20,75,46.66666667,22.66666667,22.66666667,0.417161458,-0.304340278,1,0,0,0.8323,submitButton,13.34920635,-0.157265625,-0.173428819,0,0,0,0,21,21,8,1,24,21589,N,180,2022-02-11_13h45.54.595,orientation adjustment blockN,2021.2.3,MacIntel,59.99880002,,,,,,,
,,,,,,,,,,,,,,,,,-48.33333333,60,20,75,53.66666667,6.333333333,6.333333333,0.393411458,-0.312855903,1,0,0,0.1156,submitButton,12.47222222,-0.247005208,-0.319114583,0,0,0,0,22,22,44,1,60,21589,N,180,2022-02-11_13h45.54.595,orientation adjustment blockN,2021.2.3,MacIntel,59.99880002,,,,,,,
,,,,,,,,,,,,,,,,,68.33333333,36,20,75,230.3333333,14.33333333,14.33333333,0.152261285,-0.289231771,1,0,0,1.1672,submitButton,12.67901235,-0.216054688,-0.394331597,0,0,0,0,23,23,20,1,36,21589,N,180,2022-02-11_13h45.54.595,orientation adjustment blockN,2021.2.3,MacIntel,59.99880002,,,,,,,
,,,,,,,,,,,,,,,,,-52.77777778,-31,20,75,37.22222222,68.22222222,68.22222222,0.174505208,-0.300950521,1,0,0,1.4328,submitButton,18.23333333,-0.212022569,-0.388146701,0,0,0,0,24,24,15,1,31,21589,N,180,2022-02-11_13h45.54.595,orientation adjustment blockN,2021.2.3,MacIntel,59.99880002,,,,,,,
,,,,,,,,,,,,,,,,,46.11111111,-63,20,75,-42.88888889,20.11111111,20.11111111,0.388641493,-0.294505208,1,0,0,0.9153,submitButton,18.4040404,-0.21312934,-0.410868056,0,0,0,0,25,25,47,1,63,21589,N,180,2022-02-11_13h45.54.595,orientation adjustment blockN,2021.2.3,MacIntel,59.99880002,,,,,,,
,,,,,,,,,,,,,,,,,-55,27,20,75,39,12,12,0.174752604,-0.302217882,1,0,0,0.7654,submitButton,17.87037037,-0.114657118,-0.130581597,0,0,0,0,26,26,11,1,27,21589,N,180,2022-02-11_13h45.54.595,orientation adjustment blockN,2021.2.3,MacIntel,59.99880002,,,,,,,
,,,,,,,,,,,,,,,,,54.44444444,-38,20,75,-30.55555556,7.444444444,7.444444444,0.407769097,-0.303684896,1,0,0,0.6827,submitButton,17.06837607,0.168875868,0.5,0,0,0,0,27,27,22,1,38,21589,N,180,2022-02-11_13h45.54.595,orientation adjustment blockN,2021.2.3,MacIntel,59.99880002,,,,,,,
,,,,,,,,,,,,,,,,,-36.66666667,-19,20,75,-25.66666667,6.666666667,6.666666667,0.169092882,-0.289479167,1,0,0,0.3834,submitButton,16.32539683,0.089787326,0.212196181,0,0,0,0,28,28,3,1,19,21589,N,180,2022-02-11_13h45.54.595,orientation adjustment blockN,2021.2.3,MacIntel,59.99880002,,,,,,,
,,,,,,,,,,,,,,,,,42.22222222,73,20,75,231.2222222,21.77777778,21.77777778,0.178919271,-0.296888021,1,0,0,1.4672,submitButton,16.68888889,0.441931424,-0.409592014,1,0,0,0,29,29,57,1,73,21589,N,180,2022-02-11_13h45.54.595,orientation adjustment blockN,2021.2.3,MacIntel,59.99880002,continueButton,,,,,,
,,,,,,,,,,,,,,,,,58.33333333,18,20,75,195.3333333,2.666666667,2.666666667,0.192669271,-0.307387153,1,0,0,3.4,submitButton,15.8125,-0.008463542,-0.29843316,0,0,0,0,30,30,2,1,18,21589,N,180,2022-02-11_13h45.54.595,orientation adjustment blockN,2021.2.3,MacIntel,59.99880002,,,,,,,
,,,,,,,,,,,,,,,,,57.77777778,-58,20,75,-70.22222222,12.22222222,12.22222222,0.417634549,-0.313797743,1,0,0,0.9014,submitButton,15.60130719,-0.242686632,-0.378259549,0,0,0,0,31,31,42,1,58,21589,N,180,2022-02-11_13h45.54.595,orientation adjustment blockN,2021.2.3,MacIntel,59.99880002,,,,,,,
,,,,,,,,,,,,,,,,,-72.22222222,45,20,75,51.77777778,6.777777778,6.777777778,0.187118056,-0.294600694,1,0,0,1.2829,submitButton,15.11111111,-0.334600694,-0.402391493,0,0,0,0,32,32,29,1,45,21589,N,180,2022-02-11_13h45.54.595,orientation adjustment blockN,2021.2.3,MacIntel,59.99880002,,,,,,,
,,,,,,,,,,,,,,,,,55,-22,20,75,-24,2,2,0.375703125,-0.303667535,1,0,0,0.9825,submitButton,14.42105263,-0.159713542,-0.201206597,0,0,0,0,33,33,6,1,22,21589,N,180,2022-02-11_13h45.54.595,orientation adjustment blockN,2021.2.3,MacIntel,59.99880002,,,,,,,
,,,,,,,,,,,,,,,,,-45,54,20,75,38,16,16,0.183763021,-0.298116319,1,0,0,1.2014,submitButton,14.5,-0.257782118,-0.081510417,0,0,0,0,34,34,38,1,54,21589,N,180,2022-02-11_13h45.54.595,orientation adjustment blockN,2021.2.3,MacIntel,59.99880002,,,,,,,
,,,,,,,,,,,,,,,,,-59.44444444,69,20,75,70.55555556,1.555555556,1.555555556,0.196276042,-0.293389757,1,0,0,0.6502,submitButton,13.88359788,-0.187682292,-0.399960938,0,0,0,0,35,35,53,1,69,21589,N,180,2022-02-11_13h45.54.595,orientation adjustment blockN,2021.2.3,MacIntel,59.99880002,,,,,,,
,,,,,,,,,,,,,,,,,-52.22222222,29,20,75,54.77777778,25.77777778,25.77777778,0.19766059,-0.295646701,1,0,0,1.1179,submitButton,14.42424242,-0.182682292,0.019023438,0,0,0,0,36,36,13,1,29,21589,N,180,2022-02-11_13h45.54.595,orientation adjustment blockN,2021.2.3,MacIntel,59.99880002,,,,,,,
,,,,,,,,,,,,,,,,,73.33333333,-34,20,75,-36.66666667,2.666666667,2.666666667,0.392278646,-0.297695312,1,0,0,0.4667,submitButton,13.91304348,-0.175403646,0.200794271,0,0,0,0,37,37,18,1,34,21589,N,180,2022-02-11_13h45.54.595,orientation adjustment blockN,2021.2.3,MacIntel,59.99880002,,,,,,,
,,,,,,,,,,,,,,,,,35.55555556,-17,20,75,-26.44444444,9.444444444,9.444444444,0.391970486,-0.295993924,1,0,0,0.5167,submitButton,13.72685185,-0.210651042,-0.310690104,0,0,0,0,38,38,1,1,17,21589,N,180,2022-02-11_13h45.54.595,orientation adjustment blockN,2021.2.3,MacIntel,59.99880002,,,,,,,
,,,,,,,,,,,,,,,,,37.22222222,26,20,75,36.22222222,10.22222222,10.22222222,0.175377604,-0.304583333,1,0,0,2.183,submitButton,13.58666667,-0.239769965,-0.10391059,0,0,0,0,39,39,10,1,26,21589,N,180,2022-02-11_13h45.54.595,orientation adjustment blockN,2021.2.3,MacIntel,59.99880002,,,,,,,
,,,,,,,,,,,,,,,,,51.11111111,44,20,75,236.1111111,12.11111111,12.11111111,0.394257813,-0.304804688,1,0,0,1.8836,submitButton,13.52991453,-0.276974826,-0.404288194,0,0,0,0,40,40,28,1,44,21589,N,180,2022-02-11_13h45.54.595,orientation adjustment blockN,2021.2.3,MacIntel,59.99880002,,,,,,,
,,,,,,,,,,,,,,,,,41.11111111,56,20,75,55.11111111,0.888888889,0.888888889,0.407356771,-0.31234809,1,0,0,1.5479,submitButton,13.0617284,-0.319956597,-0.407838542,0,0,0,0,41,41,40,1,56,21589,N,180,2022-02-11_13h45.54.595,orientation adjustment blockN,2021.2.3,MacIntel,59.99880002,,,,,,,
,,,,,,,,,,,,,,,,,-26.11111111,-57,20,75,-42.11111111,14.88888889,14.88888889,0.197777778,-0.302851563,1,0,0,1.1661,submitButton,13.12698413,-0.238446181,-0.380447049,0,0,0,0,42,42,41,1,57,21589,N,180,2022-02-11_13h45.54.595,orientation adjustment blockN,2021.2.3,MacIntel,59.99880002,,,,,,,
,,,,,,,,,,,,,,,,,62.77777778,-25,20,75,162.7777778,7.777777778,7.777777778,0.191597222,-0.302795139,1,0,0,1.2501,submitButton,12.94252874,-0.182330729,-0.407096354,0,0,0,0,43,43,9,1,25,21589,N,180,2022-02-11_13h45.54.595,orientation adjustment blockN,2021.2.3,MacIntel,59.99880002,,,,,,,
,,,,,,,,,,,,,,,,,52.22222222,-64,20,75,-58.77777778,5.222222222,5.222222222,0.429388021,-0.312222222,1,0,0,0.5508,submitButton,12.68518519,0.336519097,-0.393511285,1,0,0,0,44,44,48,1,64,21589,N,180,2022-02-11_13h45.54.595,orientation adjustment blockN,2021.2.3,MacIntel,59.99880002,continueButton,,,,,,
,,,,,,,,,,,,,,,,,-32.22222222,50,20,75,58.77777778,8.777777778,8.777777778,0.200425347,-0.307113715,1,0,0,0.9153,submitButton,12.55913978,-0.248862847,-0.390282118,0,0,0,0,45,45,34,1,50,21589,N,180,2022-02-11_13h45.54.595,orientation adjustment blockN,2021.2.3,MacIntel,59.99880002,,,,,,,
,,,,,,,,,,,,,,,,,61.11111111,46,20,75,234.1111111,8.111111111,8.111111111,0.1703125,-0.302330729,1,0,0,1.6156,submitButton,12.42013889,-0.219440104,-0.288333333,0,0,0,0,46,46,30,1,46,21589,N,180,2022-02-11_13h45.54.595,orientation adjustment blockN,2021.2.3,MacIntel,59.99880002,,,,,,,
,,,,,,,,,,,,,,,,,22.77777778,-20,20,75,-36.22222222,16.22222222,16.22222222,0.399257812,-0.30391059,1,0,0,0.8657,submitButton,12.53535354,0.195985243,-0.191076389,0,0,0,0,47,47,4,1,20,21589,N,180,2022-02-11_13h45.54.595,orientation adjustment blockN,2021.2.3,MacIntel,59.99880002,,,,,,,
,,,,,,,,,,,,,,,,,-36.11111111,-51,20,75,-231.1111111,0.111111111,0.111111111,0.398302951,-0.299943576,1,0,0,0.5329,submitButton,12.16993464,-0.028880208,-0.227022569,0,0,0,0,48,48,35,1,51,21589,N,180,2022-02-11_13h45.54.595,orientation adjustment blockN,2021.2.3,MacIntel,59.99880002,,,,,,,
,,,,,,,,,,,,,,,,,-53.88888889,55,20,75,36.11111111,18.88888889,18.88888889,0.412152778,-0.321944444,1,0,0,0.2661,submitButton,12.36190476,-0.126861979,-0.310733507,0,0,0,0,49,49,39,1,55,21589,N,180,2022-02-11_13h45.54.595,orientation adjustment blockN,2021.2.3,MacIntel,59.99880002,,,,,,,
,,,,,,,,,,,,,,,,,-56.66666667,67,20,75,60.33333333,6.666666667,6.666666667,0.414014757,-0.313511285,1,0,0,0.0318,submitButton,12.2037037,-0.224505208,-0.098502604,0,0,0,0,50,50,51,1,67,21589,N,180,2022-02-11_13h45.54.595,orientation adjustment blockN,2021.2.3,MacIntel,59.99880002,,,,,,,
,,,,,,,,,,,,,,,,,30,-41,20,75,-41,0,0,0.216740451,-0.299105903,1,0,0,0.4497,submitButton,11.87387387,0.01796875,-0.224626736,0,0,0,0,51,51,25,1,41,21589,N,180,2022-02-11_13h45.54.595,orientation adjustment blockN,2021.2.3,MacIntel,59.99880002,,,,,,,
,,,,,,,,,,,,,,,,,21.11111111,-43,20,75,-29.88888889,13.11111111,13.11111111,0.417582465,-0.308706597,1,0,0,1.4987,submitButton,11.90643275,-0.250342882,-0.243663194,0,0,0,0,52,52,27,1,43,21589,N,180,2022-02-11_13h45.54.595,orientation adjustment blockN,2021.2.3,MacIntel,59.99880002,,,,,,,
,,,,,,,,,,,,,,,,,-54.44444444,-72,20,75,-248.4444444,3.555555556,3.555555556,0.412608507,-0.314492188,1,0,0,0.1665,submitButton,11.69230769,-0.217795139,-0.242248264,0,0,0,0,53,53,56,1,72,21589,N,180,2022-02-11_13h45.54.595,orientation adjustment blockN,2021.2.3,MacIntel,59.99880002,,,,,,,
,,,,,,,,,,,,,,,,,-72.77777778,-35,20,75,-220.7777778,5.777777778,5.777777778,0.39484375,-0.304414063,1,0,0,0.2674,submitButton,11.54444444,-0.208385417,-0.408914931,0,0,0,0,54,54,19,1,35,21589,N,180,2022-02-11_13h45.54.595,orientation adjustment blockN,2021.2.3,MacIntel,59.99880002,,,,,,,
,,,,,,,,,,,,,,,,,37.77777778,-42,20,75,-42.22222222,0.222222222,0.222222222,0.389500868,-0.309144965,1,0,0,0.9834,submitButton,11.26829268,0.046627604,-0.078832465,0,0,0,0,55,55,26,1,42,21589,N,180,2022-02-11_13h45.54.595,orientation adjustment blockN,2021.2.3,MacIntel,59.99880002,,,,,,,
,,,,,,,,,,,,,,,,,-55,70,20,75,56,14,14,0.20812066,-0.29609375,1,0,0,0.8003,submitButton,11.33333333,-0.135811632,-0.313637153,0,0,0,0,56,56,54,1,70,21589,N,180,2022-02-11_13h45.54.595,orientation adjustment blockN,2021.2.3,MacIntel,59.99880002,,,,,,,
,,,,,,,,,,,,,,,,,-63.33333333,32,20,75,43.66666667,11.66666667,11.66666667,0.401588542,-0.29546875,1,0,0,0.735,submitButton,11.34108527,-0.169118924,-0.257222222,0,0,0,0,57,57,16,1,32,21589,N,180,2022-02-11_13h45.54.595,orientation adjustment blockN,2021.2.3,MacIntel,59.99880002,,,,,,,
,,,,,,,,,,,,,,,,,-50,71,20,75,89,18,18,0.398055556,-0.304422743,1,0,0,0.549,submitButton,11.49242424,-0.177434896,-0.341757812,0,0,0,0,58,58,55,1,71,21589,N,180,2022-02-11_13h45.54.595,orientation adjustment blockN,2021.2.3,MacIntel,59.99880002,,,,,,,
,,,,,,,,,,,,,,,,,-30,-40,20,75,-23,17,17,0.399079861,-0.317456597,1,0,0,0.3497,submitButton,11.61481481,0.3228125,-0.395963542,1,0,0,0,59,59,24,1,40,21589,N,180,2022-02-11_13h45.54.595,orientation adjustment blockN,2021.2.3,MacIntel,59.99880002,continueButton,,,,,,
,,,,,,,,,,,,,,,,,-70,-27,20,75,-216,9,9,0.404153646,-0.315013021,1,0,0,1.1663,submitButton,11.55797101,-0.223654514,-0.399600694,0,0,0,1,0,60,11,1,27,21589,N,180,2022-02-11_13h45.54.595,orientation adjustment blockN,2021.2.3,MacIntel,59.99880002,,,,,,,
,,,,,,,,,,,,,,,,,68.88888889,-51,20,75,-59.11111111,8.111111111,8.111111111,0.399023438,-0.300950521,1,0,0,0.3831,submitButton,11.48463357,-0.311128472,-0.404322917,0,0,0,1,1,61,35,1,51,21589,N,180,2022-02-11_13h45.54.595,orientation adjustment blockN,2021.2.3,MacIntel,59.99880002,,,,,,,
,,,,,,,,,,,,,,,,,62.22222222,-38,20,75,-31.77777778,6.222222222,6.222222222,0.382881944,-0.294127604,1,0,0,0.1999,submitButton,11.375,-0.459205729,-0.397092014,0,0,0,1,2,62,22,1,38,21589,N,180,2022-02-11_13h45.54.595,orientation adjustment blockN,2021.2.3,MacIntel,59.99880002,,,,,,,
,,,,,,,,,,,,,,,,,57.22222222,-39,20,75,-38.77777778,0.222222222,0.222222222,0.403046875,-0.302556424,1,0,0,0.0988,submitButton,11.14739229,-0.314236111,-0.371232639,0,0,0,1,3,63,23,1,39,21589,N,180,2022-02-11_13h45.54.595,orientation adjustment blockN,2021.2.3,MacIntel,59.99880002,,,,,,,
,,,,,,,,,,,,,,,,,50,-41,20,75,-38,3,3,0.453862847,-0.299678819,1,0,0,0.0325,submitButton,10.98444444,-0.438116319,-0.423541667,0,0,0,1,4,64,25,1,41,21589,N,180,2022-02-11_13h45.54.595,orientation adjustment blockN,2021.2.3,MacIntel,59.99880002,,,,,,,
,,,,,,,,,,,,,,,,,41.66666667,58,20,75,211.6666667,26.33333333,26.33333333,0.208641493,-0.303020833,1,0,0,0.5152,submitButton,11.28540305,-0.292057292,-0.4090625,0,0,0,1,5,65,42,1,58,21589,N,180,2022-02-11_13h45.54.595,orientation adjustment blockN,2021.2.3,MacIntel,59.99880002,,,,,,,
,,,,,,,,,,,,,,,,,25,-33,20,75,-33,0,0,-0.312604167,-0.406579861,1,0,0,0.7155,submitButton,11.06837607,-0.312604167,-0.406579861,0,0,0,1,6,66,17,1,33,21589,N,180,2022-02-11_13h45.54.595,orientation adjustment blockN,2021.2.3,MacIntel,59.99880002,,,,,,,
,,,,,,,,,,,,,,,,,-63.88888889,21,20,75,39.11111111,18.11111111,18.11111111,0.160902778,-0.297239583,1,0,0,0.7009,submitButton,11.20125786,-0.152955729,0.5,0,0,0,1,7,67,5,1,21,21589,N,180,2022-02-11_13h45.54.595,orientation adjustment blockN,2021.2.3,MacIntel,59.99880002,,,,,,,
,,,,,,,,,,,,,,,,,-41.11111111,-23,20,75,-207.1111111,4.111111111,4.111111111,0.396614583,-0.306697049,1,0,0,0.5346,submitButton,11.06995885,-0.132994792,-0.041067708,0,0,0,1,8,68,7,1,23,21589,N,180,2022-02-11_13h45.54.595,orientation adjustment blockN,2021.2.3,MacIntel,59.99880002,,,,,,,
,,,,,,,,,,,,,,,,,73.88888889,54,20,75,223.8888889,10.11111111,10.11111111,0.185021701,-0.301666667,1,0,0,0.4168,submitButton,11.05252525,-0.136614583,0.037048611,0,0,0,1,9,69,38,1,54,21589,N,180,2022-02-11_13h45.54.595,orientation adjustment blockN,2021.2.3,MacIntel,59.99880002,,,,,,,
,,,,,,,,,,,,,,,,,-30.55555556,-48,20,75,-210.5555556,17.44444444,17.44444444,0.393537326,-0.286046007,1,0,0,0.8995,submitButton,11.16666667,-0.117222222,-0.18203125,0,0,0,1,10,70,32,1,48,21589,N,180,2022-02-11_13h45.54.595,orientation adjustment blockN,2021.2.3,MacIntel,59.99880002,,,,,,,
,,,,,,,,,,,,,,,,,35.55555556,18,20,75,31.55555556,13.55555556,13.55555556,0.415824653,-0.303381076,1,0,0,0.7502,submitButton,11.208577,-0.265290799,-0.386210938,0,0,0,1,11,71,2,1,18,21589,N,180,2022-02-11_13h45.54.595,orientation adjustment blockN,2021.2.3,MacIntel,59.99880002,,,,,,,
,,,,,,,,,,,,,,,,,-38.33333333,56,20,75,56.66666667,0.666666667,0.666666667,0.18062934,-0.299279514,1,0,0,0.4323,submitButton,11.02681992,-0.15750434,-0.241349826,0,0,0,1,12,72,40,1,56,21589,N,180,2022-02-11_13h45.54.595,orientation adjustment blockN,2021.2.3,MacIntel,59.99880002,,,,,,,
,,,,,,,,,,,,,,,,,49.44444444,72,20,75,240.4444444,11.55555556,11.55555556,0.393085937,-0.304856771,1,0,0,0.2505,submitButton,11.03578154,-0.212421875,-0.355598958,0,0,0,1,13,73,56,1,72,21589,N,180,2022-02-11_13h45.54.595,orientation adjustment blockN,2021.2.3,MacIntel,59.99880002,,,,,,,
,,,,,,,,,,,,,,,,,41.11111111,25,20,75,18.11111111,6.888888889,6.888888889,0.174470486,-0.296124132,1,0,0,1.1684,submitButton,10.96666667,0.340399306,-0.399201389,1,0,0,1,14,74,9,1,25,21589,N,180,2022-02-11_13h45.54.595,orientation adjustment blockN,2021.2.3,MacIntel,59.99880002,continueButton,,,,,,
,,,,,,,,,,,,,,,,,-64.44444444,57,20,75,49.55555556,7.444444444,7.444444444,0.384318576,-0.303828125,1,0,0,0.2166,submitButton,10.90892532,-0.106223958,-0.113719618,0,0,0,1,15,75,41,1,57,21589,N,180,2022-02-11_13h45.54.595,orientation adjustment blockN,2021.2.3,MacIntel,59.99880002,,,,,,,
,,,,,,,,,,,,,,,,,26.66666667,-46,20,75,-52.33333333,6.333333333,6.333333333,0.193138021,-0.301940104,1,0,0,0.8008,submitButton,10.83512545,-0.124474826,-0.271675347,0,0,0,1,16,76,30,1,46,21589,N,180,2022-02-11_13h45.54.595,orientation adjustment blockN,2021.2.3,MacIntel,59.99880002,,,,,,,
,,,,,,,,,,,,,,,,,-58.88888889,-28,20,75,-9.888888889,18.11111111,18.11111111,0.169461806,-0.305086806,1,0,0,1.133,submitButton,10.95061728,-0.221019965,-0.232834201,0,0,0,1,17,77,12,1,28,21589,N,180,2022-02-11_13h45.54.595,orientation adjustment blockN,2021.2.3,MacIntel,59.99880002,,,,,,,
,,,,,,,,,,,,,,,,,69.44444444,-45,20,75,-58.55555556,13.55555556,13.55555556,0.409262153,-0.307365451,1,0,0,0.2814,submitButton,10.99131944,-0.225564236,-0.407938368,0,0,0,1,18,78,29,1,45,21589,N,180,2022-02-11_13h45.54.595,orientation adjustment blockN,2021.2.3,MacIntel,59.99880002,,,,,,,
,,,,,,,,,,,,,,,,,32.22222222,50,20,75,231.2222222,1.222222222,1.222222222,0.432326389,-0.321063368,1,0,0,0.7171,submitButton,10.84102564,-0.1375,-0.222113715,0,0,0,1,19,79,34,1,50,21589,N,180,2022-02-11_13h45.54.595,orientation adjustment blockN,2021.2.3,MacIntel,59.99880002,,,,,,,
,,,,,,,,,,,,,,,,,60.55555556,55,20,75,246.5555556,11.55555556,11.55555556,0.173020833,-0.29421441,1,0,0,0.5987,submitButton,10.85185185,-0.221848958,-0.398511285,0,0,0,1,20,80,39,1,55,21589,N,180,2022-02-11_13h45.54.595,orientation adjustment blockN,2021.2.3,MacIntel,59.99880002,,,,,,,
,,,,,,,,,,,,,,,,,-24.44444444,-16,20,75,-15.44444444,0.555555556,0.555555556,0.170329861,-0.301219618,1,0,0,1.2831,submitButton,10.69817579,-0.21391059,-0.392226562,0,0,0,1,21,81,0,1,16,21589,N,180,2022-02-11_13h45.54.595,orientation adjustment blockN,2021.2.3,MacIntel,59.99880002,,,,,,,
,,,,,,,,,,,,,,,,,50,19,20,75,228,29,29,0.166445312,-0.313033854,1,0,0,0.1669,submitButton,10.96732026,-0.226966146,-0.268376736,0,0,0,1,22,82,3,1,19,21589,N,180,2022-02-11_13h45.54.595,orientation adjustment blockN,2021.2.3,MacIntel,59.99880002,,,,,,,
,,,,,,,,,,,,,,,,,51.11111111,-75,20,75,-75.88888889,0.888888889,0.888888889,0.369283854,-0.296210937,1,0,0,0.4833,submitButton,10.82125604,-0.173732639,-0.25624566,0,0,0,1,23,83,59,1,75,21589,N,180,2022-02-11_13h45.54.595,orientation adjustment blockN,2021.2.3,MacIntel,59.99880002,,,,,,,
,,,,,,,,,,,,,,,,,29.44444444,67,20,75,258.4444444,11.44444444,11.44444444,0.16625434,-0.299270833,1,0,0,0.283,submitButton,10.83015873,-0.127560764,-0.360238715,0,0,0,1,24,84,51,1,67,21589,N,180,2022-02-11_13h45.54.595,orientation adjustment blockN,2021.2.3,MacIntel,59.99880002,,,,,,,
,,,,,,,,,,,,,,,,,-55.55555556,-37,20,75,-213.5555556,3.444444444,3.444444444,0.372986111,-0.305195312,1,0,0,0.2836,submitButton,10.72613459,-0.216983507,-0.260360243,0,0,0,1,25,85,21,1,37,21589,N,180,2022-02-11_13h45.54.595,orientation adjustment blockN,2021.2.3,MacIntel,59.99880002,,,,,,,
,,,,,,,,,,,,,,,,,-40,22,20,75,33,11,11,0.164631076,-0.305950521,1,0,0,0.4156,submitButton,10.72993827,-0.184118924,-0.392534722,0,0,0,1,26,86,6,1,22,21589,N,180,2022-02-11_13h45.54.595,orientation adjustment blockN,2021.2.3,MacIntel,59.99880002,,,,,,,
,,,,,,,,,,,,,,,,,-73.33333333,49,20,75,53.66666667,4.666666667,4.666666667,-0.211623264,-0.404335938,1,0,0,1.7827,submitButton,10.64687976,-0.193116319,-0.387721354,0,0,0,1,27,87,33,1,49,21589,N,180,2022-02-11_13h45.54.595,orientation adjustment blockN,2021.2.3,MacIntel,59.99880002,,,,,,,
,,,,,,,,,,,,,,,,,62.77777778,-43,20,75,-38.22222222,4.777777778,4.777777778,0.402469618,-0.298658854,1,0,0,0.2672,submitButton,10.56756757,-0.019296875,-0.203867187,0,0,0,1,28,88,27,1,43,21589,N,180,2022-02-11_13h45.54.595,orientation adjustment blockN,2021.2.3,MacIntel,59.99880002,,,,,,,
,,,,,,,,,,,,,,,,,22.77777778,53,20,75,215.7777778,17.22222222,17.22222222,0.176792535,-0.297608507,1,0,0,0.5507,submitButton,10.6562963,0.385889757,-0.395008681,1,0,0,1,29,89,37,1,53,21589,N,180,2022-02-11_13h45.54.595,orientation adjustment blockN,2021.2.3,MacIntel,59.99880002,continueButton,,,,,,
,,,,,,,,,,,,,,,,,-45,17,20,75,22,5,5,0.203867187,-0.309353299,1,0,0,0.3154,submitButton,10.58187135,-0.226779514,-0.401844618,0,0,0,1,30,90,1,1,17,21589,N,180,2022-02-11_13h45.54.595,orientation adjustment blockN,2021.2.3,MacIntel,59.99880002,,,,,,,
,,,,,,,,,,,,,,,,,-59.44444444,-59,20,75,-240.4444444,1.444444444,1.444444444,0.383784722,-0.296914063,1,0,0,0.2841,submitButton,10.46320346,-0.164913194,-0.412703993,0,0,0,1,31,91,43,1,59,21589,N,180,2022-02-11_13h45.54.595,orientation adjustment blockN,2021.2.3,MacIntel,59.99880002,,,,,,,
,,,,,,,,,,,,,,,,,-52.22222222,42,20,75,-75.22222222,62.77777778,62.77777778,0.384752604,-0.305234375,1,0,0,3.3991,submitButton,11.13390313,-0.114865451,-0.159670139,0,0,0,1,32,92,26,1,42,21589,N,180,2022-02-11_13h45.54.595,orientation adjustment blockN,2021.2.3,MacIntel,59.99880002,,,,,,,
,,,,,,,,,,,,,,,,,-42.77777778,24,20,75,40.22222222,16.22222222,16.22222222,0.167300347,-0.290681424,1,0,0,0.1995,submitButton,11.19831224,-0.066041667,-0.063098958,0,0,0,1,33,93,8,1,24,21589,N,180,2022-02-11_13h45.54.595,orientation adjustment blockN,2021.2.3,MacIntel,59.99880002,,,,,,,
,,,,,,,,,,,,,,,,,50,-68,20,75,-66,2,2,0.396736111,-0.30609375,1,0,0,0.0821,submitButton,11.08333333,-0.075373264,-0.106697049,0,0,0,1,34,94,52,1,68,21589,N,180,2022-02-11_13h45.54.595,orientation adjustment blockN,2021.2.3,MacIntel,59.99880002,,,,,,,
,,,,,,,,,,,,,,,,,48.88888889,66,20,75,238.8888889,7.111111111,7.111111111,0.175355903,-0.289609375,1,0,0,0.1332,submitButton,11.03429355,-0.183038194,-0.22687934,0,0,0,1,35,95,50,1,66,21589,N,180,2022-02-11_13h45.54.595,orientation adjustment blockN,2021.2.3,MacIntel,59.99880002,,,,,,,
,,,,,,,,,,,,,,,,,-49.44444444,-29,20,75,-11.44444444,17.55555556,17.55555556,0.16078125,-0.297252604,1,0,0,0.3989,submitButton,11.11382114,-0.150707465,-0.275707465,0,0,0,1,36,96,13,1,29,21589,N,180,2022-02-11_13h45.54.595,orientation adjustment blockN,2021.2.3,MacIntel,59.99880002,,,,,,,
,,,,,,,,,,,,,,,,,-48.88888889,32,20,75,38.11111111,6.111111111,6.111111111,0.153055556,-0.294678819,1,0,0,1.2322,submitButton,11.05354752,-0.064518229,0.019861111,0,0,0,1,37,97,16,1,32,21589,N,180,2022-02-11_13h45.54.595,orientation adjustment blockN,2021.2.3,MacIntel,59.99880002,,,,,,,
,,,,,,,,,,,,,,,,,43.33333333,64,20,75,240.3333333,3.666666667,3.666666667,0.164244792,-0.287426215,1,0,0,2.3664,submitButton,10.96560847,0.030217014,-0.099487847,0,0,0,1,38,98,48,1,64,21589,N,180,2022-02-11_13h45.54.595,orientation adjustment blockN,2021.2.3,MacIntel,59.99880002,,,,,,,
,,,,,,,,,,,,,,,,,-36.66666667,-70,20,75,-244.6666667,5.333333333,5.333333333,0.374366319,-0.287165799,1,0,0,1.3999,submitButton,10.89934641,-0.068715278,-0.215225694,0,0,0,1,39,99,54,1,70,21589,N,180,2022-02-11_13h45.54.595,orientation adjustment blockN,2021.2.3,MacIntel,59.99880002,,,,,,,
,,,,,,,,,,,,,,,,,-34.44444444,62,20,75,62.55555556,0.555555556,0.555555556,-0.204960937,-0.388776042,1,0,0,1.0351,submitButton,10.77906977,-0.066367187,-0.259652778,0,0,0,1,40,100,46,1,62,21589,N,180,2022-02-11_13h45.54.595,orientation adjustment blockN,2021.2.3,MacIntel,59.99880002,,,,,,,
,,,,,,,,,,,,,,,,,-68.88888889,44,20,75,54.11111111,10.11111111,10.11111111,0.156158854,-0.298546007,1,0,0,1.05,submitButton,10.77139208,-0.177582465,-0.402560764,0,0,0,1,41,101,28,1,44,21589,N,180,2022-02-11_13h45.54.595,orientation adjustment blockN,2021.2.3,MacIntel,59.99880002,,,,,,,
,,,,,,,,,,,,,,,,,53.88888889,20,20,75,10.88888889,9.111111111,9.111111111,0.377782118,-0.308224826,1,0,0,0.5492,submitButton,10.75252525,-0.19312934,-0.399027778,0,0,0,1,42,102,4,1,20,21589,N,180,2022-02-11_13h45.54.595,orientation adjustment blockN,2021.2.3,MacIntel,59.99880002,,,,,,,
,,,,,,,,,,,,,,,,,-45,61,20,75,71,10,10,0.1734375,-0.318381076,1,0,0,0.0829,submitButton,10.74406991,-0.131710069,-0.207213542,0,0,0,1,43,103,45,1,61,21589,N,180,2022-02-11_13h45.54.595,orientation adjustment blockN,2021.2.3,MacIntel,59.99880002,,,,,,,
,,,,,,,,,,,,,,,,,70.55555556,69,20,75,248.5555556,0.444444444,0.444444444,0.426666667,-0.309110243,1,0,0,2.8171,submitButton,10.62962963,0.33609809,-0.395789931,1,0,0,1,44,104,53,1,69,21589,N,180,2022-02-11_13h45.54.595,orientation adjustment blockN,2021.2.3,MacIntel,59.99880002,continueButton,,,,,,
,,,,,,,,,,,,,,,,,46.11111111,47,20,75,230.1111111,3.111111111,3.111111111,0.195208333,-0.304470486,1,0,0,0.0163,submitButton,10.54700855,-0.164366319,-0.340429688,0,0,0,1,45,105,31,1,47,21589,N,180,2022-02-11_13h45.54.595,orientation adjustment blockN,2021.2.3,MacIntel,59.99880002,,,,,,,
,,,,,,,,,,,,,,,,,-29.44444444,-36,20,75,-30.44444444,5.555555556,5.555555556,0.174804688,-0.302842882,1,0,0,0.5823,submitButton,10.49275362,-0.219466146,-0.371697049,0,0,0,1,46,106,20,1,36,21589,N,180,2022-02-11_13h45.54.595,orientation adjustment blockN,2021.2.3,MacIntel,59.99880002,,,,,,,
,,,,,,,,,,,,,,,,,56.66666667,-71,20,75,-64.33333333,6.666666667,6.666666667,0.389088542,-0.304600694,1,0,0,0.183,submitButton,10.4516129,-0.145980903,-0.381853299,0,0,0,1,47,107,55,1,71,21589,N,180,2022-02-11_13h45.54.595,orientation adjustment blockN,2021.2.3,MacIntel,59.99880002,,,,,,,
,,,,,,,,,,,,,,,,,-42.77777778,-35,20,75,-22.77777778,12.22222222,12.22222222,-0.200642361,-0.395855035,1,0,0,1.4658,submitButton,10.47044917,-0.200642361,-0.395855035,0,0,0,1,48,108,19,1,35,21589,N,180,2022-02-11_13h45.54.595,orientation adjustment blockN,2021.2.3,MacIntel,59.99880002,,,,,,,
,,,,,,,,,,,,,,,,,-53.33333333,63,20,75,54.66666667,8.333333333,8.333333333,-0.227222222,-0.402217882,1,0,0,1.1496,submitButton,10.44795322,-0.21734375,-0.393059896,0,0,0,1,49,109,47,1,63,21589,N,180,2022-02-11_13h45.54.595,orientation adjustment blockN,2021.2.3,MacIntel,59.99880002,,,,,,,
,,,,,,,,,,,,,,,,,-44.44444444,60,20,75,64.55555556,4.555555556,4.555555556,0.143862847,-0.303472222,1,0,0,1.3999,submitButton,10.38657407,-0.204583333,-0.386888021,0,0,0,1,50,110,44,1,60,21589,N,180,2022-02-11_13h45.54.595,orientation adjustment blockN,2021.2.3,MacIntel,59.99880002,,,,,,,
,,,,,,,,,,,,,,,,,61.66666667,34,20,75,211.6666667,2.333333333,2.333333333,0.166675347,-0.325911458,1,0,0,0.418,submitButton,10.30355097,0.114131944,-0.418567708,0,0,0,1,51,111,18,1,34,21589,N,180,2022-02-11_13h45.54.595,orientation adjustment blockN,2021.2.3,MacIntel,59.99880002,,,,,,,
,,,,,,,,,,,,,,,,,51.66666667,-30,20,75,-26.33333333,3.666666667,3.666666667,0.403823785,-0.296471354,1,0,0,0.2329,submitButton,10.23582766,-0.01891059,-0.194544271,0,0,0,1,52,112,14,1,30,21589,N,180,2022-02-11_13h45.54.595,orientation adjustment blockN,2021.2.3,MacIntel,59.99880002,,,,,,,
,,,,,,,,,,,,,,,,,-59.44444444,-65,20,75,-236.4444444,8.555555556,8.555555556,-0.152673611,-0.410269097,1,0,0,2.5008,submitButton,10.21885522,-0.12359809,-0.143328993,0,0,0,1,53,113,49,1,65,21589,N,180,2022-02-11_13h45.54.595,orientation adjustment blockN,2021.2.3,MacIntel,59.99880002,,,,,,,
,,,,,,,,,,,,,,,,,-51.66666667,73,20,75,75.33333333,2.333333333,2.333333333,0.164175347,-0.282708333,1,0,0,0.948,submitButton,10.14,0.14265625,0.043224826,0,0,0,1,54,114,57,1,73,21589,N,180,2022-02-11_13h45.54.595,orientation adjustment blockN,2021.2.3,MacIntel,59.99880002,,,,,,,
,,,,,,,,,,,,,,,,,-48.33333333,52,20,75,54.66666667,2.666666667,2.666666667,-0.148836806,-0.402608507,1,0,0,1.7341,submitButton,10.0660066,0.010060764,-0.297269965,0,0,0,1,55,115,36,1,52,21589,N,180,2022-02-11_13h45.54.595,orientation adjustment blockN,2021.2.3,MacIntel,59.99880002,,,,,,,
,,,,,,,,,,,,,,,,,47.77777778,74,20,75,263.7777778,9.777777778,9.777777778,0.163363715,-0.298085938,1,0,0,2.2835,submitButton,10.06318083,-0.186371528,-0.374422743,0,0,0,1,56,116,58,1,74,21589,N,180,2022-02-11_13h45.54.595,orientation adjustment blockN,2021.2.3,MacIntel,59.99880002,,,,,,,
,,,,,,,,,,,,,,,,,66.66666667,-31,20,75,-36.33333333,5.333333333,5.333333333,0.401072049,-0.300512153,1,0,0,0.0668,submitButton,10.01725998,-0.094973958,-0.369123264,0,0,0,1,57,117,15,1,31,21589,N,180,2022-02-11_13h45.54.595,orientation adjustment blockN,2021.2.3,MacIntel,59.99880002,,,,,,,
,,,,,,,,,,,,,,,,,68.33333333,40,20,75,215.3333333,4.666666667,4.666666667,-0.227439236,-0.407174479,1,0,0,2.4494,submitButton,9.965811966,-0.123498264,-0.347530382,0,0,0,1,58,118,24,1,40,21589,N,180,2022-02-11_13h45.54.595,orientation adjustment blockN,2021.2.3,MacIntel,59.99880002,,,,,,,
,,,,,,,,,,,,,,,,,38.33333333,-26,20,75,-28.66666667,2.666666667,2.666666667,-0.112851563,-0.397239583,1,0,0,1.6319,submitButton,9.896296296,0.330520833,-0.397482639,1,0,0,1,59,119,10,1,26,21589,N,180,2022-02-11_13h45.54.595,orientation adjustment blockN,2021.2.3,MacIntel,59.99880002,continueButton,,,,,,
,,,,,,,,,,,,,,,,,-67.22222222,-17,20,75,-12.22222222,4.777777778,4.777777778,0.188263889,-0.313858507,1,0,0,0.4507,submitButton,9.848008386,-0.213498264,-0.391909722,0,0,0,2,0,120,1,1,17,21589,N,180,2022-02-11_13h45.54.595,orientation adjustment blockN,2021.2.3,MacIntel,59.99880002,,,,,,,
,,,,,,,,,,,,,,,,,-56.66666667,-73,20,75,-252.6666667,0.333333333,0.333333333,-0.221076389,-0.411032986,1,0,0,3.3334,submitButton,9.759086189,-0.221076389,-0.411032986,0,0,0,2,1,121,57,1,73,21589,N,180,2022-02-11_13h45.54.595,orientation adjustment blockN,2021.2.3,MacIntel,59.99880002,,,,,,,
,,,,,,,,,,,,,,,,,60,46,20,75,224,2,2,-0.236011285,-0.406419271,1,0,0,2.6834,submitButton,9.687242798,-0.236011285,-0.406419271,0,0,0,2,2,122,30,1,46,21589,N,180,2022-02-11_13h45.54.595,orientation adjustment blockN,2021.2.3,MacIntel,59.99880002,,,,,,,
,,,,,,,,,,,,,,,,,33.33333333,58,20,75,238.3333333,0.333333333,0.333333333,0.157157118,-0.305833333,1,0,0,2.6004,submitButton,9.601427115,0.186549479,0.031341146,0,0,0,2,3,123,42,1,58,21589,N,180,2022-02-11_13h45.54.595,orientation adjustment blockN,2021.2.3,MacIntel,59.99880002,,,,,,,
,,,,,,,,,,,,,,,,,44.44444444,75,20,75,257.4444444,2.444444444,2.444444444,0.174496528,-0.296888021,1,0,0,2.4672,submitButton,9.536363636,0.304405382,0.02953125,0,0,0,2,4,124,59,1,75,21589,N,180,2022-02-11_13h45.54.595,orientation adjustment blockN,2021.2.3,MacIntel,59.99880002,,,,,,,
,,,,,,,,,,,,,,,,,-39.44444444,70,20,75,68.55555556,1.444444444,1.444444444,-0.157734375,-0.398446181,1,0,0,1.5672,submitButton,9.463463463,0.00125434,-0.014492187,0,0,0,2,5,125,54,1,70,21589,N,180,2022-02-11_13h45.54.595,orientation adjustment blockN,2021.2.3,MacIntel,59.99880002,,,,,,,
,,,,,,,,,,,,,,,,,65.55555556,-74,20,75,-70.44444444,3.555555556,3.555555556,0.382256944,-0.282330729,1,0,0,0.1668,submitButton,9.410714286,-0.157061632,-0.403845486,0,0,0,2,6,126,58,1,74,21589,N,180,2022-02-11_13h45.54.595,orientation adjustment blockN,2021.2.3,MacIntel,59.99880002,,,,,,,
,,,,,,,,,,,,,,,,,-61.11111111,-43,20,75,-39.11111111,3.888888889,3.888888889,0.167599826,-0.304340278,1,0,0,0.1984,submitButton,9.361848574,-0.286458333,-0.400507813,0,0,0,2,7,127,27,1,43,21589,N,180,2022-02-11_13h45.54.595,orientation adjustment blockN,2021.2.3,MacIntel,59.99880002,,,,,,,
,,,,,,,,,,,,,,,,,-66.66666667,20,20,75,29.33333333,9.333333333,9.333333333,0.159756944,-0.293684896,1,0,0,0.0158,submitButton,9.361598441,-0.227018229,-0.402243924,0,0,0,2,8,128,4,1,20,21589,N,180,2022-02-11_13h45.54.595,orientation adjustment blockN,2021.2.3,MacIntel,59.99880002,,,,,,,
,,,,,,,,,,,,,,,,,-72.77777778,72,20,75,52.22222222,19.77777778,19.77777778,0.143710937,-0.299592014,1,0,0,0.8672,submitButton,9.452173913,-0.225555556,-0.413923611,0,0,0,2,9,129,56,1,72,21589,N,180,2022-02-11_13h45.54.595,orientation adjustment blockN,2021.2.3,MacIntel,59.99880002,,,,,,,
,,,,,,,,,,,,,,,,,56.11111111,-51,20,75,-27.88888889,23.11111111,23.11111111,0.387899306,-0.283615451,1,0,0,0.0848,submitButton,9.569923372,-0.241171875,-0.418463542,0,0,0,2,10,130,35,1,51,21589,N,180,2022-02-11_13h45.54.595,orientation adjustment blockN,2021.2.3,MacIntel,59.99880002,,,,,,,
,,,,,,,,,,,,,,,,,42.22222222,63,20,75,219.2222222,23.77777778,23.77777778,0.172248264,-0.30000434,1,0,0,0.0668,submitButton,9.691358025,-0.256757813,-0.413949653,0,0,0,2,11,131,47,1,63,21589,N,180,2022-02-11_13h45.54.595,orientation adjustment blockN,2021.2.3,MacIntel,59.99880002,,,,,,,
,,,,,,,,,,,,,,,,,-56.11111111,62,20,75,51.88888889,10.11111111,10.11111111,0.38796875,-0.288502604,1,0,0,0.4831,submitButton,9.694915254,-0.207617187,-0.39530816,0,0,0,2,12,132,46,1,62,21589,N,180,2022-02-11_13h45.54.595,orientation adjustment blockN,2021.2.3,MacIntel,59.99880002,,,,,,,
,,,,,,,,,,,,,,,,,-52.22222222,23,20,75,23.77777778,0.777777778,0.777777778,0.16750434,-0.311293403,1,0,0,0.2169,submitButton,9.619981326,-0.163962674,-0.359492188,0,0,0,2,13,133,7,1,23,21589,N,180,2022-02-11_13h45.54.595,orientation adjustment blockN,2021.2.3,MacIntel,59.99880002,,,,,,,
,,,,,,,,,,,,,,,,,-50,-26,20,75,-208,2,2,0.398159722,-0.282634549,1,0,0,2.4503,submitButton,9.556481481,0.32734809,-0.409045139,1,0,0,2,14,134,10,1,26,21589,N,180,2022-02-11_13h45.54.595,orientation adjustment blockN,2021.2.3,MacIntel,59.99880002,continueButton,,,,,,
,,,,,,,,,,,,,,,,,53.33333333,-31,20,75,-25.66666667,5.333333333,5.333333333,0.392847222,-0.315481771,1,0,0,0.0997,submitButton,9.521579431,-0.157018229,-0.26858941,0,0,0,2,15,135,15,1,31,21589,N,180,2022-02-11_13h45.54.595,orientation adjustment blockN,2021.2.3,MacIntel,59.99880002,,,,,,,
,,,,,,,,,,,,,,,,,75,-35,20,75,-29,6,6,-0.282374132,-0.429826389,1,0,0,1.8841,submitButton,9.492714026,-0.280273438,-0.40422309,0,0,0,2,16,136,19,1,35,21589,N,180,2022-02-11_13h45.54.595,orientation adjustment blockN,2021.2.3,MacIntel,59.99880002,,,,,,,
,,,,,,,,,,,,,,,,,-67.22222222,-55,20,75,-223.2222222,11.77777778,11.77777778,0.392174479,-0.304318576,1,0,0,4.1162,submitButton,9.51129178,-0.264756944,-0.426015625,0,0,0,2,17,137,39,1,55,21589,N,180,2022-02-11_13h45.54.595,orientation adjustment blockN,2021.2.3,MacIntel,59.99880002,,,,,,,
,,,,,,,,,,,,,,,,,24.44444444,50,20,75,43.44444444,6.555555556,6.555555556,0.180954861,-0.293450521,1,0,0,1.1172,submitButton,9.487455197,-0.298268229,-0.39812066,0,0,0,2,18,138,34,1,50,21589,N,180,2022-02-11_13h45.54.595,orientation adjustment blockN,2021.2.3,MacIntel,59.99880002,,,,,,,
,,,,,,,,,,,,,,,,,55,-16,20,75,-20,4,4,0.428923611,-0.269765625,1,0,0,0.2499,submitButton,9.443555556,-0.235434028,-0.110972222,0,0,0,2,19,139,0,1,16,21589,N,180,2022-02-11_13h45.54.595,orientation adjustment blockN,2021.2.3,MacIntel,59.99880002,,,,,,,
,,,,,,,,,,,,,,,,,-41.11111111,-69,20,75,-245.1111111,3.888888889,3.888888889,-0.171067708,-0.407482639,1,0,0,3.5662,submitButton,9.399470899,-0.17078125,-0.407482639,0,0,0,2,20,140,53,1,69,21589,N,180,2022-02-11_13h45.54.595,orientation adjustment blockN,2021.2.3,MacIntel,59.99880002,,,,,,,
,,,,,,,,,,,,,,,,,-57.22222222,65,20,75,61.77777778,3.222222222,3.222222222,0.201419271,-0.310338542,1,0,0,0.0661,submitButton,9.350831146,-0.028940972,-0.035898437,0,0,0,2,21,141,49,1,65,21589,N,180,2022-02-11_13h45.54.595,orientation adjustment blockN,2021.2.3,MacIntel,59.99880002,,,,,,,
,,,,,,,,,,,,,,,,,51.66666667,38,20,75,33.66666667,4.333333333,4.333333333,0.399639757,-0.273580729,1,0,0,0.3664,submitButton,9.311631944,-0.218368056,-0.077821181,0,0,0,2,22,142,22,1,38,21589,N,180,2022-02-11_13h45.54.595,orientation adjustment blockN,2021.2.3,MacIntel,59.99880002,,,,,,,
,,,,,,,,,,,,,,,,,-48.88888889,71,20,75,75.11111111,4.111111111,4.111111111,0.163585069,-0.291848958,1,0,0,1.3512,submitButton,9.271317829,0.368832465,-0.259739583,0,0,0,2,23,143,55,1,71,21589,N,180,2022-02-11_13h45.54.595,orientation adjustment blockN,2021.2.3,MacIntel,59.99880002,,,,,,,
,,,,,,,,,,,,,,,,,-37.22222222,-49,20,75,-230.2222222,1.222222222,1.222222222,0.214227431,-0.30405816,1,0,0,3.5667,submitButton,9.209401709,0.040950521,-0.031158854,0,0,0,2,24,144,33,1,49,21589,N,180,2022-02-11_13h45.54.595,orientation adjustment blockN,2021.2.3,MacIntel,59.99880002,,,,,,,
,,,,,,,,,,,,,,,,,-63.88888889,30,20,75,33.11111111,3.111111111,3.111111111,0.390525174,-0.296527778,1,0,0,1.7499,submitButton,9.162849873,-0.092717014,-0.021102431,0,0,0,2,25,145,14,1,30,21589,N,180,2022-02-11_13h45.54.595,orientation adjustment blockN,2021.2.3,MacIntel,59.99880002,,,,,,,
,,,,,,,,,,,,,,,,,-59.44444444,64,20,75,53.55555556,10.44444444,10.44444444,0.190677083,-0.297408854,1,0,0,1.1003,submitButton,9.172558923,-0.055794271,-0.110559896,0,0,0,2,26,146,48,1,64,21589,N,180,2022-02-11_13h45.54.595,orientation adjustment blockN,2021.2.3,MacIntel,59.99880002,,,,,,,
,,,,,,,,,,,,,,,,,40,-42,20,75,-48,6,6,-0.159895833,-0.405798611,1,0,0,1.3001,submitButton,9.148705096,-0.108068576,0.291171875,0,0,0,2,27,147,26,1,42,21589,N,180,2022-02-11_13h45.54.595,orientation adjustment blockN,2021.2.3,MacIntel,59.99880002,,,,,,,
,,,,,,,,,,,,,,,,,-60.55555556,-59,20,75,-230.5555556,8.444444444,8.444444444,0.399574653,-0.317486979,1,0,0,2.9681,submitButton,9.14344942,-0.145694444,0.239930556,0,0,0,2,28,148,43,1,59,21589,N,180,2022-02-11_13h45.54.595,orientation adjustment blockN,2021.2.3,MacIntel,59.99880002,,,,,,,
,,,,,,,,,,,,,,,,,-26.11111111,-27,20,75,-20.11111111,6.888888889,6.888888889,0.180030382,-0.300026042,1,0,0,0.1156,submitButton,9.126748971,0.116783854,-0.243993056,0,0,0,2,29,149,11,1,27,21589,N,180,2022-02-11_13h45.54.595,orientation adjustment blockN,2021.2.3,MacIntel,59.99880002,,,,,,,
,,,,,,,,,,,,,,,,,-55,61,20,75,47,14,14,-0.259149306,-0.393710938,1,0,0,1.0655,submitButton,9.162581699,-0.259149306,-0.393710938,0,0,0,2,30,150,45,1,61,21589,N,180,2022-02-11_13h45.54.595,orientation adjustment blockN,2021.2.3,MacIntel,59.99880002,,,,,,,
,,,,,,,,,,,,,,,,,-40,53,20,75,45,8,8,0.180568576,-0.301961806,1,0,0,0.0503,submitButton,9.154095702,-0.152256944,-0.367773438,0,0,0,2,31,151,37,1,53,21589,N,180,2022-02-11_13h45.54.595,orientation adjustment blockN,2021.2.3,MacIntel,59.99880002,,,,,,,
,,,,,,,,,,,,,,,,,68.33333333,-54,20,75,-47.66666667,6.333333333,6.333333333,-0.194496528,-0.41484375,1,0,0,1.4839,submitButton,9.133655395,-0.194496528,-0.41484375,0,0,0,2,32,152,38,1,54,21589,N,180,2022-02-11_13h45.54.595,orientation adjustment blockN,2021.2.3,MacIntel,59.99880002,,,,,,,
,,,,,,,,,,,,,,,,,-48.88888889,-34,20,75,-29.88888889,4.111111111,4.111111111,0.195434028,-0.321154514,1,0,0,0.0658,submitButton,9.097521982,-0.194813368,-0.397152778,0,0,0,2,33,153,18,1,34,21589,N,180,2022-02-11_13h45.54.595,orientation adjustment blockN,2021.2.3,MacIntel,59.99880002,,,,,,,
,,,,,,,,,,,,,,,,,36.11111111,-18,20,75,-18.88888889,0.888888889,0.888888889,0.383585069,-0.319144965,1,0,0,0.1331,submitButton,9.038888889,-0.266935764,-0.4103125,0,0,0,2,34,154,2,1,18,21589,N,180,2022-02-11_13h45.54.595,orientation adjustment blockN,2021.2.3,MacIntel,59.99880002,,,,,,,
,,,,,,,,,,,,,,,,,22.77777778,57,20,75,48.77777778,8.222222222,8.222222222,0.412855903,-0.273524306,1,0,0,0.499,submitButton,9.033096927,-0.216818576,-0.401844618,0,0,0,2,35,155,41,1,57,21589,N,180,2022-02-11_13h45.54.595,orientation adjustment blockN,2021.2.3,MacIntel,59.99880002,,,,,,,
,,,,,,,,,,,,,,,,,72.22222222,-24,20,75,-25.77777778,1.777777778,1.777777778,0.393958333,-0.302955729,1,0,0,0.0999,submitButton,8.98200313,-0.167725694,-0.396050347,0,0,0,2,36,156,8,1,24,21589,N,180,2022-02-11_13h45.54.595,orientation adjustment blockN,2021.2.3,MacIntel,59.99880002,,,,,,,
,,,,,,,,,,,,,,,,,-33.88888889,-28,20,75,-28.88888889,0.888888889,0.888888889,0.204587674,-0.304205729,1,0,0,0.1162,submitButton,8.925407925,-0.030581597,-0.271922743,0,0,0,2,37,157,12,1,28,21589,N,180,2022-02-11_13h45.54.595,orientation adjustment blockN,2021.2.3,MacIntel,59.99880002,,,,,,,
,,,,,,,,,,,,,,,,,36.11111111,-67,20,75,-56.88888889,10.11111111,10.11111111,0.402907986,-0.291618924,1,0,0,0.0315,submitButton,8.933641975,0.12328559,-0.365946181,0,0,0,2,38,158,51,1,67,21589,N,180,2022-02-11_13h45.54.595,orientation adjustment blockN,2021.2.3,MacIntel,59.99880002,,,,,,,
,,,,,,,,,,,,,,,,,41.11111111,-37,20,75,-25.88888889,11.11111111,11.11111111,0.405442708,-0.309032118,1,0,0,0.0667,submitButton,8.948659004,0.073476562,-0.400724826,0,0,0,2,39,159,21,1,37,21589,N,180,2022-02-11_13h45.54.595,orientation adjustment blockN,2021.2.3,MacIntel,59.99880002,,,,,,,
,,,,,,,,,,,,,,,,,-56.66666667,52,20,75,47.33333333,4.666666667,4.666666667,0.166653646,-0.31219184,1,0,0,0.2329,submitButton,8.919330289,-0.012751736,-0.271471354,0,0,0,2,40,160,36,1,52,21589,N,180,2022-02-11_13h45.54.595,orientation adjustment blockN,2021.2.3,MacIntel,59.99880002,,,,,,,
,,,,,,,,,,,,,,,,,44.44444444,36,20,75,42.44444444,6.444444444,6.444444444,0.442417535,-0.296601563,1,0,0,0.1167,submitButton,8.902494331,-0.123211806,-0.182764757,0,0,0,2,41,161,20,1,36,21589,N,180,2022-02-11_13h45.54.595,orientation adjustment blockN,2021.2.3,MacIntel,59.99880002,,,,,,,
,,,,,,,,,,,,,,,,,37.22222222,-25,20,75,-22.77777778,2.222222222,2.222222222,0.390177951,-0.28859375,1,0,0,0.0501,submitButton,8.857357357,0.048446181,-0.28202691,0,0,0,2,42,162,9,1,25,21589,N,180,2022-02-11_13h45.54.595,orientation adjustment blockN,2021.2.3,MacIntel,59.99880002,,,,,,,
,,,,,,,,,,,,,,,,,50,45,20,75,225,0,0,0.163107639,-0.293927951,1,0,0,2.6833,submitButton,8.797912006,-0.103849826,-0.336445312,0,0,0,2,43,163,29,1,45,21589,N,180,2022-02-11_13h45.54.595,orientation adjustment blockN,2021.2.3,MacIntel,59.99880002,,,,,,,
,,,,,,,,,,,,,,,,,-42.77777778,-68,20,75,-237.7777778,10.22222222,10.22222222,0.402204861,-0.281770833,1,0,0,0.0663,submitButton,8.807407407,-0.1565625,-0.359210069,0,0,0,2,44,164,52,1,68,21589,N,180,2022-02-11_13h45.54.595,orientation adjustment blockN,2021.2.3,MacIntel,59.99880002,,,,,,,
,,,,,,,,,,,,,,,,,-56.66666667,-32,20,75,-16.66666667,15.33333333,15.33333333,-0.138980035,-0.405807292,1,0,0,2.1003,submitButton,8.85062546,-0.101957465,-0.342096354,0,0,0,2,45,165,16,1,32,21589,N,180,2022-02-11_13h45.54.595,orientation adjustment blockN,2021.2.3,MacIntel,59.99880002,,,,,,,
,,,,,,,,,,,,,,,,,73.88888889,60,20,75,236.8888889,3.111111111,3.111111111,-0.353103299,-0.414483507,1,0,0,2.3335,submitButton,8.812865497,-0.344887153,-0.400329861,0,0,0,2,46,166,44,1,60,21589,N,180,2022-02-11_13h45.54.595,orientation adjustment blockN,2021.2.3,MacIntel,59.99880002,,,,,,,
,,,,,,,,,,,,,,,,,-51.11111111,48,20,75,54.88888889,6.888888889,6.888888889,-0.217096354,-0.39968316,1,0,0,2.8164,submitButton,8.800290487,-0.215664063,-0.398810764,0,0,0,2,47,167,32,1,48,21589,N,180,2022-02-11_13h45.54.595,orientation adjustment blockN,2021.2.3,MacIntel,59.99880002,,,,,,,
,,,,,,,,,,,,,,,,,-27.77777778,19,20,75,34.22222222,15.22222222,15.22222222,0.170221354,-0.306527778,1,0,0,0.4663,submitButton,8.841991342,-0.239570312,-0.403333333,0,0,0,2,48,168,3,1,19,21589,N,180,2022-02-11_13h45.54.595,orientation adjustment blockN,2021.2.3,MacIntel,59.99880002,,,,,,,
,,,,,,,,,,,,,,,,,67.77777778,66,20,75,232.7777778,13.22222222,13.22222222,-0.184340278,-0.397361111,1,0,0,2.1656,submitButton,8.870250896,0.119761285,-0.344001736,0,0,0,2,49,169,50,1,66,21589,N,180,2022-02-11_13h45.54.595,orientation adjustment blockN,2021.2.3,MacIntel,59.99880002,,,,,,,
,,,,,,,,,,,,,,,,,22.22222222,39,20,75,38.22222222,0.777777778,0.777777778,0.378029514,-0.295655382,1,0,0,0.3005,submitButton,8.818376068,0.072717014,-0.284778646,0,0,0,2,50,170,23,1,39,21589,N,180,2022-02-11_13h45.54.595,orientation adjustment blockN,2021.2.3,MacIntel,59.99880002,,,,,,,
,,,,,,,,,,,,,,,,,-42.77777778,40,20,75,32.22222222,7.777777778,7.777777778,0.17875434,-0.291336806,1,0,0,0.232,submitButton,8.811748054,-0.105733507,-0.303706597,0,0,0,2,51,171,24,1,40,21589,N,180,2022-02-11_13h45.54.595,orientation adjustment blockN,2021.2.3,MacIntel,59.99880002,,,,,,,
,,,,,,,,,,,,,,,,,-69.44444444,-41,20,75,-204.4444444,16.55555556,16.55555556,-0.193680556,-0.395768229,1,0,0,2.4008,submitButton,8.860759494,-0.171059028,-0.374253472,0,0,0,2,52,172,25,1,41,21589,N,180,2022-02-11_13h45.54.595,orientation adjustment blockN,2021.2.3,MacIntel,59.99880002,,,,,,,
,,,,,,,,,,,,,,,,,-35.55555556,-33,20,75,-209.5555556,3.444444444,3.444444444,0.404626736,-0.301302083,1,0,0,0.0829,submitButton,8.826694619,-0.118689236,-0.399014757,0,0,0,2,53,173,17,1,33,21589,N,180,2022-02-11_13h45.54.595,orientation adjustment blockN,2021.2.3,MacIntel,59.99880002,,,,,,,
,,,,,,,,,,,,,,,,,43.33333333,21,20,75,25.33333333,4.333333333,4.333333333,0.406805556,-0.293142361,1,0,0,0.7325,submitButton,8.798611111,-0.168567708,-0.388007812,0,0,0,2,54,174,5,1,21,21589,N,180,2022-02-11_13h45.54.595,orientation adjustment blockN,2021.2.3,MacIntel,59.99880002,,,,,,,
,,,,,,,,,,,,,,,,,38.88888889,56,20,75,247.8888889,11.88888889,11.88888889,0.412465278,-0.311358507,1,0,0,0.8157,submitButton,8.817805383,-0.257000868,-0.405651042,0,0,0,2,55,175,40,1,56,21589,N,180,2022-02-11_13h45.54.595,orientation adjustment blockN,2021.2.3,MacIntel,59.99880002,,,,,,,
,,,,,,,,,,,,,,,,,48.33333333,29,20,75,18.33333333,10.66666667,10.66666667,-0.175976562,-0.408736979,1,0,0,1.5666,submitButton,8.829218107,-0.175976562,-0.408736979,0,0,0,2,56,176,13,1,29,21589,N,180,2022-02-11_13h45.54.595,orientation adjustment blockN,2021.2.3,MacIntel,59.99880002,,,,,,,
,,,,,,,,,,,,,,,,,28.88888889,-22,20,75,-26.11111111,4.111111111,4.111111111,-0.256601562,-0.403337674,1,0,0,1.1498,submitButton,8.800272665,-0.256601562,-0.403337674,0,0,0,2,57,177,6,1,22,21589,N,180,2022-02-11_13h45.54.595,orientation adjustment blockN,2021.2.3,MacIntel,59.99880002,,,,,,,
,,,,,,,,,,,,,,,,,50.55555556,44,20,75,230.5555556,6.555555556,6.555555556,-0.180859375,-0.40094184,1,0,0,2.6993,submitButton,8.786585366,-0.180859375,-0.40094184,0,0,0,2,58,178,28,1,44,21589,N,180,2022-02-11_13h45.54.595,orientation adjustment blockN,2021.2.3,MacIntel,59.99880002,,,,,,,
,,,,,,,,,,,,,,,,,40.55555556,-47,20,75,-36.44444444,10.55555556,10.55555556,0.422864583,-0.303211806,1,0,0,0.6166,submitButton,8.797306397,-0.246922743,-0.390238715,0,0,0,2,59,179,31,1,47,21589,N,180,2022-02-11_13h45.54.595,orientation adjustment blockN,2021.2.3,MacIntel,59.99880002,,,,,,,
,,,,,,,,,,,,,,,,,,,,,,,,,,,,,,,,,,,,,,,,,,,21589,N,180,2022-02-11_13h45.54.595,orientation adjustment blockN,2021.2.3,MacIntel,59.99880002,,0.546744792,-0.402790799,1,0,0,EndButtonTxt
