consentMouse1.x,consentMouse1.y,consentMouse1.leftButton,consentMouse1.midButton,consentMouse1.rightButton,consentMouse1.clicked_name,consent_Mouse.x,consent_Mouse.y,consent_Mouse.leftButton,consent_Mouse.midButton,consent_Mouse.rightButton,consent_Mouse.clicked_name,startMouse.x,startMouse.y,startMouse.leftButton,startMouse.midButton,startMouse.rightButton,start_distance,fixedOri,minimalDistance,maxOri,this_ori,accuracy,presented_accuracy,submitMouse.x,submitMouse.y,submitMouse.leftButton,submitMouse.midButton,submitMouse.rightButton,submitMouse.time,submitMouse.clicked_name,block_accuracy,continueMouse.x,continueMouse.y,continueMouse.leftButton,continueMouse.midButton,continueMouse.rightButton,trials.thisRepN,trials.thisTrialN,trials.thisN,trials.thisIndex,trials.ran,startOri,participant,condition,nTrials,date,expName,psychopyVersion,OS,frameRate,continueMouse.clicked_name,EndButtonMouse.x,EndButtonMouse.y,EndButtonMouse.leftButton,EndButtonMouse.midButton,EndButtonMouse.rightButton,EndButtonMouse.clicked_name
0.398888889,-0.404444444,1,0,0,consent_button1,0.381111111,-0.401111111,1,0,0,consent_button,0.14,-0.332222222,1,0,0,71.66666667,-54,20,75,2.666666667,56.66666667,56.66666667,0.372222222,-0.281111111,1,0,0,1.131,submitButton,56.66666667,-0.293333333,-0.388888889,0,0,0,0,0,0,38,1,54,67246,N,180,2022-02-24_17h24.27,orientation adjustment blockN,2021.2.3,MacIntel,58.82352941,,,,,,,
,,,,,,,,,,,,,,,,,-22.22222222,-45,20,75,-49.22222222,4.222222222,4.222222222,0.207777778,-0.307777778,1,0,0,0.116,submitButton,30.44444444,0.301111111,-0.006666667,0,0,0,0,1,1,29,1,45,67246,N,180,2022-02-24_17h24.27,orientation adjustment blockN,2021.2.3,MacIntel,58.82352941,,,,,,,
,,,,,,,,,,,,,,,,,75,-21,20,75,-17,4,4,0.398888889,-0.313333333,1,0,0,0.033,submitButton,21.62962963,-0.022222222,-0.184444444,0,0,0,0,2,2,5,1,21,67246,N,180,2022-02-24_17h24.27,orientation adjustment blockN,2021.2.3,MacIntel,58.82352941,,,,,,,
,,,,,,,,,,,,,,,,,-39.44444444,48,20,75,27.55555556,20.44444444,20.44444444,0.442222222,-0.296666667,1,0,0,0.101,submitButton,20.44444444,0.066666667,-0.213333333,0,0,0,0,3,3,32,1,48,67246,N,180,2022-02-24_17h24.27,orientation adjustment blockN,2021.2.3,MacIntel,58.82352941,,,,,,,
,,,,,,,,,,,,,,,,,-66.66666667,19,20,75,12.33333333,6.666666667,6.666666667,0.196666667,-0.286666667,1,0,0,1.05,submitButton,13.55555556,-0.338888889,-0.402222222,0,0,0,0,4,4,3,1,19,67246,N,180,2022-02-24_17h24.27,orientation adjustment blockN,2021.2.3,MacIntel,58.82352941,,,,,,,
,,,,,,,,,,,,,,,,,-66.66666667,40,20,75,30.33333333,9.666666667,9.666666667,0.22,-0.306666667,1,0,0,0.5,submitButton,12.25925926,-0.246666667,-0.422222222,0,0,0,0,5,5,24,1,40,67246,N,180,2022-02-24_17h24.27,orientation adjustment blockN,2021.2.3,MacIntel,58.82352941,,,,,,,
,,,,,,,,,,,,,,,,,-58.33333333,62,20,75,39.66666667,22.33333333,22.33333333,-0.305555556,-0.404444444,1,0,0,1.366,submitButton,22.33333333,-0.305555556,-0.404444444,0,0,0,0,6,6,46,1,62,67246,N,180,2022-02-24_17h24.27,orientation adjustment blockN,2021.2.3,MacIntel,58.82352941,,,,,,,
,,,,,,,,,,,,,,,,,-75,18,20,75,8,10,10,-0.25,-0.398888889,1,0,0,1.484,submitButton,16.16666667,-0.25,-0.398888889,0,0,0,0,7,7,2,1,18,67246,N,180,2022-02-24_17h24.27,orientation adjustment blockN,2021.2.3,MacIntel,58.82352941,,,,,,,
,,,,,,,,,,,,,,,,,-70,-59,20,75,-224,15,15,0.408888889,-0.268888889,1,0,0,0.1,submitButton,15.77777778,-0.227777778,-0.404444444,0,0,0,0,8,8,43,1,59,67246,N,180,2022-02-24_17h24.27,orientation adjustment blockN,2021.2.3,MacIntel,58.82352941,,,,,,,
,,,,,,,,,,,,,,,,,47.77777778,-64,20,75,-42.22222222,21.77777778,21.77777778,0.393333333,-0.282222222,1,0,0,0.633,submitButton,21.77777778,0.078888889,-0.087777778,0,0,0,0,9,9,48,1,64,67246,N,180,2022-02-24_17h24.27,orientation adjustment blockN,2021.2.3,MacIntel,58.82352941,,,,,,,
,,,,,,,,,,,,,,,,,28.88888889,-75,20,75,-69.11111111,5.888888889,5.888888889,-0.21,-0.391111111,1,0,0,0.867,submitButton,13.83333333,-0.21,-0.391111111,0,0,0,0,10,10,59,1,75,67246,N,180,2022-02-24_17h24.27,orientation adjustment blockN,2021.2.3,MacIntel,58.82352941,,,,,,,
,,,,,,,,,,,,,,,,,45,-44,20,75,113,23,23,0.194444444,-0.296666667,1,0,0,1.6,submitButton,16.88888889,-0.035555556,-0.213333333,0,0,0,0,11,11,28,1,44,67246,N,180,2022-02-24_17h24.27,orientation adjustment blockN,2021.2.3,MacIntel,58.82352941,,,,,,,
,,,,,,,,,,,,,,,,,25.55555556,36,20,75,35.55555556,0.444444444,0.444444444,0.415555556,-0.31,1,0,0,0.3,submitButton,0.444444444,-0.297777778,-0.39,0,0,0,0,12,12,20,1,36,67246,N,180,2022-02-24_17h24.27,orientation adjustment blockN,2021.2.3,MacIntel,58.82352941,,,,,,,
,,,,,,,,,,,,,,,,,-73.33333333,-30,20,75,-199.3333333,10.66666667,10.66666667,-0.201111111,-0.41,1,0,0,1.75,submitButton,5.555555556,-0.201111111,-0.41,0,0,0,0,13,13,14,1,30,67246,N,180,2022-02-24_17h24.27,orientation adjustment blockN,2021.2.3,MacIntel,58.82352941,,,,,,,
,,,,,,,,,,,,,,,,,-53.33333333,-16,20,75,-38.33333333,22.33333333,22.33333333,-0.263333333,-0.411111111,1,0,0,0.85,submitButton,11.14814815,0.334444444,-0.382222222,1,0,0,0,14,14,0,1,16,67246,N,180,2022-02-24_17h24.27,orientation adjustment blockN,2021.2.3,MacIntel,58.82352941,continueButton,,,,,,
,,,,,,,,,,,,,,,,,-29.44444444,34,20,75,23.55555556,10.44444444,10.44444444,-0.267777778,-0.384444444,1,0,0,0.8,submitButton,10.44444444,-0.211111111,-0.348888889,0,0,0,0,15,15,18,1,34,67246,N,180,2022-02-24_17h24.27,orientation adjustment blockN,2021.2.3,MacIntel,58.82352941,,,,,,,
,,,,,,,,,,,,,,,,,53.88888889,-47,20,75,-31.11111111,15.88888889,15.88888889,-0.348888889,-0.388888889,1,0,0,0.584,submitButton,13.16666667,0.098888889,-0.046666667,0,0,0,0,16,16,31,1,47,67246,N,180,2022-02-24_17h24.27,orientation adjustment blockN,2021.2.3,MacIntel,58.82352941,,,,,,,
,,,,,,,,,,,,,,,,,-61.66666667,-23,20,75,-56.66666667,33.66666667,33.66666667,-0.325555556,-0.433333333,1,0,0,0.917,submitButton,20,-0.302222222,-0.397777778,0,0,0,0,17,17,7,1,23,67246,N,180,2022-02-24_17h24.27,orientation adjustment blockN,2021.2.3,MacIntel,58.82352941,,,,,,,
,,,,,,,,,,,,,,,,,37.77777778,72,20,75,211.7777778,40.22222222,40.22222222,0.146666667,-0.26,1,0,0,0.117,submitButton,25.05555556,-0.241111111,-0.385555556,0,0,0,0,18,18,56,1,72,67246,N,180,2022-02-24_17h24.27,orientation adjustment blockN,2021.2.3,MacIntel,58.82352941,,,,,,,
,,,,,,,,,,,,,,,,,75,-68,20,75,-42,26,26,-0.252222222,-0.385555556,1,0,0,1.216,submitButton,25.24444444,-0.252222222,-0.385555556,0,0,0,0,19,19,52,1,68,67246,N,180,2022-02-24_17h24.27,orientation adjustment blockN,2021.2.3,MacIntel,58.82352941,,,,,,,
,,,,,,,,,,,,,,,,,-43.88888889,55,20,75,39.11111111,15.88888889,15.88888889,0.143333333,-0.287777778,1,0,0,0.067,submitButton,23.68518519,0.024444444,-0.301111111,0,0,0,0,20,20,39,1,55,67246,N,180,2022-02-24_17h24.27,orientation adjustment blockN,2021.2.3,MacIntel,58.82352941,,,,,,,
,,,,,,,,,,,,,,,,,-61.66666667,17,20,75,15.33333333,1.666666667,1.666666667,-0.317777778,-0.394444444,1,0,0,0.967,submitButton,20.53968254,-0.317777778,-0.394444444,0,0,0,0,21,21,1,1,17,67246,N,180,2022-02-24_17h24.27,orientation adjustment blockN,2021.2.3,MacIntel,58.82352941,,,,,,,
,,,,,,,,,,,,,,,,,30.55555556,53,20,75,221.5555556,11.44444444,11.44444444,-0.276666667,-0.366666667,1,0,0,2.35,submitButton,19.40277778,-0.303333333,-0.408888889,0,0,0,0,22,22,37,1,53,67246,N,180,2022-02-24_17h24.27,orientation adjustment blockN,2021.2.3,MacIntel,58.82352941,,,,,,,
,,,,,,,,,,,,,,,,,-28.88888889,-41,20,75,-48.88888889,7.888888889,7.888888889,-0.188888889,-0.397777778,1,0,0,0.833,submitButton,18.12345679,-0.188888889,-0.397777778,0,0,0,0,23,23,25,1,41,67246,N,180,2022-02-24_17h24.27,orientation adjustment blockN,2021.2.3,MacIntel,58.82352941,,,,,,,
,,,,,,,,,,,,,,,,,33.88888889,-39,20,75,-26.11111111,12.88888889,12.88888889,0.335555556,-0.297777778,1,0,0,0.333,submitButton,17.6,-0.238888889,-0.4,0,0,0,0,24,24,23,1,39,67246,N,180,2022-02-24_17h24.27,orientation adjustment blockN,2021.2.3,MacIntel,58.82352941,,,,,,,
,,,,,,,,,,,,,,,,,-40.55555556,28,20,75,19.44444444,8.555555556,8.555555556,0.204444444,-0.292222222,1,0,0,0.65,submitButton,16.77777778,-0.321111111,-0.382222222,0,0,0,0,25,25,12,1,28,67246,N,180,2022-02-24_17h24.27,orientation adjustment blockN,2021.2.3,MacIntel,58.82352941,,,,,,,
,,,,,,,,,,,,,,,,,30.55555556,74,20,75,201.5555556,52.44444444,52.44444444,-0.323333333,-0.401111111,1,0,0,1.584,submitButton,19.75,0.213333333,-0.184444444,0,0,0,0,26,26,58,1,74,67246,N,180,2022-02-24_17h24.27,orientation adjustment blockN,2021.2.3,MacIntel,58.82352941,,,,,,,
,,,,,,,,,,,,,,,,,74.44444444,-67,20,75,-29.55555556,37.44444444,37.44444444,-0.277777778,-0.375555556,1,0,0,0.983,submitButton,21.11111111,-0.161111111,-0.27,0,0,0,0,27,27,51,1,67,67246,N,180,2022-02-24_17h24.27,orientation adjustment blockN,2021.2.3,MacIntel,58.82352941,,,,,,,
,,,,,,,,,,,,,,,,,68.88888889,63,20,75,61.88888889,1.111111111,1.111111111,-0.22,-0.397777778,1,0,0,1.35,submitButton,19.68253968,-0.22,-0.397777778,0,0,0,0,28,28,47,1,63,67246,N,180,2022-02-24_17h24.27,orientation adjustment blockN,2021.2.3,MacIntel,58.82352941,,,,,,,
,,,,,,,,,,,,,,,,,71.66666667,66,20,75,213.6666667,32.33333333,32.33333333,-0.262222222,-0.408888889,1,0,0,1.05,submitButton,20.52592593,0.414444444,-0.384444444,1,0,0,0,29,29,50,1,66,67246,N,180,2022-02-24_17h24.27,orientation adjustment blockN,2021.2.3,MacIntel,58.82352941,continueButton,,,,,,
,,,,,,,,,,,,,,,,,20.55555556,56,20,75,64.55555556,8.555555556,8.555555556,0.376666667,-0.318888889,1,0,0,0.851,submitButton,19.77777778,0.216666667,-0.17,0,0,0,0,30,30,40,1,56,67246,N,180,2022-02-24_17h24.27,orientation adjustment blockN,2021.2.3,MacIntel,58.82352941,,,,,,,
,,,,,,,,,,,,,,,,,-39.44444444,-65,20,75,-70.44444444,5.444444444,5.444444444,-0.272222222,-0.391111111,1,0,0,0.933,submitButton,18.93464052,-0.272222222,-0.391111111,0,0,0,0,31,31,49,1,65,67246,N,180,2022-02-24_17h24.27,orientation adjustment blockN,2021.2.3,MacIntel,58.82352941,,,,,,,
,,,,,,,,,,,,,,,,,42.22222222,35,20,75,199.2222222,15.77777778,15.77777778,-0.311111111,-0.384444444,1,0,0,2.184,submitButton,18.75925926,0.196666667,-0.222222222,0,0,0,0,32,32,19,1,35,67246,N,180,2022-02-24_17h24.27,orientation adjustment blockN,2021.2.3,MacIntel,58.82352941,,,,,,,
,,,,,,,,,,,,,,,,,51.66666667,57,20,75,59.66666667,2.666666667,2.666666667,-0.253333333,-0.382222222,1,0,0,1.033,submitButton,17.9122807,-0.253333333,-0.382222222,0,0,0,0,33,33,41,1,57,67246,N,180,2022-02-24_17h24.27,orientation adjustment blockN,2021.2.3,MacIntel,58.82352941,,,,,,,
,,,,,,,,,,,,,,,,,65.55555556,32,20,75,213.5555556,1.555555556,1.555555556,-0.305555556,-0.406666667,1,0,0,2.116,submitButton,17.09444444,0.022222222,-0.325555556,0,0,0,0,34,34,16,1,32,67246,N,180,2022-02-24_17h24.27,orientation adjustment blockN,2021.2.3,MacIntel,58.82352941,,,,,,,
,,,,,,,,,,,,,,,,,55,31,20,75,59,28,28,0.374444444,-0.317777778,1,0,0,0.183,submitButton,17.61375661,-0.273333333,-0.401111111,0,0,0,0,35,35,15,1,31,67246,N,180,2022-02-24_17h24.27,orientation adjustment blockN,2021.2.3,MacIntel,58.82352941,,,,,,,
,,,,,,,,,,,,,,,,,-73.33333333,25,20,75,-122.3333333,32.66666667,32.66666667,-0.274444444,-0.376666667,1,0,0,1.165,submitButton,18.2979798,-0.274444444,-0.376666667,0,0,0,0,36,36,9,1,25,67246,N,180,2022-02-24_17h24.27,orientation adjustment blockN,2021.2.3,MacIntel,58.82352941,,,,,,,
,,,,,,,,,,,,,,,,,-30,26,20,75,17,9,9,-0.327777778,-0.361111111,1,0,0,0.649,submitButton,17.89371981,-0.328888889,-0.393333333,0,0,0,0,37,37,10,1,26,67246,N,180,2022-02-24_17h24.27,orientation adjustment blockN,2021.2.3,MacIntel,58.82352941,,,,,,,
,,,,,,,,,,,,,,,,,26.66666667,-43,20,75,-29.33333333,13.66666667,13.66666667,0.426666667,-0.292222222,1,0,0,0.599,submitButton,17.71759259,-0.213333333,-0.408888889,0,0,0,0,38,38,27,1,43,67246,N,180,2022-02-24_17h24.27,orientation adjustment blockN,2021.2.3,MacIntel,58.82352941,,,,,,,
,,,,,,,,,,,,,,,,,-46.11111111,58,20,75,34.88888889,23.11111111,23.11111111,0.235555556,-0.297777778,1,0,0,0.167,submitButton,17.93333333,-0.301111111,-0.392222222,0,0,0,0,39,39,42,1,58,67246,N,180,2022-02-24_17h24.27,orientation adjustment blockN,2021.2.3,MacIntel,58.82352941,,,,,,,
,,,,,,,,,,,,,,,,,56.66666667,51,20,75,218.6666667,12.33333333,12.33333333,-0.256666667,-0.395555556,1,0,0,2.117,submitButton,17.71794872,0.177777778,-0.194444444,0,0,0,0,40,40,35,1,51,67246,N,180,2022-02-24_17h24.27,orientation adjustment blockN,2021.2.3,MacIntel,58.82352941,,,,,,,
,,,,,,,,,,,,,,,,,74.44444444,33,20,75,208.4444444,4.555555556,4.555555556,-0.286666667,-0.384444444,1,0,0,1.616,submitButton,17.23045267,0.191111111,-0.134444444,0,0,0,0,41,41,17,1,33,67246,N,180,2022-02-24_17h24.27,orientation adjustment blockN,2021.2.3,MacIntel,58.82352941,,,,,,,
,,,,,,,,,,,,,,,,,38.33333333,24,20,75,46.33333333,22.33333333,22.33333333,-0.31,-0.37,1,0,0,1.117,submitButton,17.41269841,-0.312222222,-0.393333333,0,0,0,0,42,42,8,1,24,67246,N,180,2022-02-24_17h24.27,orientation adjustment blockN,2021.2.3,MacIntel,58.82352941,,,,,,,
,,,,,,,,,,,,,,,,,35.55555556,20,20,75,33.55555556,13.55555556,13.55555556,-0.26,-0.391111111,1,0,0,0.584,submitButton,17.27969349,-0.26,-0.391111111,0,0,0,0,43,43,4,1,20,67246,N,180,2022-02-24_17h24.27,orientation adjustment blockN,2021.2.3,MacIntel,58.82352941,,,,,,,
,,,,,,,,,,,,,,,,,-43.33333333,-37,20,75,-52.33333333,15.33333333,15.33333333,0.2,-0.288888889,1,0,0,0.15,submitButton,17.21481481,0.363333333,-0.385555556,1,0,0,0,44,44,21,1,37,67246,N,180,2022-02-24_17h24.27,orientation adjustment blockN,2021.2.3,MacIntel,58.82352941,continueButton,,,,,,
,,,,,,,,,,,,,,,,,-53.33333333,60,20,75,38.66666667,21.33333333,21.33333333,-0.176666667,-0.417777778,1,0,0,1.567,submitButton,17.34767025,-0.176666667,-0.417777778,0,0,0,0,45,45,44,1,60,67246,N,180,2022-02-24_17h24.27,orientation adjustment blockN,2021.2.3,MacIntel,58.82352941,,,,,,,
,,,,,,,,,,,,,,,,,28.88888889,-70,20,75,-46.11111111,23.88888889,23.88888889,0.371111111,-0.3,1,0,0,0.233,submitButton,17.55208333,-0.123333333,-0.305555556,0,0,0,0,46,46,54,1,70,67246,N,180,2022-02-24_17h24.27,orientation adjustment blockN,2021.2.3,MacIntel,58.82352941,,,,,,,
,,,,,,,,,,,,,,,,,29.44444444,71,20,75,63.44444444,7.555555556,7.555555556,0.391111111,-0.281111111,1,0,0,1.85,submitButton,17.24915825,-0.282222222,-0.387777778,0,0,0,0,47,47,55,1,71,67246,N,180,2022-02-24_17h24.27,orientation adjustment blockN,2021.2.3,MacIntel,58.82352941,,,,,,,
,,,,,,,,,,,,,,,,,32.77777778,42,20,75,203.7777778,18.22222222,18.22222222,-0.234444444,-0.412222222,1,0,0,2.084,submitButton,17.27777778,-0.234444444,-0.412222222,0,0,0,0,48,48,26,1,42,67246,N,180,2022-02-24_17h24.27,orientation adjustment blockN,2021.2.3,MacIntel,58.82352941,,,,,,,
,,,,,,,,,,,,,,,,,31.11111111,-61,20,75,-49.88888889,11.11111111,11.11111111,-0.421111111,-0.382222222,1,0,0,0.634,submitButton,17.1015873,0.027777778,-0.434444444,0,0,0,0,49,49,45,1,61,67246,N,180,2022-02-24_17h24.27,orientation adjustment blockN,2021.2.3,MacIntel,58.82352941,,,,,,,
,,,,,,,,,,,,,,,,,43.88888889,-38,20,75,-28.11111111,9.888888889,9.888888889,0.376666667,-0.318888889,1,0,0,0.183,submitButton,16.90123457,-0.231111111,-0.405555556,0,0,0,0,50,50,22,1,38,67246,N,180,2022-02-24_17h24.27,orientation adjustment blockN,2021.2.3,MacIntel,58.82352941,,,,,,,
,,,,,,,,,,,,,,,,,37.22222222,69,20,75,83.22222222,14.22222222,14.22222222,0.377777778,-0.285555556,1,0,0,0.701,submitButton,16.82882883,0.386666667,-0.086666667,0,0,0,0,51,51,53,1,69,67246,N,180,2022-02-24_17h24.27,orientation adjustment blockN,2021.2.3,MacIntel,58.82352941,,,,,,,
,,,,,,,,,,,,,,,,,-27.22222222,-46,20,75,-58.22222222,12.22222222,12.22222222,0.402222222,-0.278888889,1,0,0,0.234,submitButton,16.70760234,-0.218888889,-0.384444444,0,0,0,0,52,52,30,1,46,67246,N,180,2022-02-24_17h24.27,orientation adjustment blockN,2021.2.3,MacIntel,58.82352941,,,,,,,
,,,,,,,,,,,,,,,,,-63.88888889,-27,20,75,-36.88888889,9.888888889,9.888888889,-0.253333333,-0.396666667,1,0,0,1.234,submitButton,16.53276353,-0.253333333,-0.396666667,0,0,0,0,53,53,11,1,27,67246,N,180,2022-02-24_17h24.27,orientation adjustment blockN,2021.2.3,MacIntel,58.82352941,,,,,,,
,,,,,,,,,,,,,,,,,41.66666667,73,20,75,67.66666667,5.333333333,5.333333333,-0.341111111,-0.385555556,1,0,0,0.9,submitButton,16.25277778,-0.341111111,-0.385555556,0,0,0,0,54,54,57,1,73,67246,N,180,2022-02-24_17h24.27,orientation adjustment blockN,2021.2.3,MacIntel,58.82352941,,,,,,,
,,,,,,,,,,,,,,,,,-70,-52,20,75,-57,5,5,0.232222222,-0.28,1,0,0,0.099,submitButton,15.97831978,-0.207777778,-0.403333333,0,0,0,0,55,55,36,1,52,67246,N,180,2022-02-24_17h24.27,orientation adjustment blockN,2021.2.3,MacIntel,58.82352941,,,,,,,
,,,,,,,,,,,,,,,,,43.88888889,49,20,75,199.8888889,29.11111111,29.11111111,0.216666667,-0.282222222,1,0,0,0.284,submitButton,16.29100529,-0.263333333,-0.407777778,0,0,0,0,56,56,33,1,49,67246,N,180,2022-02-24_17h24.27,orientation adjustment blockN,2021.2.3,MacIntel,58.82352941,,,,,,,
,,,,,,,,,,,,,,,,,-44.44444444,29,20,75,14.55555556,14.44444444,14.44444444,-0.375555556,-0.426666667,1,0,0,1.182,submitButton,16.24806202,0.264444444,-0.296666667,0,0,0,0,57,57,13,1,29,67246,N,180,2022-02-24_17h24.27,orientation adjustment blockN,2021.2.3,MacIntel,58.82352941,,,,,,,
,,,,,,,,,,,,,,,,,-53.33333333,22,20,75,20.66666667,1.333333333,1.333333333,0.183333333,-0.278888889,1,0,0,0.066,submitButton,15.90909091,-0.263333333,-0.408888889,0,0,0,0,58,58,6,1,22,67246,N,180,2022-02-24_17h24.27,orientation adjustment blockN,2021.2.3,MacIntel,58.82352941,,,,,,,
,,,,,,,,,,,,,,,,,-73.88888889,-50,20,75,-56.88888889,6.888888889,6.888888889,-0.22,-0.402222222,1,0,0,1.551,submitButton,15.70864198,0.276666667,-0.39,1,0,0,0,59,59,34,1,50,67246,N,180,2022-02-24_17h24.27,orientation adjustment blockN,2021.2.3,MacIntel,58.82352941,continueButton,,,,,,
,,,,,,,,,,,,,,,,,-52.22222222,-24,20,75,-98.22222222,74.22222222,74.22222222,-0.168888889,-0.398888889,1,0,0,0.801,submitButton,16.98067633,0.195555556,-0.306666667,0,0,0,1,0,60,8,1,24,67246,N,180,2022-02-24_17h24.27,orientation adjustment blockN,2021.2.3,MacIntel,58.82352941,,,,,,,
,,,,,,,,,,,,,,,,,30,47,20,75,212,15,15,-0.171111111,-0.41,1,0,0,2.133,submitButton,16.93853428,0.138888889,-0.246666667,0,0,0,1,1,61,31,1,47,67246,N,180,2022-02-24_17h24.27,orientation adjustment blockN,2021.2.3,MacIntel,58.82352941,,,,,,,
,,,,,,,,,,,,,,,,,32.22222222,22,20,75,42.22222222,20.22222222,20.22222222,0.425555556,-0.292222222,1,0,0,0.583,submitButton,17.00694444,0.273333333,-0.16,0,0,0,1,2,62,6,1,22,67246,N,180,2022-02-24_17h24.27,orientation adjustment blockN,2021.2.3,MacIntel,58.82352941,,,,,,,
,,,,,,,,,,,,,,,,,-22.77777778,53,20,75,32.22222222,20.77777778,20.77777778,0.195555556,-0.292222222,1,0,0,0.066,submitButton,17.08390023,0.152222222,-0.26,0,0,0,1,3,63,37,1,53,67246,N,180,2022-02-24_17h24.27,orientation adjustment blockN,2021.2.3,MacIntel,58.82352941,,,,,,,
,,,,,,,,,,,,,,,,,70,-23,20,75,30,53,53,-0.264444444,-0.402222222,1,0,0,0.284,submitButton,17.80222222,0.087777778,-0.331111111,0,0,0,1,4,64,7,1,23,67246,N,180,2022-02-24_17h24.27,orientation adjustment blockN,2021.2.3,MacIntel,58.82352941,,,,,,,
,,,,,,,,,,,,,,,,,68.88888889,26,20,75,47.88888889,21.88888889,21.88888889,0.365555556,-0.275555556,1,0,0,0.334,submitButton,17.88235294,0.017777778,-0.285555556,0,0,0,1,5,65,10,1,26,67246,N,180,2022-02-24_17h24.27,orientation adjustment blockN,2021.2.3,MacIntel,58.82352941,,,,,,,
,,,,,,,,,,,,,,,,,-72.22222222,27,20,75,29.77777778,2.777777778,2.777777778,-0.158888889,-0.391111111,1,0,0,1.3,submitButton,17.59188034,-0.158888889,-0.391111111,0,0,0,1,6,66,11,1,27,67246,N,180,2022-02-24_17h24.27,orientation adjustment blockN,2021.2.3,MacIntel,58.82352941,,,,,,,
,,,,,,,,,,,,,,,,,29.44444444,-19,20,75,-12.55555556,6.444444444,6.444444444,0.381111111,-0.256666667,1,0,0,0.201,submitButton,17.38155136,0.18,-0.16,0,0,0,1,7,67,3,1,19,67246,N,180,2022-02-24_17h24.27,orientation adjustment blockN,2021.2.3,MacIntel,58.82352941,,,,,,,
,,,,,,,,,,,,,,,,,-36.11111111,38,20,75,27.88888889,10.11111111,10.11111111,0.205555556,-0.274444444,1,0,0,0.334,submitButton,17.24691358,-0.077777778,-0.337777778,0,0,0,1,8,68,22,1,38,67246,N,180,2022-02-24_17h24.27,orientation adjustment blockN,2021.2.3,MacIntel,58.82352941,,,,,,,
,,,,,,,,,,,,,,,,,-21.11111111,48,20,75,44.88888889,3.111111111,3.111111111,-0.255555556,-0.376666667,1,0,0,0.467,submitButton,16.98989899,0.061111111,-0.263333333,0,0,0,1,9,69,32,1,48,67246,N,180,2022-02-24_17h24.27,orientation adjustment blockN,2021.2.3,MacIntel,58.82352941,,,,,,,
,,,,,,,,,,,,,,,,,-56.11111111,42,20,75,27.88888889,14.11111111,14.11111111,-0.16,-0.385555556,1,0,0,0.802,submitButton,16.93849206,-0.16,-0.385555556,0,0,0,1,10,70,26,1,42,67246,N,180,2022-02-24_17h24.27,orientation adjustment blockN,2021.2.3,MacIntel,58.82352941,,,,,,,
,,,,,,,,,,,,,,,,,-30.55555556,-25,20,75,-35.55555556,10.55555556,10.55555556,-0.182222222,-0.405555556,1,0,0,1.183,submitButton,16.82651072,-0.182222222,-0.405555556,0,0,0,1,11,71,9,1,25,67246,N,180,2022-02-24_17h24.27,orientation adjustment blockN,2021.2.3,MacIntel,58.82352941,,,,,,,
,,,,,,,,,,,,,,,,,-22.77777778,-35,20,75,-38.77777778,3.777777778,3.777777778,0.136666667,-0.274444444,1,0,0,0.033,submitButton,16.60153257,-0.224444444,-0.412222222,0,0,0,1,12,72,19,1,35,67246,N,180,2022-02-24_17h24.27,orientation adjustment blockN,2021.2.3,MacIntel,58.82352941,,,,,,,
,,,,,,,,,,,,,,,,,26.11111111,-75,20,75,-45.88888889,29.11111111,29.11111111,0.244444444,-0.295555556,1,0,0,0.068,submitButton,16.81355932,-0.211111111,-0.404444444,0,0,0,1,13,73,59,1,75,67246,N,180,2022-02-24_17h24.27,orientation adjustment blockN,2021.2.3,MacIntel,58.82352941,,,,,,,
,,,,,,,,,,,,,,,,,27.22222222,-63,20,75,-57.77777778,5.222222222,5.222222222,0.375555556,-0.272222222,1,0,0,0.166,submitButton,16.62037037,0.345555556,-0.396666667,1,0,0,1,14,74,47,1,63,67246,N,180,2022-02-24_17h24.27,orientation adjustment blockN,2021.2.3,MacIntel,58.82352941,continueButton,,,,,,
,,,,,,,,,,,,,,,,,-39.44444444,-30,20,75,-35.44444444,5.444444444,5.444444444,-0.231111111,-0.39,1,0,0,1.232,submitButton,16.43715847,0.17,-0.07,0,0,0,1,15,75,14,1,30,67246,N,180,2022-02-24_17h24.27,orientation adjustment blockN,2021.2.3,MacIntel,58.82352941,,,,,,,
,,,,,,,,,,,,,,,,,-47.22222222,37,20,75,34.77777778,2.222222222,2.222222222,0.266666667,-0.291111111,1,0,0,0.116,submitButton,16.2078853,0.012222222,-0.196666667,0,0,0,1,16,76,21,1,37,67246,N,180,2022-02-24_17h24.27,orientation adjustment blockN,2021.2.3,MacIntel,58.82352941,,,,,,,
,,,,,,,,,,,,,,,,,-36.11111111,40,20,75,34.88888889,5.111111111,5.111111111,-0.302222222,-0.408888889,1,0,0,0.667,submitButton,16.03174603,-0.29,-0.384444444,0,0,0,1,17,77,24,1,40,67246,N,180,2022-02-24_17h24.27,orientation adjustment blockN,2021.2.3,MacIntel,58.82352941,,,,,,,
,,,,,,,,,,,,,,,,,-71.66666667,-68,20,75,-224.6666667,23.33333333,23.33333333,-0.237777778,-0.388888889,1,0,0,1.4,submitButton,16.14583333,-0.237777778,-0.388888889,0,0,0,1,18,78,52,1,68,67246,N,180,2022-02-24_17h24.27,orientation adjustment blockN,2021.2.3,MacIntel,58.82352941,,,,,,,
,,,,,,,,,,,,,,,,,-30,-18,20,75,-30,12,12,0.23,-0.281111111,1,0,0,0.599,submitButton,16.08205128,-0.238888889,-0.398888889,0,0,0,1,19,79,2,1,18,67246,N,180,2022-02-24_17h24.27,orientation adjustment blockN,2021.2.3,MacIntel,58.82352941,,,,,,,
,,,,,,,,,,,,,,,,,-31.11111111,-54,20,75,-56.11111111,2.111111111,2.111111111,0.238888889,-0.281111111,1,0,0,0.201,submitButton,15.87037037,0.206666667,-0.046666667,0,0,0,1,20,80,38,1,54,67246,N,180,2022-02-24_17h24.27,orientation adjustment blockN,2021.2.3,MacIntel,58.82352941,,,,,,,
,,,,,,,,,,,,,,,,,35.55555556,64,20,75,60.55555556,3.444444444,3.444444444,-0.366666667,-0.405555556,1,0,0,0.733,submitButton,15.68490879,-0.003333333,-0.294444444,0,0,0,1,21,81,48,1,64,67246,N,180,2022-02-24_17h24.27,orientation adjustment blockN,2021.2.3,MacIntel,58.82352941,,,,,,,
,,,,,,,,,,,,,,,,,-53.33333333,29,20,75,-24.33333333,53.33333333,53.33333333,-0.243333333,-0.378888889,1,0,0,0.617,submitButton,16.23856209,0.348888889,-0.167777778,0,0,0,1,22,82,13,1,29,67246,N,180,2022-02-24_17h24.27,orientation adjustment blockN,2021.2.3,MacIntel,58.82352941,,,,,,,
,,,,,,,,,,,,,,,,,-28.33333333,60,20,75,52.66666667,7.333333333,7.333333333,-0.285555556,-0.445555556,1,0,0,0.482,submitButton,16.10950081,0.281111111,-0.323333333,0,0,0,1,23,83,44,1,60,67246,N,180,2022-02-24_17h24.27,orientation adjustment blockN,2021.2.3,MacIntel,58.82352941,,,,,,,
,,,,,,,,,,,,,,,,,-33.88888889,-67,20,75,-65.88888889,1.111111111,1.111111111,0.185555556,-0.301111111,1,0,0,0.266,submitButton,15.8952381,0.172222222,-0.151111111,0,0,0,1,24,84,51,1,67,67246,N,180,2022-02-24_17h24.27,orientation adjustment blockN,2021.2.3,MacIntel,58.82352941,,,,,,,
,,,,,,,,,,,,,,,,,-30.55555556,57,20,75,46.44444444,10.55555556,10.55555556,-0.196666667,-0.371111111,1,0,0,0.85,submitButton,15.8200313,-0.258888889,-0.396666667,0,0,0,1,25,85,41,1,57,67246,N,180,2022-02-24_17h24.27,orientation adjustment blockN,2021.2.3,MacIntel,58.82352941,,,,,,,
,,,,,,,,,,,,,,,,,-42.22222222,17,20,75,35.77777778,18.77777778,18.77777778,0.231111111,-0.284444444,1,0,0,0.016,submitButton,15.86111111,0.058888889,-0.224444444,0,0,0,1,26,86,1,1,17,67246,N,180,2022-02-24_17h24.27,orientation adjustment blockN,2021.2.3,MacIntel,58.82352941,,,,,,,
,,,,,,,,,,,,,,,,,-64.44444444,58,20,75,30.55555556,27.44444444,27.44444444,-0.287777778,-0.373333333,1,0,0,0.634,submitButton,16.01978691,-0.287777778,-0.373333333,0,0,0,1,27,87,42,1,58,67246,N,180,2022-02-24_17h24.27,orientation adjustment blockN,2021.2.3,MacIntel,58.82352941,,,,,,,
,,,,,,,,,,,,,,,,,55,36,20,75,209,7,7,-0.203333333,-0.376666667,1,0,0,2.183,submitButton,15.8978979,-0.203333333,-0.376666667,0,0,0,1,28,88,20,1,36,67246,N,180,2022-02-24_17h24.27,orientation adjustment blockN,2021.2.3,MacIntel,58.82352941,,,,,,,
,,,,,,,,,,,,,,,,,-57.77777778,50,20,75,41.22222222,8.777777778,8.777777778,-0.291111111,-0.423333333,1,0,0,0.883,submitButton,15.80296296,0.344444444,-0.407777778,1,0,0,1,29,89,34,1,50,67246,N,180,2022-02-24_17h24.27,orientation adjustment blockN,2021.2.3,MacIntel,58.82352941,continueButton,,,,,,
,,,,,,,,,,,,,,,,,46.11111111,16,20,75,32.11111111,16.11111111,16.11111111,0.372222222,-0.294444444,1,0,0,0.117,submitButton,15.80701754,-0.014444444,-0.33,0,0,0,1,30,90,0,1,16,67246,N,180,2022-02-24_17h24.27,orientation adjustment blockN,2021.2.3,MacIntel,58.82352941,,,,,,,
,,,,,,,,,,,,,,,,,59.44444444,-56,20,75,25.44444444,81.44444444,81.44444444,0.221111111,-0.295555556,1,0,0,0.25,submitButton,16.65945166,0.152222222,-0.132222222,0,0,0,1,31,91,40,1,56,67246,N,180,2022-02-24_17h24.27,orientation adjustment blockN,2021.2.3,MacIntel,58.82352941,,,,,,,
,,,,,,,,,,,,,,,,,-55,33,20,75,28,5,5,-0.29,-0.388888889,1,0,0,0.683,submitButton,16.50997151,-0.203333333,-0.307777778,0,0,0,1,32,92,17,1,33,67246,N,180,2022-02-24_17h24.27,orientation adjustment blockN,2021.2.3,MacIntel,58.82352941,,,,,,,
,,,,,,,,,,,,,,,,,-42.22222222,-44,20,75,-64.22222222,20.22222222,20.22222222,0.254444444,-0.296666667,1,0,0,0.35,submitButton,16.55696203,-0.276666667,-0.408888889,0,0,0,1,33,93,28,1,44,67246,N,180,2022-02-24_17h24.27,orientation adjustment blockN,2021.2.3,MacIntel,58.82352941,,,,,,,
,,,,,,,,,,,,,,,,,-56.66666667,59,20,75,34.33333333,24.66666667,24.66666667,-0.366666667,-0.423333333,1,0,0,0.515,submitButton,16.65833333,-0.366666667,-0.423333333,0,0,0,1,34,94,43,1,59,67246,N,180,2022-02-24_17h24.27,orientation adjustment blockN,2021.2.3,MacIntel,58.82352941,,,,,,,
,,,,,,,,,,,,,,,,,-21.66666667,-55,20,75,-61.66666667,6.666666667,6.666666667,0.106666667,-0.274444444,1,0,0,0.049,submitButton,16.53497942,-0.332222222,-0.386666667,0,0,0,1,35,95,39,1,55,67246,N,180,2022-02-24_17h24.27,orientation adjustment blockN,2021.2.3,MacIntel,58.82352941,,,,,,,
,,,,,,,,,,,,,,,,,22.77777778,74,20,75,222.7777778,31.22222222,31.22222222,-0.255555556,-0.407777778,1,0,0,2.182,submitButton,16.71409214,-0.255555556,-0.407777778,0,0,0,1,36,96,58,1,74,67246,N,180,2022-02-24_17h24.27,orientation adjustment blockN,2021.2.3,MacIntel,58.82352941,,,,,,,
,,,,,,,,,,,,,,,,,30.55555556,31,20,75,48.55555556,17.55555556,17.55555556,0.198888889,-0.275555556,1,0,0,0.316,submitButton,16.72423025,0.092222222,-0.23,0,0,0,1,37,97,15,1,31,67246,N,180,2022-02-24_17h24.27,orientation adjustment blockN,2021.2.3,MacIntel,58.82352941,,,,,,,
,,,,,,,,,,,,,,,,,52.22222222,32,20,75,51.22222222,19.22222222,19.22222222,0.393333333,-0.272222222,1,0,0,0.251,submitButton,16.75396825,-0.348888889,-0.403333333,0,0,0,1,38,98,16,1,32,67246,N,180,2022-02-24_17h24.27,orientation adjustment blockN,2021.2.3,MacIntel,58.82352941,,,,,,,
,,,,,,,,,,,,,,,,,71.11111111,-45,20,75,109.1111111,25.88888889,25.88888889,-0.225555556,-0.393333333,1,0,0,1.567,submitButton,16.86143791,0.206666667,-0.102222222,0,0,0,1,39,99,29,1,45,67246,N,180,2022-02-24_17h24.27,orientation adjustment blockN,2021.2.3,MacIntel,58.82352941,,,,,,,
,,,,,,,,,,,,,,,,,57.77777778,51,20,75,57.77777778,6.777777778,6.777777778,-0.281111111,-0.393333333,1,0,0,0.733,submitButton,16.74418605,0.204444444,-0.03,0,0,0,1,40,100,35,1,51,67246,N,180,2022-02-24_17h24.27,orientation adjustment blockN,2021.2.3,MacIntel,58.82352941,,,,,,,
,,,,,,,,,,,,,,,,,31.66666667,72,20,75,66.66666667,5.333333333,5.333333333,0.382222222,-0.278888889,1,0,0,0.15,submitButton,16.61302682,0.058888889,-0.235555556,0,0,0,1,41,101,56,1,72,67246,N,180,2022-02-24_17h24.27,orientation adjustment blockN,2021.2.3,MacIntel,58.82352941,,,,,,,
,,,,,,,,,,,,,,,,,31.11111111,49,20,75,40.11111111,8.888888889,8.888888889,-0.283333333,-0.381111111,1,0,0,0.616,submitButton,16.52525253,0.173333333,-0.091111111,0,0,0,1,42,102,33,1,49,67246,N,180,2022-02-24_17h24.27,orientation adjustment blockN,2021.2.3,MacIntel,58.82352941,,,,,,,
,,,,,,,,,,,,,,,,,23.88888889,69,20,75,56.88888889,12.11111111,12.11111111,-0.317777778,-0.391111111,1,0,0,0.65,submitButton,16.47565543,-0.103333333,-0.373333333,0,0,0,1,43,103,53,1,69,67246,N,180,2022-02-24_17h24.27,orientation adjustment blockN,2021.2.3,MacIntel,58.82352941,,,,,,,
,,,,,,,,,,,,,,,,,-63.33333333,65,20,75,39.66666667,25.33333333,25.33333333,-0.277777778,-0.408888889,1,0,0,1.367,submitButton,16.57407407,0.427777778,-0.422222222,1,0,0,1,44,104,49,1,65,67246,N,180,2022-02-24_17h24.27,orientation adjustment blockN,2021.2.3,MacIntel,58.82352941,continueButton,,,,,,
,,,,,,,,,,,,,,,,,-31.66666667,-28,20,75,-38.66666667,10.66666667,10.66666667,-0.225555556,-0.394444444,1,0,0,0.701,submitButton,16.50915751,0.326666667,-0.135555556,0,0,0,1,45,105,12,1,28,67246,N,180,2022-02-24_17h24.27,orientation adjustment blockN,2021.2.3,MacIntel,58.82352941,,,,,,,
,,,,,,,,,,,,,,,,,65,-66,20,75,-30,36,36,-0.238888889,-0.401111111,1,0,0,0.9,submitButton,16.72101449,0.186666667,-0.177777778,0,0,0,1,46,106,50,1,66,67246,N,180,2022-02-24_17h24.27,orientation adjustment blockN,2021.2.3,MacIntel,58.82352941,,,,,,,
,,,,,,,,,,,,,,,,,34.44444444,-46,20,75,-38.55555556,7.444444444,7.444444444,-0.286666667,-0.42,1,0,0,0.55,submitButton,16.62126643,0.478888889,-0.006666667,0,0,0,1,47,107,30,1,46,67246,N,180,2022-02-24_17h24.27,orientation adjustment blockN,2021.2.3,MacIntel,58.82352941,,,,,,,
,,,,,,,,,,,,,,,,,21.11111111,71,20,75,66.11111111,4.888888889,4.888888889,0.397777778,-0.31,1,0,0,0.384,submitButton,16.4964539,0.092222222,-0.126666667,0,0,0,1,48,108,55,1,71,67246,N,180,2022-02-24_17h24.27,orientation adjustment blockN,2021.2.3,MacIntel,58.82352941,,,,,,,
,,,,,,,,,,,,,,,,,71.11111111,-39,20,75,124.1111111,16.88888889,16.88888889,-0.264444444,-0.375555556,1,0,0,2.016,submitButton,16.5005848,0,-0.17,0,0,0,1,49,109,23,1,39,67246,N,180,2022-02-24_17h24.27,orientation adjustment blockN,2021.2.3,MacIntel,58.82352941,,,,,,,
,,,,,,,,,,,,,,,,,-54.44444444,20,20,75,22.55555556,2.555555556,2.555555556,-0.232222222,-0.391111111,1,0,0,0.734,submitButton,16.35532407,-0.014444444,-0.226666667,0,0,0,1,50,110,4,1,20,67246,N,180,2022-02-24_17h24.27,orientation adjustment blockN,2021.2.3,MacIntel,58.82352941,,,,,,,
,,,,,,,,,,,,,,,,,34.44444444,61,20,75,54.44444444,6.555555556,6.555555556,-0.375555556,-0.393333333,1,0,0,0.716,submitButton,16.25429553,0.193333333,-0.255555556,0,0,0,1,51,111,45,1,61,67246,N,180,2022-02-24_17h24.27,orientation adjustment blockN,2021.2.3,MacIntel,58.82352941,,,,,,,
,,,,,,,,,,,,,,,,,27.77777778,41,20,75,47.77777778,6.777777778,6.777777778,-0.345555556,-0.38,1,0,0,0.55,submitButton,16.15759637,0.185555556,-0.044444444,0,0,0,1,52,112,25,1,41,67246,N,180,2022-02-24_17h24.27,orientation adjustment blockN,2021.2.3,MacIntel,58.82352941,,,,,,,
,,,,,,,,,,,,,,,,,-29.44444444,-62,20,75,-66.44444444,4.444444444,4.444444444,0.19,-0.275555556,1,0,0,0.133,submitButton,16.03928171,0.375555556,-0.22,0,0,0,1,53,113,46,1,62,67246,N,180,2022-02-24_17h24.27,orientation adjustment blockN,2021.2.3,MacIntel,58.82352941,,,,,,,
,,,,,,,,,,,,,,,,,42.77777778,21,20,75,45.77777778,24.77777778,24.77777778,0.247777778,-0.294444444,1,0,0,0.116,submitButton,16.12666667,-0.19,-0.381111111,0,0,0,1,54,114,5,1,21,67246,N,180,2022-02-24_17h24.27,orientation adjustment blockN,2021.2.3,MacIntel,58.82352941,,,,,,,
,,,,,,,,,,,,,,,,,68.88888889,34,20,75,48.88888889,14.88888889,14.88888889,-0.318888889,-0.386666667,1,0,0,0.932,submitButton,16.11441144,0.033333333,-0.293333333,0,0,0,1,55,115,18,1,34,67246,N,180,2022-02-24_17h24.27,orientation adjustment blockN,2021.2.3,MacIntel,58.82352941,,,,,,,
,,,,,,,,,,,,,,,,,33.88888889,70,20,75,68.88888889,1.111111111,1.111111111,0.407777778,-0.328888889,1,0,0,0.217,submitButton,15.96732026,-0.023333333,-0.227777778,0,0,0,1,56,116,54,1,70,67246,N,180,2022-02-24_17h24.27,orientation adjustment blockN,2021.2.3,MacIntel,58.82352941,,,,,,,
,,,,,,,,,,,,,,,,,66.11111111,52,20,75,56.11111111,4.111111111,4.111111111,-0.263333333,-0.393333333,1,0,0,1.25,submitButton,15.85221143,0.085555556,-0.228888889,0,0,0,1,57,117,36,1,52,67246,N,180,2022-02-24_17h24.27,orientation adjustment blockN,2021.2.3,MacIntel,58.82352941,,,,,,,
,,,,,,,,,,,,,,,,,41.66666667,73,20,75,52.66666667,20.33333333,20.33333333,-0.212222222,-0.39,1,0,0,0.799,submitButton,15.89529915,0.232222222,-0.187777778,0,0,0,1,58,118,57,1,73,67246,N,180,2022-02-24_17h24.27,orientation adjustment blockN,2021.2.3,MacIntel,58.82352941,,,,,,,
,,,,,,,,,,,,,,,,,-70,-43,20,75,-207,16,16,-0.292222222,-0.38,1,0,0,1.533,submitButton,15.8962963,0.492222222,-0.402222222,1,0,0,1,59,119,27,1,43,67246,N,180,2022-02-24_17h24.27,orientation adjustment blockN,2021.2.3,MacIntel,58.82352941,continueButton,,,,,,
,,,,,,,,,,,,,,,,,68.33333333,-24,20,75,133.3333333,22.66666667,22.66666667,-0.192222222,-0.403333333,1,0,0,1.632,submitButton,15.96016771,-0.056666667,-0.282222222,0,0,0,2,0,120,8,1,24,67246,N,180,2022-02-24_17h24.27,orientation adjustment blockN,2021.2.3,MacIntel,58.82352941,,,,,,,
,,,,,,,,,,,,,,,,,62.22222222,-39,20,75,-19.77777778,19.22222222,19.22222222,0.377777778,-0.306666667,1,0,0,0.016,submitButton,15.99065421,0.328888889,-0.171111111,0,0,0,2,1,121,23,1,39,67246,N,180,2022-02-24_17h24.27,orientation adjustment blockN,2021.2.3,MacIntel,58.82352941,,,,,,,
,,,,,,,,,,,,,,,,,36.66666667,51,20,75,210.6666667,20.33333333,20.33333333,-0.147777778,-0.401111111,1,0,0,1.983,submitButton,16.0308642,0.353333333,-0.124444444,0,0,0,2,2,122,35,1,51,67246,N,180,2022-02-24_17h24.27,orientation adjustment blockN,2021.2.3,MacIntel,58.82352941,,,,,,,
,,,,,,,,,,,,,,,,,61.11111111,-17,20,75,-13.88888889,3.111111111,3.111111111,-0.247777778,-0.377777778,1,0,0,1.9,submitButton,15.91233435,0.034444444,-0.251111111,0,0,0,2,3,123,1,1,17,67246,N,180,2022-02-24_17h24.27,orientation adjustment blockN,2021.2.3,MacIntel,58.82352941,,,,,,,
,,,,,,,,,,,,,,,,,38.33333333,46,20,75,60.33333333,14.33333333,14.33333333,0.391111111,-0.282222222,1,0,0,0.1,submitButton,15.8979798,-0.277777778,-0.391111111,0,0,0,2,4,124,30,1,46,67246,N,180,2022-02-24_17h24.27,orientation adjustment blockN,2021.2.3,MacIntel,58.82352941,,,,,,,
,,,,,,,,,,,,,,,,,40.55555556,-48,20,75,-29.44444444,18.55555556,18.55555556,0.337777778,-0.307777778,1,0,0,0.098,submitButton,15.92192192,0.122222222,-0.293333333,0,0,0,2,5,125,32,1,48,67246,N,180,2022-02-24_17h24.27,orientation adjustment blockN,2021.2.3,MacIntel,58.82352941,,,,,,,
,,,,,,,,,,,,,,,,,28.33333333,25,20,75,-9.666666667,34.66666667,34.66666667,-0.245555556,-0.43,1,0,0,0.784,submitButton,16.08928571,0.264444444,-0.253333333,0,0,0,2,6,126,9,1,25,67246,N,180,2022-02-24_17h24.27,orientation adjustment blockN,2021.2.3,MacIntel,58.82352941,,,,,,,
,,,,,,,,,,,,,,,,,25,-19,20,75,-31,12,12,-0.228888889,-0.393333333,1,0,0,0.351,submitButton,16.05309735,0.135555556,-0.244444444,0,0,0,2,7,127,3,1,19,67246,N,180,2022-02-24_17h24.27,orientation adjustment blockN,2021.2.3,MacIntel,58.82352941,,,,,,,
,,,,,,,,,,,,,,,,,-59.44444444,31,20,75,25.55555556,5.444444444,5.444444444,-0.186666667,-0.371111111,1,0,0,0.784,submitButton,15.96003899,-0.222222222,-0.422222222,0,0,0,2,8,128,15,1,31,67246,N,180,2022-02-24_17h24.27,orientation adjustment blockN,2021.2.3,MacIntel,58.82352941,,,,,,,
,,,,,,,,,,,,,,,,,40.55555556,-50,20,75,-40.44444444,9.555555556,9.555555556,-0.302222222,-0.407777778,1,0,0,0.4,submitButton,15.90434783,0.188888889,-0.165555556,0,0,0,2,9,129,34,1,50,67246,N,180,2022-02-24_17h24.27,orientation adjustment blockN,2021.2.3,MacIntel,58.82352941,,,,,,,
,,,,,,,,,,,,,,,,,-67.77777778,37,20,75,27.22222222,9.777777778,9.777777778,-0.226666667,-0.395555556,1,0,0,0.949,submitButton,15.85153257,-0.226666667,-0.395555556,0,0,0,2,10,130,21,1,37,67246,N,180,2022-02-24_17h24.27,orientation adjustment blockN,2021.2.3,MacIntel,58.82352941,,,,,,,
,,,,,,,,,,,,,,,,,32.22222222,69,20,75,225.2222222,23.77777778,23.77777778,-0.184444444,-0.402222222,1,0,0,2.183,submitButton,15.91927825,0.404444444,-0.24,0,0,0,2,11,131,53,1,69,67246,N,180,2022-02-24_17h24.27,orientation adjustment blockN,2021.2.3,MacIntel,58.82352941,,,,,,,
,,,,,,,,,,,,,,,,,58.88888889,-64,20,75,-25.11111111,38.88888889,38.88888889,-0.282222222,-0.384444444,1,0,0,0.516,submitButton,16.11393597,0.555555556,-0.124444444,0,0,0,2,12,132,48,1,64,67246,N,180,2022-02-24_17h24.27,orientation adjustment blockN,2021.2.3,MacIntel,58.82352941,,,,,,,
,,,,,,,,,,,,,,,,,-26.11111111,-73,20,75,-216.1111111,36.88888889,36.88888889,-0.336666667,-0.405555556,1,0,0,2.732,submitButton,16.28851541,0.29,-0.146666667,0,0,0,2,13,133,57,1,73,67246,N,180,2022-02-24_17h24.27,orientation adjustment blockN,2021.2.3,MacIntel,58.82352941,,,,,,,
,,,,,,,,,,,,,,,,,39.44444444,-35,20,75,-23.55555556,11.44444444,11.44444444,-0.304444444,-0.377777778,1,0,0,0.583,submitButton,16.24814815,0.545555556,-0.4,1,0,0,2,14,134,19,1,35,67246,N,180,2022-02-24_17h24.27,orientation adjustment blockN,2021.2.3,MacIntel,58.82352941,continueButton,,,,,,
,,,,,,,,,,,,,,,,,32.22222222,45,20,75,53.22222222,8.222222222,8.222222222,-0.24,-0.372222222,1,0,0,1.133,submitButton,16.18181818,0.196666667,-0.182222222,0,0,0,2,15,135,29,1,45,67246,N,180,2022-02-24_17h24.27,orientation adjustment blockN,2021.2.3,MacIntel,58.82352941,,,,,,,
,,,,,,,,,,,,,,,,,45,22,20,75,43,21,21,0.393333333,-0.274444444,1,0,0,0.017,submitButton,16.22131148,0.066666667,-0.266666667,0,0,0,2,16,136,6,1,22,67246,N,180,2022-02-24_17h24.27,orientation adjustment blockN,2021.2.3,MacIntel,58.82352941,,,,,,,
,,,,,,,,,,,,,,,,,26.66666667,-26,20,75,-24.33333333,1.666666667,1.666666667,0.41,-0.308888889,1,0,0,0.616,submitButton,16.10298103,0.283333333,-0.128888889,0,0,0,2,17,137,10,1,26,67246,N,180,2022-02-24_17h24.27,orientation adjustment blockN,2021.2.3,MacIntel,58.82352941,,,,,,,
,,,,,,,,,,,,,,,,,-46.66666667,-67,20,75,-221.6666667,25.33333333,25.33333333,-0.291111111,-0.388888889,1,0,0,1.767,submitButton,16.17741935,0.3,-0.252222222,0,0,0,2,18,138,51,1,67,67246,N,180,2022-02-24_17h24.27,orientation adjustment blockN,2021.2.3,MacIntel,58.82352941,,,,,,,
,,,,,,,,,,,,,,,,,-73.33333333,-16,20,75,-43.33333333,27.33333333,27.33333333,-0.213333333,-0.388888889,1,0,0,0.866,submitButton,16.26666667,0.212222222,-0.131111111,0,0,0,2,19,139,0,1,16,67246,N,180,2022-02-24_17h24.27,orientation adjustment blockN,2021.2.3,MacIntel,58.82352941,,,,,,,
,,,,,,,,,,,,,,,,,44.44444444,-34,20,75,-21.55555556,12.44444444,12.44444444,-0.238888889,-0.42,1,0,0,1.166,submitButton,16.23633157,0.138888889,-0.13,0,0,0,2,20,140,18,1,34,67246,N,180,2022-02-24_17h24.27,orientation adjustment blockN,2021.2.3,MacIntel,58.82352941,,,,,,,
,,,,,,,,,,,,,,,,,-31.11111111,44,20,75,-18.11111111,62.11111111,62.11111111,-0.35,-0.385555556,1,0,0,0.633,submitButton,16.59755031,0.138888889,-0.206666667,0,0,0,2,21,141,28,1,44,67246,N,180,2022-02-24_17h24.27,orientation adjustment blockN,2021.2.3,MacIntel,58.82352941,,,,,,,
,,,,,,,,,,,,,,,,,71.11111111,-18,20,75,-21.88888889,3.888888889,3.888888889,0.413333333,-0.296666667,1,0,0,0.418,submitButton,16.49826389,0.204444444,-0.164444444,0,0,0,2,22,142,2,1,18,67246,N,180,2022-02-24_17h24.27,orientation adjustment blockN,2021.2.3,MacIntel,58.82352941,,,,,,,
,,,,,,,,,,,,,,,,,-30.55555556,-28,20,75,-31.55555556,3.555555556,3.555555556,-0.173333333,-0.397777778,1,0,0,1.099,submitButton,16.39793282,-0.173333333,-0.397777778,0,0,0,2,23,143,12,1,28,67246,N,180,2022-02-24_17h24.27,orientation adjustment blockN,2021.2.3,MacIntel,58.82352941,,,,,,,
,,,,,,,,,,,,,,,,,70,20,20,75,201,1,1,-0.233333333,-0.393333333,1,0,0,1.8,submitButton,16.27948718,-0.233333333,-0.393333333,0,0,0,2,24,144,4,1,20,67246,N,180,2022-02-24_17h24.27,orientation adjustment blockN,2021.2.3,MacIntel,58.82352941,,,,,,,
,,,,,,,,,,,,,,,,,45.55555556,-65,20,75,-49.44444444,15.55555556,15.55555556,-0.205555556,-0.385555556,1,0,0,0.567,submitButton,16.27396098,-0.205555556,-0.385555556,0,0,0,2,25,145,49,1,65,67246,N,180,2022-02-24_17h24.27,orientation adjustment blockN,2021.2.3,MacIntel,58.82352941,,,,,,,
,,,,,,,,,,,,,,,,,28.88888889,-62,20,75,-49.11111111,12.88888889,12.88888889,-0.261111111,-0.38,1,0,0,0.7,submitButton,16.2483165,0.212222222,-0.246666667,0,0,0,2,26,146,46,1,62,67246,N,180,2022-02-24_17h24.27,orientation adjustment blockN,2021.2.3,MacIntel,58.82352941,,,,,,,
,,,,,,,,,,,,,,,,,-71.11111111,-27,20,75,-45.11111111,18.11111111,18.11111111,0.212222222,-0.302222222,1,0,0,0.199,submitButton,16.26232247,-0.373333333,-0.403333333,0,0,0,2,27,147,11,1,27,67246,N,180,2022-02-24_17h24.27,orientation adjustment blockN,2021.2.3,MacIntel,58.82352941,,,,,,,
,,,,,,,,,,,,,,,,,23.33333333,36,20,75,42.33333333,6.333333333,6.333333333,-0.292222222,-0.403333333,1,0,0,0.582,submitButton,16.18822554,0.274444444,-0.078888889,0,0,0,2,28,148,20,1,36,67246,N,180,2022-02-24_17h24.27,orientation adjustment blockN,2021.2.3,MacIntel,58.82352941,,,,,,,
,,,,,,,,,,,,,,,,,-32.22222222,70,20,75,25.77777778,44.22222222,44.22222222,-0.315555556,-0.408888889,1,0,0,0.3,submitButton,16.39588477,0.091111111,-0.221111111,0,0,0,2,29,149,54,1,70,67246,N,180,2022-02-24_17h24.27,orientation adjustment blockN,2021.2.3,MacIntel,58.82352941,,,,,,,
,,,,,,,,,,,,,,,,,-30.55555556,-52,20,75,-53.55555556,1.555555556,1.555555556,-0.234444444,-0.398888889,1,0,0,0.384,submitButton,16.28676471,0.152222222,-0.267777778,0,0,0,2,30,150,36,1,52,67246,N,180,2022-02-24_17h24.27,orientation adjustment blockN,2021.2.3,MacIntel,58.82352941,,,,,,,
,,,,,,,,,,,,,,,,,-61.66666667,-75,20,75,-61.66666667,13.33333333,13.33333333,-0.271111111,-0.417777778,1,0,0,1.068,submitButton,16.26520681,0.03,-0.232222222,0,0,0,2,31,151,59,1,75,67246,N,180,2022-02-24_17h24.27,orientation adjustment blockN,2021.2.3,MacIntel,58.82352941,,,,,,,
,,,,,,,,,,,,,,,,,38.88888889,-41,20,75,-23.11111111,17.88888889,17.88888889,-0.171111111,-0.387777778,1,0,0,0.984,submitButton,16.27697262,-0.171111111,-0.387777778,0,0,0,2,32,152,25,1,41,67246,N,180,2022-02-24_17h24.27,orientation adjustment blockN,2021.2.3,MacIntel,58.82352941,,,,,,,
,,,,,,,,,,,,,,,,,-41.66666667,-74,20,75,-59.66666667,14.33333333,14.33333333,-0.234444444,-0.39,1,0,0,0.95,submitButton,16.26298961,-0.234444444,-0.39,0,0,0,2,33,153,58,1,74,67246,N,180,2022-02-24_17h24.27,orientation adjustment blockN,2021.2.3,MacIntel,58.82352941,,,,,,,
,,,,,,,,,,,,,,,,,20,-63,20,75,-69,6,6,-0.307777778,-0.39,1,0,0,0.316,submitButton,16.18968254,0.136666667,-0.341111111,0,0,0,2,34,154,47,1,63,67246,N,180,2022-02-24_17h24.27,orientation adjustment blockN,2021.2.3,MacIntel,58.82352941,,,,,,,
,,,,,,,,,,,,,,,,,25.55555556,59,20,75,216.5555556,22.44444444,22.44444444,-0.115555556,-0.383333333,1,0,0,2.384,submitButton,16.23404255,0.008888889,-0.281111111,0,0,0,2,35,155,43,1,59,67246,N,180,2022-02-24_17h24.27,orientation adjustment blockN,2021.2.3,MacIntel,58.82352941,,,,,,,
,,,,,,,,,,,,,,,,,21.66666667,-33,20,75,-38.33333333,5.333333333,5.333333333,-0.271111111,-0.39,1,0,0,0.584,submitButton,16.157277,-0.271111111,-0.39,0,0,0,2,36,156,17,1,33,67246,N,180,2022-02-24_17h24.27,orientation adjustment blockN,2021.2.3,MacIntel,58.82352941,,,,,,,
,,,,,,,,,,,,,,,,,-50,30,20,75,29,1,1,-0.226666667,-0.405555556,1,0,0,0.684,submitButton,16.05128205,-0.225555556,-0.405555556,0,0,0,2,37,157,14,1,30,67246,N,180,2022-02-24_17h24.27,orientation adjustment blockN,2021.2.3,MacIntel,58.82352941,,,,,,,
,,,,,,,,,,,,,,,,,56.11111111,49,20,75,60.11111111,11.11111111,11.11111111,-0.206666667,-0.378888889,1,0,0,1.001,submitButton,16.01697531,0.048888889,-0.25,0,0,0,2,38,158,33,1,49,67246,N,180,2022-02-24_17h24.27,orientation adjustment blockN,2021.2.3,MacIntel,58.82352941,,,,,,,
,,,,,,,,,,,,,,,,,68.33333333,38,20,75,210.3333333,7.666666667,7.666666667,-0.21,-0.421111111,1,0,0,1.667,submitButton,15.95938697,0.093333333,-0.163333333,0,0,0,2,39,159,22,1,38,67246,N,180,2022-02-24_17h24.27,orientation adjustment blockN,2021.2.3,MacIntel,58.82352941,,,,,,,
,,,,,,,,,,,,,,,,,66.11111111,56,20,75,66.11111111,10.11111111,10.11111111,-0.19,-0.42,1,0,0,1.616,submitButton,15.91933029,-0.003333333,-0.26,0,0,0,2,40,160,40,1,56,67246,N,180,2022-02-24_17h24.27,orientation adjustment blockN,2021.2.3,MacIntel,58.82352941,,,,,,,
,,,,,,,,,,,,,,,,,37.77777778,66,20,75,63.77777778,2.222222222,2.222222222,-0.231111111,-0.366666667,1,0,0,0.7,submitButton,15.82615268,0.084444444,-0.151111111,0,0,0,2,41,161,50,1,66,67246,N,180,2022-02-24_17h24.27,orientation adjustment blockN,2021.2.3,MacIntel,58.82352941,,,,,,,
,,,,,,,,,,,,,,,,,40,32,20,75,37,5,5,-0.161111111,-0.404444444,1,0,0,1.283,submitButton,15.753003,-0.163333333,-0.406666667,0,0,0,2,42,162,16,1,32,67246,N,180,2022-02-24_17h24.27,orientation adjustment blockN,2021.2.3,MacIntel,58.82352941,,,,,,,
,,,,,,,,,,,,,,,,,59.44444444,29,20,75,40.44444444,11.44444444,11.44444444,-0.271111111,-0.395555556,1,0,0,1.316,submitButton,15.7240865,-0.018888889,-0.277777778,0,0,0,2,43,163,13,1,29,67246,N,180,2022-02-24_17h24.27,orientation adjustment blockN,2021.2.3,MacIntel,58.82352941,,,,,,,
,,,,,,,,,,,,,,,,,-60.55555556,-61,20,75,-58.55555556,2.444444444,2.444444444,0.2,-0.28,1,0,0,0.033,submitButton,15.63555556,-0.045555556,-0.371111111,0,0,0,2,44,164,45,1,61,67246,N,180,2022-02-24_17h24.27,orientation adjustment blockN,2021.2.3,MacIntel,58.82352941,,,,,,,
,,,,,,,,,,,,,,,,,-38.33333333,58,20,75,45.66666667,12.33333333,12.33333333,-0.24,-0.384444444,1,0,0,0.451,submitButton,15.61368653,-0.167777778,-0.28,0,0,0,2,45,165,42,1,58,67246,N,180,2022-02-24_17h24.27,orientation adjustment blockN,2021.2.3,MacIntel,58.82352941,,,,,,,
,,,,,,,,,,,,,,,,,-70,-57,20,75,-213,24,24,-0.191111111,-0.383333333,1,0,0,1.95,submitButton,15.66885965,-0.191111111,-0.383333333,0,0,0,2,46,166,41,1,57,67246,N,180,2022-02-24_17h24.27,orientation adjustment blockN,2021.2.3,MacIntel,58.82352941,,,,,,,
,,,,,,,,,,,,,,,,,-25,47,20,75,42,5,5,-0.27,-0.371111111,1,0,0,0.301,submitButton,15.59912854,0.197777778,-0.097777778,0,0,0,2,47,167,31,1,47,67246,N,180,2022-02-24_17h24.27,orientation adjustment blockN,2021.2.3,MacIntel,58.82352941,,,,,,,
,,,,,,,,,,,,,,,,,28.33333333,68,20,75,231.3333333,16.66666667,16.66666667,-0.193333333,-0.405555556,1,0,0,2.2,submitButton,15.60606061,-0.182222222,-0.381111111,0,0,0,2,48,168,52,1,68,67246,N,180,2022-02-24_17h24.27,orientation adjustment blockN,2021.2.3,MacIntel,58.82352941,,,,,,,
,,,,,,,,,,,,,,,,,-55.55555556,-54,20,75,-221.5555556,12.44444444,12.44444444,-0.168888889,-0.395555556,1,0,0,1.8,submitButton,15.58566308,-0.168888889,-0.394444444,0,0,0,2,49,169,38,1,54,67246,N,180,2022-02-24_17h24.27,orientation adjustment blockN,2021.2.3,MacIntel,58.82352941,,,,,,,
,,,,,,,,,,,,,,,,,20.55555556,-72,20,75,-61.44444444,10.55555556,10.55555556,0.398888889,-0.308888889,1,0,0,0.151,submitButton,15.5534188,-0.06,-0.117777778,0,0,0,2,50,170,56,1,72,67246,N,180,2022-02-24_17h24.27,orientation adjustment blockN,2021.2.3,MacIntel,58.82352941,,,,,,,
,,,,,,,,,,,,,,,,,28.33333333,-42,20,75,-35.66666667,6.333333333,6.333333333,-0.293333333,-0.4,1,0,0,0.584,submitButton,15.49469214,-0.016666667,-0.185555556,0,0,0,2,51,171,26,1,42,67246,N,180,2022-02-24_17h24.27,orientation adjustment blockN,2021.2.3,MacIntel,58.82352941,,,,,,,
,,,,,,,,,,,,,,,,,-73.33333333,60,20,75,43.66666667,16.33333333,16.33333333,-0.167777778,-0.411111111,1,0,0,0.867,submitButton,15.5,0.131111111,-0.046666667,0,0,0,2,52,172,44,1,60,67246,N,180,2022-02-24_17h24.27,orientation adjustment blockN,2021.2.3,MacIntel,58.82352941,,,,,,,
,,,,,,,,,,,,,,,,,-71.11111111,-21,20,75,-211.1111111,10.11111111,10.11111111,-0.213333333,-0.396666667,1,0,0,2.233,submitButton,15.46610762,0.132222222,-0.12,0,0,0,2,53,173,5,1,21,67246,N,180,2022-02-24_17h24.27,orientation adjustment blockN,2021.2.3,MacIntel,58.82352941,,,,,,,
,,,,,,,,,,,,,,,,,40,43,20,75,63,20,20,0.351111111,-0.29,1,0,0,0.633,submitButton,15.49444444,0.087777778,-0.09,0,0,0,2,54,174,27,1,43,67246,N,180,2022-02-24_17h24.27,orientation adjustment blockN,2021.2.3,MacIntel,58.82352941,,,,,,,
,,,,,,,,,,,,,,,,,-30,-55,20,75,-62,7,7,-0.278888889,-0.403333333,1,0,0,0.717,submitButton,15.44168392,-0.276666667,-0.403333333,0,0,0,2,55,175,39,1,55,67246,N,180,2022-02-24_17h24.27,orientation adjustment blockN,2021.2.3,MacIntel,58.82352941,,,,,,,
,,,,,,,,,,,,,,,,,-75,40,20,75,32,8,8,-0.228888889,-0.375555556,1,0,0,1.285,submitButton,15.3957476,-0.228888889,-0.375555556,0,0,0,2,56,176,24,1,40,67246,N,180,2022-02-24_17h24.27,orientation adjustment blockN,2021.2.3,MacIntel,58.82352941,,,,,,,
,,,,,,,,,,,,,,,,,52.22222222,-53,20,75,-34.77777778,18.22222222,18.22222222,0.374444444,-0.316666667,1,0,0,0.151,submitButton,15.41308793,-0.201111111,-0.408888889,0,0,0,2,57,177,37,1,53,67246,N,180,2022-02-24_17h24.27,orientation adjustment blockN,2021.2.3,MacIntel,58.82352941,,,,,,,
,,,,,,,,,,,,,,,,,29.44444444,-71,20,75,-50.55555556,20.44444444,20.44444444,-0.324444444,-0.382222222,1,0,0,1.133,submitButton,15.44376694,0.268888889,-0.227777778,0,0,0,2,58,178,55,1,71,67246,N,180,2022-02-24_17h24.27,orientation adjustment blockN,2021.2.3,MacIntel,58.82352941,,,,,,,
,,,,,,,,,,,,,,,,,-63.33333333,-23,20,75,-49.33333333,26.33333333,26.33333333,-0.288888889,-0.382222222,1,0,0,0.72,submitButton,15.50976431,0.197777778,0.084444444,0,0,0,2,59,179,7,1,23,67246,N,180,2022-02-24_17h24.27,orientation adjustment blockN,2021.2.3,MacIntel,58.82352941,,,,,,,
,,,,,,,,,,,,,,,,,,,,,,,,,,,,,,,,,,,,,,,,,,,67246,N,180,2022-02-24_17h24.27,orientation adjustment blockN,2021.2.3,MacIntel,58.82352941,,0.31,-0.404444444,1,0,0,EndButtonTxt
