consentMouse1.x,consentMouse1.y,consentMouse1.leftButton,consentMouse1.midButton,consentMouse1.rightButton,consentMouse1.clicked_name,consent_Mouse.x,consent_Mouse.y,consent_Mouse.leftButton,consent_Mouse.midButton,consent_Mouse.rightButton,consent_Mouse.clicked_name,startMouse.x,startMouse.y,startMouse.leftButton,startMouse.midButton,startMouse.rightButton,start_distance,fixedOri,minimalDistance,maxOri,this_ori,accuracy,presented_accuracy,submitMouse.x,submitMouse.y,submitMouse.leftButton,submitMouse.midButton,submitMouse.rightButton,submitMouse.time,submitMouse.clicked_name,block_accuracy,continueMouse.x,continueMouse.y,continueMouse.leftButton,continueMouse.midButton,continueMouse.rightButton,trials.thisRepN,trials.thisTrialN,trials.thisN,trials.thisIndex,trials.ran,startOri,participant,condition,nTrials,date,expName,psychopyVersion,OS,frameRate,continueMouse.clicked_name,EndButtonMouse.x,EndButtonMouse.y,EndButtonMouse.leftButton,EndButtonMouse.midButton,EndButtonMouse.rightButton,EndButtonMouse.clicked_name
0.32078559,-0.387122396,1,0,0,consent_button1,0.378550347,-0.395694444,1,0,0,consent_button,0.301814236,-0.355807292,1,0,0,63.88888889,-49,20,75,14.88888889,63.88888889,63.88888889,-0.367829861,-0.402842882,1,0,0,4.3812,submitButton,63.88888889,-0.367829861,-0.402842882,0,0,0,0,0,0,33,1,49,67312,N,180,2022-02-24_20h50.43.674,orientation adjustment blockN,2021.2.3,MacIntel,59.99880002,,,,,,,
,,,,,,,,,,,,,,,,,70,-42,20,75,28,70,70,-0.200494792,-0.39750434,1,0,0,2.7678,submitButton,66.94444444,-0.200494792,-0.39750434,0,0,0,0,1,1,26,1,42,67312,N,180,2022-02-24_20h50.43.674,orientation adjustment blockN,2021.2.3,MacIntel,59.99880002,,,,,,,
,,,,,,,,,,,,,,,,,49.44444444,70,20,75,10.44444444,59.55555556,59.55555556,0.407565104,-0.336835938,1,0,0,2.6017,submitButton,64.48148148,-0.270030382,-0.390486111,0,0,0,0,2,2,54,1,70,67312,N,180,2022-02-24_20h50.43.674,orientation adjustment blockN,2021.2.3,MacIntel,59.99880002,,,,,,,
,,,,,,,,,,,,,,,,,-52.22222222,-51,20,75,-76.22222222,25.22222222,25.22222222,0.216132812,-0.296358507,1,0,0,0.2324,submitButton,25.22222222,-0.279739583,-0.381822917,0,0,0,0,3,3,35,1,51,67312,N,180,2022-02-24_20h50.43.674,orientation adjustment blockN,2021.2.3,MacIntel,59.99880002,,,,,,,
,,,,,,,,,,,,,,,,,70.55555556,52,20,75,57.55555556,5.555555556,5.555555556,0.380060764,-0.293328993,1,0,0,0.3832,submitButton,15.38888889,-0.273780382,-0.401137153,0,0,0,0,4,4,36,1,52,67312,N,180,2022-02-24_20h50.43.674,orientation adjustment blockN,2021.2.3,MacIntel,59.99880002,,,,,,,
,,,,,,,,,,,,,,,,,-51.66666667,-28,20,75,-49.66666667,21.66666667,21.66666667,0.204700521,-0.303333333,1,0,0,0.0336,submitButton,17.48148148,-0.018467882,-0.287165799,0,0,0,0,5,5,12,1,28,67312,N,180,2022-02-24_20h50.43.674,orientation adjustment blockN,2021.2.3,MacIntel,59.99880002,,,,,,,
,,,,,,,,,,,,,,,,,52.22222222,-23,20,75,-25.77777778,2.777777778,2.777777778,0.396341146,-0.305125868,1,0,0,0.4147,submitButton,2.777777778,-0.343155382,-0.401176215,0,0,0,0,6,6,7,1,23,67312,N,180,2022-02-24_20h50.43.674,orientation adjustment blockN,2021.2.3,MacIntel,59.99880002,,,,,,,
,,,,,,,,,,,,,,,,,26.11111111,54,20,75,61.11111111,7.111111111,7.111111111,0.416367188,-0.302217882,1,0,0,0.2994,submitButton,4.944444444,-0.213880208,-0.410416667,0,0,0,0,7,7,38,1,54,67312,N,180,2022-02-24_20h50.43.674,orientation adjustment blockN,2021.2.3,MacIntel,59.99880002,,,,,,,
,,,,,,,,,,,,,,,,,46.11111111,39,20,75,37.11111111,1.888888889,1.888888889,0.393689236,-0.303446181,1,0,0,0.0987,submitButton,3.925925926,-0.359509549,-0.425525174,0,0,0,0,8,8,23,1,39,67312,N,180,2022-02-24_20h50.43.674,orientation adjustment blockN,2021.2.3,MacIntel,59.99880002,,,,,,,
,,,,,,,,,,,,,,,,,45.55555556,20,20,75,9.555555556,10.44444444,10.44444444,0.385503472,-0.285494792,1,0,0,0.1157,submitButton,10.44444444,-0.285390625,-0.395633681,0,0,0,0,9,9,4,1,20,67312,N,180,2022-02-24_20h50.43.674,orientation adjustment blockN,2021.2.3,MacIntel,59.99880002,,,,,,,
,,,,,,,,,,,,,,,,,61.11111111,29,20,75,13.11111111,15.88888889,15.88888889,0.421814236,-0.279513889,1,0,0,0.1664,submitButton,13.16666667,0.137795139,-0.295746528,0,0,0,0,10,10,13,1,29,67312,N,180,2022-02-24_20h50.43.674,orientation adjustment blockN,2021.2.3,MacIntel,59.99880002,,,,,,,
,,,,,,,,,,,,,,,,,43.88888889,-71,20,75,-80.11111111,9.111111111,9.111111111,0.405698785,-0.296119792,1,0,0,0.0499,submitButton,11.81481481,-0.281124132,-0.408307292,0,0,0,0,11,11,55,1,71,67312,N,180,2022-02-24_20h50.43.674,orientation adjustment blockN,2021.2.3,MacIntel,59.99880002,,,,,,,
,,,,,,,,,,,,,,,,,31.66666667,-19,20,75,-33.33333333,14.33333333,14.33333333,0.416844618,-0.315868056,1,0,0,0.0174,submitButton,14.33333333,-0.257460937,-0.402374132,0,0,0,0,12,12,3,1,19,67312,N,180,2022-02-24_20h50.43.674,orientation adjustment blockN,2021.2.3,MacIntel,59.99880002,,,,,,,
,,,,,,,,,,,,,,,,,36.66666667,67,20,75,252.6666667,5.666666667,5.666666667,0.191644965,-0.303207465,1,0,0,0.0994,submitButton,10,-0.253489583,-0.396467014,0,0,0,0,13,13,51,1,67,67312,N,180,2022-02-24_20h50.43.674,orientation adjustment blockN,2021.2.3,MacIntel,59.99880002,,,,,,,
,,,,,,,,,,,,,,,,,58.88888889,36,20,75,212.8888889,3.111111111,3.111111111,-0.314578993,-0.41452691,1,0,0,2.4326,submitButton,7.703703704,0.379956597,-0.405351562,1,0,0,0,14,14,20,1,36,67312,N,180,2022-02-24_20h50.43.674,orientation adjustment blockN,2021.2.3,MacIntel,59.99880002,continueButton,,,,,,
,,,,,,,,,,,,,,,,,31.11111111,-56,20,75,-24.88888889,31.11111111,31.11111111,-0.266901042,-0.39687934,1,0,0,0.5322,submitButton,31.11111111,0.227756076,-0.276523438,0,0,0,0,15,15,40,1,56,67312,N,180,2022-02-24_20h50.43.674,orientation adjustment blockN,2021.2.3,MacIntel,59.99880002,,,,,,,
,,,,,,,,,,,,,,,,,-55.55555556,-41,20,75,-222.5555556,1.555555556,1.555555556,-0.200425347,-0.386592882,1,0,0,2.6507,submitButton,16.33333333,0.176137153,-0.212452257,0,0,0,0,16,16,25,1,41,67312,N,180,2022-02-24_20h50.43.674,orientation adjustment blockN,2021.2.3,MacIntel,59.99880002,,,,,,,
,,,,,,,,,,,,,,,,,-58.33333333,47,20,75,41.66666667,5.333333333,5.333333333,-0.253103299,-0.412699653,1,0,0,1.1161,submitButton,12.66666667,0.130894097,-0.411284722,0,0,0,0,17,17,31,1,47,67312,N,180,2022-02-24_20h50.43.674,orientation adjustment blockN,2021.2.3,MacIntel,59.99880002,,,,,,,
,,,,,,,,,,,,,,,,,-35,25,20,75,31,6,6,-0.23484375,-0.400863715,1,0,0,0.8663,submitButton,11,0.011427951,-0.281553819,0,0,0,0,18,18,9,1,25,67312,N,180,2022-02-24_20h50.43.674,orientation adjustment blockN,2021.2.3,MacIntel,59.99880002,,,,,,,
,,,,,,,,,,,,,,,,,41.11111111,-35,20,75,-36.88888889,1.888888889,1.888888889,-0.173967014,-0.398719618,1,0,0,1.2166,submitButton,9.177777778,0.219552951,-0.185247396,0,0,0,0,19,19,19,1,35,67312,N,180,2022-02-24_20h50.43.674,orientation adjustment blockN,2021.2.3,MacIntel,59.99880002,,,,,,,
,,,,,,,,,,,,,,,,,-40,66,20,75,49,17,17,-0.267986111,-0.400828993,1,0,0,0.618,submitButton,10.48148148,-0.267986111,-0.400828993,0,0,0,0,20,20,50,1,66,67312,N,180,2022-02-24_20h50.43.674,orientation adjustment blockN,2021.2.3,MacIntel,59.99880002,,,,,,,
,,,,,,,,,,,,,,,,,-70,72,20,75,55,17,17,-0.269118924,-0.406649306,1,0,0,1.0671,submitButton,11.41269841,-0.269118924,-0.406649306,0,0,0,0,21,21,56,1,72,67312,N,180,2022-02-24_20h50.43.674,orientation adjustment blockN,2021.2.3,MacIntel,59.99880002,,,,,,,
,,,,,,,,,,,,,,,,,40.55555556,-26,20,75,-42.44444444,16.44444444,16.44444444,-0.152686632,-0.402235243,1,0,0,1.0841,submitButton,12.04166667,-0.152686632,-0.402235243,0,0,0,0,22,22,10,1,26,67312,N,180,2022-02-24_20h50.43.674,orientation adjustment blockN,2021.2.3,MacIntel,59.99880002,,,,,,,
,,,,,,,,,,,,,,,,,-47.77777778,33,20,75,41.22222222,8.222222222,8.222222222,-0.305789931,-0.412361111,1,0,0,0.9667,submitButton,11.61728395,-0.305789931,-0.412361111,0,0,0,0,23,23,17,1,33,67312,N,180,2022-02-24_20h50.43.674,orientation adjustment blockN,2021.2.3,MacIntel,59.99880002,,,,,,,
,,,,,,,,,,,,,,,,,51.11111111,50,20,75,235.1111111,5.111111111,5.111111111,-0.402239583,-0.420407986,1,0,0,2.3995,submitButton,10.96666667,0.175347222,-0.204114583,0,0,0,0,24,24,34,1,50,67312,N,180,2022-02-24_20h50.43.674,orientation adjustment blockN,2021.2.3,MacIntel,59.99880002,,,,,,,
,,,,,,,,,,,,,,,,,54.44444444,-31,20,75,-46.55555556,15.55555556,15.55555556,-0.219483507,-0.396132812,1,0,0,1.2661,submitButton,11.38383838,-0.219483507,-0.396132812,0,0,0,0,25,25,15,1,31,67312,N,180,2022-02-24_20h50.43.674,orientation adjustment blockN,2021.2.3,MacIntel,59.99880002,,,,,,,
,,,,,,,,,,,,,,,,,35,55,20,75,248,13,13,-0.308372396,-0.407118056,1,0,0,2.5501,submitButton,11.51851852,0.306115451,-0.39328559,0,0,0,0,26,26,39,1,55,67312,N,180,2022-02-24_20h50.43.674,orientation adjustment blockN,2021.2.3,MacIntel,59.99880002,,,,,,,
,,,,,,,,,,,,,,,,,-45,73,20,75,57,16,16,-0.343723958,-0.407209201,1,0,0,0.8997,submitButton,11.86324786,-0.343723958,-0.407209201,0,0,0,0,27,27,57,1,73,67312,N,180,2022-02-24_20h50.43.674,orientation adjustment blockN,2021.2.3,MacIntel,59.99880002,,,,,,,
,,,,,,,,,,,,,,,,,35,-46,20,75,-46,0,0,-0.301228299,-0.394461806,1,0,0,0.6996,submitButton,11.01587302,-0.301228299,-0.394461806,0,0,0,0,28,28,30,1,46,67312,N,180,2022-02-24_20h50.43.674,orientation adjustment blockN,2021.2.3,MacIntel,59.99880002,,,,,,,
,,,,,,,,,,,,,,,,,-62.22222222,60,20,75,55.77777778,4.222222222,4.222222222,-0.293602431,-0.403311632,1,0,0,0.95,submitButton,10.56296296,0.359053819,-0.414084201,1,0,0,0,29,29,44,1,60,67312,N,180,2022-02-24_20h50.43.674,orientation adjustment blockN,2021.2.3,MacIntel,59.99880002,continueButton,,,,,,
,,,,,,,,,,,,,,,,,34.44444444,53,20,75,44.44444444,8.555555556,8.555555556,0.401263021,-0.311280382,1,0,0,0.3154,submitButton,10.4375,-0.135099826,-0.319431424,0,0,0,0,30,30,37,1,53,67312,N,180,2022-02-24_20h50.43.674,orientation adjustment blockN,2021.2.3,MacIntel,59.99880002,,,,,,,
,,,,,,,,,,,,,,,,,-30,-74,20,75,-58,16,16,-0.242986111,-0.413263889,1,0,0,1.0505,submitButton,10.76470588,0.076367188,-0.296388889,0,0,0,0,31,31,58,1,74,67312,N,180,2022-02-24_20h50.43.674,orientation adjustment blockN,2021.2.3,MacIntel,59.99880002,,,,,,,
,,,,,,,,,,,,,,,,,-47.22222222,-22,20,75,-29.22222222,7.222222222,7.222222222,0.190460069,-0.296184896,1,0,0,0.0844,submitButton,10.56790123,-0.242356771,-0.396050347,0,0,0,0,32,32,6,1,22,67312,N,180,2022-02-24_20h50.43.674,orientation adjustment blockN,2021.2.3,MacIntel,59.99880002,,,,,,,
,,,,,,,,,,,,,,,,,-35,-32,20,75,-33,1,1,-0.331332465,-0.415611979,1,0,0,0.6672,submitButton,10.06432749,-0.331332465,-0.415321181,0,0,0,0,33,33,16,1,32,67312,N,180,2022-02-24_20h50.43.674,orientation adjustment blockN,2021.2.3,MacIntel,59.99880002,,,,,,,
,,,,,,,,,,,,,,,,,60.55555556,-21,20,75,157.5555556,1.444444444,1.444444444,-0.31046875,-0.423359375,1,0,0,2.034,submitButton,9.633333333,-0.31046875,-0.423359375,0,0,0,0,34,34,5,1,21,67312,N,180,2022-02-24_20h50.43.674,orientation adjustment blockN,2021.2.3,MacIntel,59.99880002,,,,,,,
,,,,,,,,,,,,,,,,,56.11111111,-61,20,75,-48.88888889,12.11111111,12.11111111,-0.249422743,-0.411072049,1,0,0,1.1017,submitButton,9.751322751,-0.249422743,-0.411072049,0,0,0,0,35,35,45,1,61,67312,N,180,2022-02-24_20h50.43.674,orientation adjustment blockN,2021.2.3,MacIntel,59.99880002,,,,,,,
,,,,,,,,,,,,,,,,,61.11111111,62,20,75,248.1111111,6.111111111,6.111111111,0.210846354,-0.299743924,1,0,0,1.6513,submitButton,9.585858586,-0.211236979,-0.383832465,0,0,0,0,36,36,46,1,62,67312,N,180,2022-02-24_20h50.43.674,orientation adjustment blockN,2021.2.3,MacIntel,59.99880002,,,,,,,
,,,,,,,,,,,,,,,,,-25.55555556,-16,20,75,-28.55555556,12.55555556,12.55555556,0.199466146,-0.326688368,1,0,0,0.1839,submitButton,9.714975845,-0.248585069,-0.406332465,0,0,0,0,37,37,0,1,16,67312,N,180,2022-02-24_20h50.43.674,orientation adjustment blockN,2021.2.3,MacIntel,59.99880002,,,,,,,
,,,,,,,,,,,,,,,,,-42.22222222,44,20,75,37.77777778,6.222222222,6.222222222,0.180855035,-0.317734375,1,0,0,1.7666,submitButton,9.569444444,-0.419600694,-0.412521701,0,0,0,0,38,38,28,1,44,67312,N,180,2022-02-24_20h50.43.674,orientation adjustment blockN,2021.2.3,MacIntel,59.99880002,,,,,,,
,,,,,,,,,,,,,,,,,-48.88888889,-27,20,75,-40.88888889,13.88888889,13.88888889,0.234761285,-0.279644097,1,0,0,1.0825,submitButton,9.742222222,-0.204127604,-0.393741319,0,0,0,0,39,39,11,1,27,67312,N,180,2022-02-24_20h50.43.674,orientation adjustment blockN,2021.2.3,MacIntel,59.99880002,,,,,,,
,,,,,,,,,,,,,,,,,-20,-24,20,75,-22,2,2,0.207235243,-0.306467014,1,0,0,1.5499,submitButton,9.444444444,-0.189548611,-0.406427951,0,0,0,0,40,40,8,1,24,67312,N,180,2022-02-24_20h50.43.674,orientation adjustment blockN,2021.2.3,MacIntel,59.99880002,,,,,,,
,,,,,,,,,,,,,,,,,45,75,20,75,258,3,3,0.21171875,-0.309479167,1,0,0,0.1822,submitButton,9.205761317,-0.398706597,-0.396948785,0,0,0,0,41,41,59,1,75,67312,N,180,2022-02-24_20h50.43.674,orientation adjustment blockN,2021.2.3,MacIntel,59.99880002,,,,,,,
,,,,,,,,,,,,,,,,,71.11111111,-59,20,75,-64.88888889,5.888888889,5.888888889,0.419861111,-0.318506944,1,0,0,0.2659,submitButton,9.087301587,-0.266306424,-0.392213542,0,0,0,0,42,42,43,1,59,67312,N,180,2022-02-24_20h50.43.674,orientation adjustment blockN,2021.2.3,MacIntel,59.99880002,,,,,,,
,,,,,,,,,,,,,,,,,20,65,20,75,54,11,11,0.399600694,-0.309639757,1,0,0,2.8842,submitButton,9.153256705,-0.236358507,-0.399539931,0,0,0,0,43,43,49,1,65,67312,N,180,2022-02-24_20h50.43.674,orientation adjustment blockN,2021.2.3,MacIntel,59.99880002,,,,,,,
,,,,,,,,,,,,,,,,,-27.22222222,-17,20,75,-44.22222222,27.22222222,27.22222222,-0.275902778,-0.415286458,1,0,0,0.9993,submitButton,9.755555556,0.284917535,-0.405772569,1,0,0,0,44,44,1,1,17,67312,N,180,2022-02-24_20h50.43.674,orientation adjustment blockN,2021.2.3,MacIntel,59.99880002,continueButton,,,,,,
,,,,,,,,,,,,,,,,,20.55555556,48,20,75,38.55555556,9.444444444,9.444444444,0.400021701,-0.317552083,1,0,0,0.1991,submitButton,9.745519713,-0.262309028,-0.404557292,0,0,0,0,45,45,32,1,48,67312,N,180,2022-02-24_20h50.43.674,orientation adjustment blockN,2021.2.3,MacIntel,59.99880002,,,,,,,
,,,,,,,,,,,,,,,,,-52.22222222,-45,20,75,-39.22222222,5.777777778,5.777777778,0.214001736,-0.288259549,1,0,0,0.6825,submitButton,9.621527778,-0.320008681,-0.384088542,0,0,0,0,46,46,29,1,45,67312,N,180,2022-02-24_20h50.43.674,orientation adjustment blockN,2021.2.3,MacIntel,59.99880002,,,,,,,
,,,,,,,,,,,,,,,,,74.44444444,-40,20,75,-48.55555556,8.555555556,8.555555556,0.354296875,-0.293328993,1,0,0,0.1663,submitButton,9.589225589,-0.160082465,-0.400759549,0,0,0,0,47,47,24,1,40,67312,N,180,2022-02-24_20h50.43.674,orientation adjustment blockN,2021.2.3,MacIntel,59.99880002,,,,,,,
,,,,,,,,,,,,,,,,,-48.33333333,63,20,75,68.66666667,5.666666667,5.666666667,0.186145833,-0.287912326,1,0,0,0.9501,submitButton,9.473856209,-0.254960937,-0.393849826,0,0,0,0,48,48,47,1,63,67312,N,180,2022-02-24_20h50.43.674,orientation adjustment blockN,2021.2.3,MacIntel,59.99880002,,,,,,,
,,,,,,,,,,,,,,,,,50.55555556,38,20,75,29.55555556,8.444444444,8.444444444,0.368632813,-0.287682292,1,0,0,0.2336,submitButton,9.444444444,-0.155264757,-0.401414931,0,0,0,0,49,49,22,1,38,67312,N,180,2022-02-24_20h50.43.674,orientation adjustment blockN,2021.2.3,MacIntel,59.99880002,,,,,,,
,,,,,,,,,,,,,,,,,-36.66666667,-30,20,75,-236.6666667,26.66666667,26.66666667,0.396458333,-0.282586806,1,0,0,0.8825,submitButton,9.922839506,-0.202265625,-0.404874132,0,0,0,0,50,50,14,1,30,67312,N,180,2022-02-24_20h50.43.674,orientation adjustment blockN,2021.2.3,MacIntel,59.99880002,,,,,,,
,,,,,,,,,,,,,,,,,-60.55555556,69,20,75,70.44444444,1.444444444,1.444444444,0.233945313,-0.289978299,1,0,0,0.5001,submitButton,9.693693694,-0.281953125,-0.409318576,0,0,0,0,51,51,53,1,69,67312,N,180,2022-02-24_20h50.43.674,orientation adjustment blockN,2021.2.3,MacIntel,59.99880002,,,,,,,
,,,,,,,,,,,,,,,,,-56.11111111,57,20,75,62.88888889,5.888888889,5.888888889,-0.201844618,-0.389574653,1,0,0,1.1992,submitButton,9.593567251,-0.201844618,-0.389574653,0,0,0,0,52,52,41,1,57,67312,N,180,2022-02-24_20h50.43.674,orientation adjustment blockN,2021.2.3,MacIntel,59.99880002,,,,,,,
,,,,,,,,,,,,,,,,,-31.11111111,43,20,75,55.88888889,12.88888889,12.88888889,-0.235360243,-0.404592014,1,0,0,0.8496,submitButton,9.678062678,-0.235360243,-0.404592014,0,0,0,0,53,53,27,1,43,67312,N,180,2022-02-24_20h50.43.674,orientation adjustment blockN,2021.2.3,MacIntel,59.99880002,,,,,,,
,,,,,,,,,,,,,,,,,-73.88888889,18,20,75,-162.8888889,0.888888889,0.888888889,-0.347764757,-0.391289063,1,0,0,2.2494,submitButton,9.458333333,-0.347764757,-0.391289063,0,0,0,0,54,54,2,1,18,67312,N,180,2022-02-24_20h50.43.674,orientation adjustment blockN,2021.2.3,MacIntel,59.99880002,,,,,,,
,,,,,,,,,,,,,,,,,61.66666667,34,20,75,222.6666667,8.666666667,8.666666667,0.211775174,-0.314292535,1,0,0,0.3488,submitButton,9.43902439,-0.261888021,-0.413368056,0,0,0,0,55,55,18,1,34,67312,N,180,2022-02-24_20h50.43.674,orientation adjustment blockN,2021.2.3,MacIntel,59.99880002,,,,,,,
,,,,,,,,,,,,,,,,,-71.11111111,-68,20,75,-245.1111111,2.888888889,2.888888889,-0.256132812,-0.395451389,1,0,0,2.4322,submitButton,9.283068783,-0.256132812,-0.395451389,0,0,0,0,56,56,52,1,68,67312,N,180,2022-02-24_20h50.43.674,orientation adjustment blockN,2021.2.3,MacIntel,59.99880002,,,,,,,
,,,,,,,,,,,,,,,,,-58.88888889,-58,20,75,-255.8888889,17.88888889,17.88888889,-0.236480035,-0.407565104,1,0,0,2.5173,submitButton,9.483204134,-0.236480035,-0.407565104,0,0,0,0,57,57,42,1,58,67312,N,180,2022-02-24_20h50.43.674,orientation adjustment blockN,2021.2.3,MacIntel,59.99880002,,,,,,,
,,,,,,,,,,,,,,,,,51.11111111,64,20,75,239.1111111,4.888888889,4.888888889,-0.293263889,-0.405008681,1,0,0,2.184,submitButton,9.378787879,-0.293263889,-0.405008681,0,0,0,0,58,58,48,1,64,67312,N,180,2022-02-24_20h50.43.674,orientation adjustment blockN,2021.2.3,MacIntel,59.99880002,,,,,,,
,,,,,,,,,,,,,,,,,33.88888889,37,20,75,43.88888889,6.888888889,6.888888889,-0.159101562,-0.386302083,1,0,0,0.7829,submitButton,9.32345679,0.452131076,-0.402482639,1,0,0,0,59,59,21,1,37,67312,N,180,2022-02-24_20h50.43.674,orientation adjustment blockN,2021.2.3,MacIntel,59.99880002,continueButton,,,,,,
,,,,,,,,,,,,,,,,,-26.66666667,58,20,75,31.33333333,26.66666667,26.66666667,-0.234657118,-0.428263889,1,0,0,1.7663,submitButton,9.700483092,-0.234657118,-0.428263889,0,0,0,1,0,60,42,1,58,67312,N,180,2022-02-24_20h50.43.674,orientation adjustment blockN,2021.2.3,MacIntel,59.99880002,,,,,,,
,,,,,,,,,,,,,,,,,20,-25,20,75,-30,5,5,-0.234835069,-0.407261285,1,0,0,1.0664,submitButton,9.600472813,-0.234835069,-0.407261285,0,0,0,1,1,61,9,1,25,67312,N,180,2022-02-24_20h50.43.674,orientation adjustment blockN,2021.2.3,MacIntel,59.99880002,,,,,,,
,,,,,,,,,,,,,,,,,48.33333333,75,20,75,249.3333333,5.666666667,5.666666667,0.215855035,-0.311701389,1,0,0,1.8157,submitButton,9.518518519,-0.169079861,-0.405290799,0,0,0,1,2,62,59,1,75,67312,N,180,2022-02-24_20h50.43.674,orientation adjustment blockN,2021.2.3,MacIntel,59.99880002,,,,,,,
,,,,,,,,,,,,,,,,,-53.33333333,63,20,75,54.66666667,8.333333333,8.333333333,0.209305556,-0.306054687,1,0,0,0.1657,submitButton,9.494331066,-0.253476563,-0.4034375,0,0,0,1,3,63,47,1,63,67312,N,180,2022-02-24_20h50.43.674,orientation adjustment blockN,2021.2.3,MacIntel,59.99880002,,,,,,,
,,,,,,,,,,,,,,,,,60.55555556,32,20,75,49.55555556,17.55555556,17.55555556,0.418125,-0.299092882,1,0,0,0.1338,submitButton,9.655555556,-0.23203125,-0.400633681,0,0,0,1,4,64,16,1,32,67312,N,180,2022-02-24_20h50.43.674,orientation adjustment blockN,2021.2.3,MacIntel,59.99880002,,,,,,,
,,,,,,,,,,,,,,,,,56.66666667,-35,20,75,-35.33333333,0.333333333,0.333333333,-0.178246528,-0.402881944,1,0,0,1.0497,submitButton,9.472766885,-0.178246528,-0.402881944,0,0,0,1,5,65,19,1,35,67312,N,180,2022-02-24_20h50.43.674,orientation adjustment blockN,2021.2.3,MacIntel,59.99880002,,,,,,,
,,,,,,,,,,,,,,,,,-45,-33,20,75,-214,1,1,-0.241319444,-0.408007813,1,0,0,2.4163,submitButton,9.30982906,-0.241319444,-0.408007813,0,0,0,1,6,66,17,1,33,67312,N,180,2022-02-24_20h50.43.674,orientation adjustment blockN,2021.2.3,MacIntel,59.99880002,,,,,,,
,,,,,,,,,,,,,,,,,66.66666667,20,20,75,203.6666667,3.666666667,3.666666667,0.148263889,-0.293012153,1,0,0,0.3333,submitButton,9.203354298,-0.283667535,-0.420616319,0,0,0,1,7,67,4,1,20,67312,N,180,2022-02-24_20h50.43.674,orientation adjustment blockN,2021.2.3,MacIntel,59.99880002,,,,,,,
,,,,,,,,,,,,,,,,,-53.88888889,24,20,75,27.11111111,3.111111111,3.111111111,-0.204123264,-0.400907118,1,0,0,1.5339,submitButton,9.090534979,-0.204123264,-0.400907118,0,0,0,1,8,68,8,1,24,67312,N,180,2022-02-24_20h50.43.674,orientation adjustment blockN,2021.2.3,MacIntel,59.99880002,,,,,,,
,,,,,,,,,,,,,,,,,-72.22222222,51,20,75,41.77777778,9.222222222,9.222222222,-0.233923611,-0.393715278,1,0,0,1.1845,submitButton,9.092929293,-0.233923611,-0.393715278,0,0,0,1,9,69,35,1,51,67312,N,180,2022-02-24_20h50.43.674,orientation adjustment blockN,2021.2.3,MacIntel,59.99880002,,,,,,,
,,,,,,,,,,,,,,,,,-30,74,20,75,63,11,11,-0.220681424,-0.401592882,1,0,0,0.4317,submitButton,9.126984127,-0.220681424,-0.401592882,0,0,0,1,10,70,58,1,74,67312,N,180,2022-02-24_20h50.43.674,orientation adjustment blockN,2021.2.3,MacIntel,59.99880002,,,,,,,
,,,,,,,,,,,,,,,,,44.44444444,-73,20,75,-72.55555556,0.444444444,0.444444444,0.409648438,-0.297686632,1,0,0,0.2327,submitButton,8.974658869,-0.230125868,-0.405915799,0,0,0,1,11,71,57,1,73,67312,N,180,2022-02-24_20h50.43.674,orientation adjustment blockN,2021.2.3,MacIntel,59.99880002,,,,,,,
,,,,,,,,,,,,,,,,,64.44444444,53,20,75,221.4444444,11.55555556,11.55555556,-0.211336806,-0.405542535,1,0,0,1.7657,submitButton,9.019157088,-0.211336806,-0.405542535,0,0,0,1,12,72,37,1,53,67312,N,180,2022-02-24_20h50.43.674,orientation adjustment blockN,2021.2.3,MacIntel,59.99880002,,,,,,,
,,,,,,,,,,,,,,,,,60.55555556,61,20,75,243.5555556,2.555555556,2.555555556,0.212712674,-0.317256944,1,0,0,1.3669,submitButton,8.90960452,-0.174101563,-0.403498264,0,0,0,1,13,73,45,1,61,67312,N,180,2022-02-24_20h50.43.674,orientation adjustment blockN,2021.2.3,MacIntel,59.99880002,,,,,,,
,,,,,,,,,,,,,,,,,35.55555556,-71,20,75,-80.44444444,9.444444444,9.444444444,0.385824653,-0.299331597,1,0,0,0.366,submitButton,8.918518519,0.401840278,-0.406067708,1,0,0,1,14,74,55,1,71,67312,N,180,2022-02-24_20h50.43.674,orientation adjustment blockN,2021.2.3,MacIntel,59.99880002,continueButton,,,,,,
,,,,,,,,,,,,,,,,,-56.11111111,-67,20,75,-219.1111111,27.88888889,27.88888889,0.40640625,-0.293880208,1,0,0,0.0838,submitButton,9.229508197,-0.206367187,-0.414335937,0,0,0,1,15,75,51,1,67,67312,N,180,2022-02-24_20h50.43.674,orientation adjustment blockN,2021.2.3,MacIntel,59.99880002,,,,,,,
,,,,,,,,,,,,,,,,,45,-23,20,75,-41,18,18,-0.251605903,-0.406514757,1,0,0,1.2834,submitButton,9.370967742,-0.251605903,-0.406514757,0,0,0,1,16,76,7,1,23,67312,N,180,2022-02-24_20h50.43.674,orientation adjustment blockN,2021.2.3,MacIntel,59.99880002,,,,,,,
,,,,,,,,,,,,,,,,,-56.11111111,-31,20,75,-230.1111111,19.11111111,19.11111111,0.403368056,-0.304244792,1,0,0,2.267,submitButton,9.525573192,-0.200325521,-0.402313368,0,0,0,1,17,77,15,1,31,67312,N,180,2022-02-24_20h50.43.674,orientation adjustment blockN,2021.2.3,MacIntel,59.99880002,,,,,,,
,,,,,,,,,,,,,,,,,-20.55555556,29,20,75,37.44444444,8.444444444,8.444444444,-0.273619792,-0.421835937,1,0,0,0.6674,submitButton,9.508680556,-0.273619792,-0.421835937,0,0,0,1,18,78,13,1,29,67312,N,180,2022-02-24_20h50.43.674,orientation adjustment blockN,2021.2.3,MacIntel,59.99880002,,,,,,,
,,,,,,,,,,,,,,,,,53.33333333,-52,20,75,-46.66666667,5.333333333,5.333333333,-0.244670139,-0.402851562,1,0,0,1.0337,submitButton,9.444444444,-0.244670139,-0.402851562,0,0,0,1,19,79,36,1,52,67312,N,180,2022-02-24_20h50.43.674,orientation adjustment blockN,2021.2.3,MacIntel,59.99880002,,,,,,,
,,,,,,,,,,,,,,,,,-31.11111111,-60,20,75,-246.1111111,6.111111111,6.111111111,0.410768229,-0.307599826,1,0,0,2.1843,submitButton,9.393939394,-0.214288194,-0.39390625,0,0,0,1,20,80,44,1,60,67312,N,180,2022-02-24_20h50.43.674,orientation adjustment blockN,2021.2.3,MacIntel,59.99880002,,,,,,,
,,,,,,,,,,,,,,,,,48.88888889,-72,20,75,-84.11111111,12.11111111,12.11111111,0.407083333,-0.312413194,1,0,0,0.5826,submitButton,9.434494196,-0.193802083,-0.407317708,0,0,0,1,21,81,56,1,72,67312,N,180,2022-02-24_20h50.43.674,orientation adjustment blockN,2021.2.3,MacIntel,59.99880002,,,,,,,
,,,,,,,,,,,,,,,,,73.88888889,-22,20,75,147.8888889,10.11111111,10.11111111,-0.217764757,-0.425638021,1,0,0,2.1165,submitButton,9.444444444,-0.117078993,-0.30812066,0,0,0,1,22,82,6,1,22,67312,N,180,2022-02-24_20h50.43.674,orientation adjustment blockN,2021.2.3,MacIntel,59.99880002,,,,,,,
,,,,,,,,,,,,,,,,,-46.66666667,43,20,75,44.33333333,1.333333333,1.333333333,-0.200138889,-0.393506944,1,0,0,0.9324,submitButton,9.32689211,-0.200138889,-0.393506944,0,0,0,1,23,83,27,1,43,67312,N,180,2022-02-24_20h50.43.674,orientation adjustment blockN,2021.2.3,MacIntel,59.99880002,,,,,,,
,,,,,,,,,,,,,,,,,62.22222222,-28,20,75,-36.77777778,8.777777778,8.777777778,-0.319787326,-0.423615451,1,0,0,1.4661,submitButton,9.319047619,-0.319787326,-0.423615451,0,0,0,1,24,84,12,1,28,67312,N,180,2022-02-24_20h50.43.674,orientation adjustment blockN,2021.2.3,MacIntel,59.99880002,,,,,,,
,,,,,,,,,,,,,,,,,-52.77777778,56,20,75,45.22222222,10.77777778,10.77777778,-0.274409722,-0.404578993,1,0,0,0.8681,submitButton,9.339593114,-0.274409722,-0.404578993,0,0,0,1,25,85,40,1,56,67312,N,180,2022-02-24_20h50.43.674,orientation adjustment blockN,2021.2.3,MacIntel,59.99880002,,,,,,,
,,,,,,,,,,,,,,,,,-51.66666667,-26,20,75,-225.6666667,19.66666667,19.66666667,-0.171423611,-0.398111979,1,0,0,2.583,submitButton,9.483024691,-0.171423611,-0.398111979,0,0,0,1,26,86,10,1,26,67312,N,180,2022-02-24_20h50.43.674,orientation adjustment blockN,2021.2.3,MacIntel,59.99880002,,,,,,,
,,,,,,,,,,,,,,,,,-35,-70,20,75,-55,15,15,0.173059896,-0.301072049,1,0,0,0.3493,submitButton,9.558599696,-0.26921441,-0.396046007,0,0,0,1,27,87,54,1,70,67312,N,180,2022-02-24_20h50.43.674,orientation adjustment blockN,2021.2.3,MacIntel,59.99880002,,,,,,,
,,,,,,,,,,,,,,,,,71.66666667,39,20,75,206.6666667,12.33333333,12.33333333,0.187439236,-0.323311632,1,0,0,0.9992,submitButton,9.596096096,-0.238845486,-0.39890191,0,0,0,1,28,88,23,1,39,67312,N,180,2022-02-24_20h50.43.674,orientation adjustment blockN,2021.2.3,MacIntel,59.99880002,,,,,,,
,,,,,,,,,,,,,,,,,-56.66666667,-27,20,75,-13.66666667,13.33333333,13.33333333,0.191176215,-0.285065104,1,0,0,0.8335,submitButton,9.645925926,0.342382813,-0.405355903,1,0,0,1,29,89,11,1,27,67312,N,180,2022-02-24_20h50.43.674,orientation adjustment blockN,2021.2.3,MacIntel,59.99880002,continueButton,,,,,,
,,,,,,,,,,,,,,,,,73.33333333,-42,20,75,-35.66666667,6.333333333,6.333333333,0.401588542,-0.273723958,1,0,0,0.2998,submitButton,9.602339181,-0.187057292,-0.407443576,0,0,0,1,30,90,26,1,42,67312,N,180,2022-02-24_20h50.43.674,orientation adjustment blockN,2021.2.3,MacIntel,59.99880002,,,,,,,
,,,,,,,,,,,,,,,,,71.66666667,-17,20,75,-31.33333333,14.33333333,14.33333333,0.384518229,-0.299856771,1,0,0,0.1494,submitButton,9.663780664,-0.324548611,-0.424166667,0,0,0,1,31,91,1,1,17,67312,N,180,2022-02-24_20h50.43.674,orientation adjustment blockN,2021.2.3,MacIntel,59.99880002,,,,,,,
,,,,,,,,,,,,,,,,,64.44444444,-49,20,75,-74.55555556,25.55555556,25.55555556,-0.242243924,-0.396974826,1,0,0,1.8822,submitButton,9.867521368,-0.242243924,-0.396974826,0,0,0,1,32,92,33,1,49,67312,N,180,2022-02-24_20h50.43.674,orientation adjustment blockN,2021.2.3,MacIntel,59.99880002,,,,,,,
,,,,,,,,,,,,,,,,,-20.55555556,55,20,75,49.44444444,5.555555556,5.555555556,-0.209144965,-0.401553819,1,0,0,0.5334,submitButton,9.812939522,-0.209144965,-0.401553819,0,0,0,1,33,93,39,1,55,67312,N,180,2022-02-24_20h50.43.674,orientation adjustment blockN,2021.2.3,MacIntel,59.99880002,,,,,,,
,,,,,,,,,,,,,,,,,73.88888889,-30,20,75,-31.11111111,1.111111111,1.111111111,-0.193381076,-0.409040799,1,0,0,1.5334,submitButton,9.704166667,-0.193381076,-0.409040799,0,0,0,1,34,94,14,1,30,67312,N,180,2022-02-24_20h50.43.674,orientation adjustment blockN,2021.2.3,MacIntel,59.99880002,,,,,,,
,,,,,,,,,,,,,,,,,28.33333333,65,20,75,63.33333333,1.666666667,1.666666667,0.367782118,-0.302573785,1,0,0,0.0987,submitButton,9.604938272,-0.206753472,-0.404053819,0,0,0,1,35,95,49,1,65,67312,N,180,2022-02-24_20h50.43.674,orientation adjustment blockN,2021.2.3,MacIntel,59.99880002,,,,,,,
,,,,,,,,,,,,,,,,,71.11111111,19,20,75,39.11111111,20.11111111,20.11111111,-0.182204861,-0.417161458,1,0,0,1.2165,submitButton,9.733062331,-0.182204861,-0.417161458,0,0,0,1,36,96,3,1,19,67312,N,180,2022-02-24_20h50.43.674,orientation adjustment blockN,2021.2.3,MacIntel,59.99880002,,,,,,,
,,,,,,,,,,,,,,,,,36.11111111,37,20,75,26.11111111,10.88888889,10.88888889,-0.234344618,-0.387526042,1,0,0,1.2835,submitButton,9.746987952,-0.234344618,-0.387526042,0,0,0,1,37,97,21,1,37,67312,N,180,2022-02-24_20h50.43.674,orientation adjustment blockN,2021.2.3,MacIntel,59.99880002,,,,,,,
,,,,,,,,,,,,,,,,,33.33333333,16,20,75,24.33333333,8.333333333,8.333333333,-0.187070313,-0.409153646,1,0,0,0.9331,submitButton,9.73015873,-0.187070313,-0.409153646,0,0,0,1,38,98,0,1,16,67312,N,180,2022-02-24_20h50.43.674,orientation adjustment blockN,2021.2.3,MacIntel,59.99880002,,,,,,,
,,,,,,,,,,,,,,,,,30,-44,20,75,-14,30,30,-0.236848958,-0.402934028,1,0,0,0.8828,submitButton,9.968627451,-0.236848958,-0.402934028,0,0,0,1,39,99,28,1,44,67312,N,180,2022-02-24_20h50.43.674,orientation adjustment blockN,2021.2.3,MacIntel,59.99880002,,,,,,,
,,,,,,,,,,,,,,,,,66.66666667,69,20,75,222.6666667,26.33333333,26.33333333,-0.157847222,-0.414609375,1,0,0,1.8839,submitButton,10.15891473,-0.157847222,-0.414609375,0,0,0,1,40,100,53,1,69,67312,N,180,2022-02-24_20h50.43.674,orientation adjustment blockN,2021.2.3,MacIntel,59.99880002,,,,,,,
,,,,,,,,,,,,,,,,,22.22222222,-21,20,75,-33.77777778,12.77777778,12.77777778,-0.136115451,-0.393085937,1,0,0,1.2331,submitButton,10.1890166,-0.136115451,-0.393085937,0,0,0,1,41,101,5,1,21,67312,N,180,2022-02-24_20h50.43.674,orientation adjustment blockN,2021.2.3,MacIntel,59.99880002,,,,,,,
,,,,,,,,,,,,,,,,,26.66666667,-68,20,75,-82.33333333,14.33333333,14.33333333,0.367261285,-0.29766059,1,0,0,0.2338,submitButton,10.23611111,-0.218997396,-0.411636285,0,0,0,1,42,102,52,1,68,67312,N,180,2022-02-24_20h50.43.674,orientation adjustment blockN,2021.2.3,MacIntel,59.99880002,,,,,,,
,,,,,,,,,,,,,,,,,48.88888889,-64,20,75,-82.11111111,18.11111111,18.11111111,-0.271705729,-0.401540799,1,0,0,1.8486,submitButton,10.32459426,-0.271705729,-0.401540799,0,0,0,1,43,103,48,1,64,67312,N,180,2022-02-24_20h50.43.674,orientation adjustment blockN,2021.2.3,MacIntel,59.99880002,,,,,,,
,,,,,,,,,,,,,,,,,-47.77777778,-47,20,75,-55.77777778,8.777777778,8.777777778,-0.307230903,-0.410954861,1,0,0,1.1673,submitButton,10.30740741,0.429561632,-0.415030382,1,0,0,1,44,104,31,1,47,67312,N,180,2022-02-24_20h50.43.674,orientation adjustment blockN,2021.2.3,MacIntel,59.99880002,continueButton,,,,,,
,,,,,,,,,,,,,,,,,-73.88888889,-36,20,75,-220.8888889,4.888888889,4.888888889,-0.166241319,-0.406618924,1,0,0,2.1514,submitButton,10.24786325,-0.166241319,-0.406618924,0,0,0,1,45,105,20,1,36,67312,N,180,2022-02-24_20h50.43.674,orientation adjustment blockN,2021.2.3,MacIntel,59.99880002,,,,,,,
,,,,,,,,,,,,,,,,,58.33333333,41,20,75,212.3333333,8.666666667,8.666666667,-0.29233941,-0.404114583,1,0,0,2.1995,submitButton,10.23067633,-0.29233941,-0.404114583,0,0,0,1,46,106,25,1,41,67312,N,180,2022-02-24_20h50.43.674,orientation adjustment blockN,2021.2.3,MacIntel,59.99880002,,,,,,,
,,,,,,,,,,,,,,,,,-63.88888889,18,20,75,30.11111111,12.11111111,12.11111111,-0.270538194,-0.401987847,1,0,0,1.8006,submitButton,10.25089606,-0.270538194,-0.401987847,0,0,0,1,47,107,2,1,18,67312,N,180,2022-02-24_20h50.43.674,orientation adjustment blockN,2021.2.3,MacIntel,59.99880002,,,,,,,
,,,,,,,,,,,,,,,,,30,38,20,75,28,10,10,-0.215069444,-0.407170139,1,0,0,1.1004,submitButton,10.24822695,-0.215069444,-0.407170139,0,0,0,1,48,108,22,1,38,67312,N,180,2022-02-24_20h50.43.674,orientation adjustment blockN,2021.2.3,MacIntel,59.99880002,,,,,,,
,,,,,,,,,,,,,,,,,-67.22222222,62,20,75,62.77777778,0.777777778,0.777777778,-0.210373264,-0.396445312,1,0,0,1.3169,submitButton,10.14853801,-0.210373264,-0.396445312,0,0,0,1,49,109,46,1,62,67312,N,180,2022-02-24_20h50.43.674,orientation adjustment blockN,2021.2.3,MacIntel,59.99880002,,,,,,,
,,,,,,,,,,,,,,,,,43.88888889,-59,20,75,-53.11111111,5.888888889,5.888888889,-0.148997396,-0.398003472,1,0,0,0.7499,submitButton,10.10416667,-0.148997396,-0.398003472,0,0,0,1,50,110,43,1,59,67312,N,180,2022-02-24_20h50.43.674,orientation adjustment blockN,2021.2.3,MacIntel,59.99880002,,,,,,,
,,,,,,,,,,,,,,,,,61.66666667,48,20,75,235.6666667,7.666666667,7.666666667,-0.299240451,-0.400021701,1,0,0,2.3826,submitButton,10.0790378,-0.299240451,-0.400021701,0,0,0,1,51,111,32,1,48,67312,N,180,2022-02-24_20h50.43.674,orientation adjustment blockN,2021.2.3,MacIntel,59.99880002,,,,,,,
,,,,,,,,,,,,,,,,,55,40,20,75,42,2,2,-0.284761285,-0.398168403,1,0,0,1.4831,submitButton,9.996598639,-0.284761285,-0.398168403,0,0,0,1,52,112,24,1,40,67312,N,180,2022-02-24_20h50.43.674,orientation adjustment blockN,2021.2.3,MacIntel,59.99880002,,,,,,,
,,,,,,,,,,,,,,,,,-58.33333333,-57,20,75,-238.3333333,1.333333333,1.333333333,0.405759549,-0.285677083,1,0,0,1.5006,submitButton,9.909090909,-0.25858941,-0.409904514,0,0,0,1,53,113,41,1,57,67312,N,180,2022-02-24_20h50.43.674,orientation adjustment blockN,2021.2.3,MacIntel,59.99880002,,,,,,,
,,,,,,,,,,,,,,,,,54.44444444,-46,20,75,-55.55555556,9.555555556,9.555555556,-0.137313368,-0.407747396,1,0,0,1.4335,submitButton,9.905555556,-0.137313368,-0.407747396,0,0,0,1,54,114,30,1,46,67312,N,180,2022-02-24_20h50.43.674,orientation adjustment blockN,2021.2.3,MacIntel,59.99880002,,,,,,,
,,,,,,,,,,,,,,,,,51.66666667,34,20,75,34.66666667,0.666666667,0.666666667,-0.260959201,-0.404327257,1,0,0,1.2496,submitButton,9.814081408,-0.260959201,-0.404327257,0,0,0,1,55,115,18,1,34,67312,N,180,2022-02-24_20h50.43.674,orientation adjustment blockN,2021.2.3,MacIntel,59.99880002,,,,,,,
,,,,,,,,,,,,,,,,,-20,66,20,75,52,14,14,0.235425347,-0.314830729,1,0,0,0.3821,submitButton,9.855119826,-0.166050347,-0.399257812,0,0,0,1,56,116,50,1,66,67312,N,180,2022-02-24_20h50.43.674,orientation adjustment blockN,2021.2.3,MacIntel,59.99880002,,,,,,,
,,,,,,,,,,,,,,,,,73.33333333,45,20,75,223.3333333,1.666666667,1.666666667,0.215972222,-0.291419271,1,0,0,0.1335,submitButton,9.77562028,-0.233624132,-0.41577691,0,0,0,1,57,117,29,1,45,67312,N,180,2022-02-24_20h50.43.674,orientation adjustment blockN,2021.2.3,MacIntel,59.99880002,,,,,,,
,,,,,,,,,,,,,,,,,-20,50,20,75,30,20,20,-0.220390625,-0.400907118,1,0,0,0.55,submitButton,9.873931624,-0.220390625,-0.400907118,0,0,0,1,58,118,34,1,50,67312,N,180,2022-02-24_20h50.43.674,orientation adjustment blockN,2021.2.3,MacIntel,59.99880002,,,,,,,
,,,,,,,,,,,,,,,,,40.55555556,-54,20,75,-39.44444444,14.55555556,14.55555556,-0.22062066,-0.399205729,1,0,0,1.0993,submitButton,9.918518519,0.41515625,-0.411809896,1,0,0,1,59,119,38,1,54,67312,N,180,2022-02-24_20h50.43.674,orientation adjustment blockN,2021.2.3,MacIntel,59.99880002,continueButton,,,,,,
,,,,,,,,,,,,,,,,,-40.55555556,-73,20,75,-175.5555556,77.44444444,77.44444444,0.419335937,-0.297599826,1,0,0,0.1178,submitButton,10.55555556,-0.233029514,-0.398207465,0,0,0,2,0,120,57,1,73,67312,N,180,2022-02-24_20h50.43.674,orientation adjustment blockN,2021.2.3,MacIntel,59.99880002,,,,,,,
,,,,,,,,,,,,,,,,,33.33333333,19,20,75,18.33333333,0.666666667,0.666666667,0.384318576,-0.296588542,1,0,0,0.5667,submitButton,10.46313603,-0.318190104,-0.413489583,0,0,0,2,1,121,3,1,19,67312,N,180,2022-02-24_20h50.43.674,orientation adjustment blockN,2021.2.3,MacIntel,59.99880002,,,,,,,
,,,,,,,,,,,,,,,,,48.33333333,36,20,75,25.33333333,10.66666667,10.66666667,-0.210486111,-0.409348958,1,0,0,1.2329,submitButton,10.46502058,-0.210486111,-0.409348958,0,0,0,2,2,122,20,1,36,67312,N,180,2022-02-24_20h50.43.674,orientation adjustment blockN,2021.2.3,MacIntel,59.99880002,,,,,,,
,,,,,,,,,,,,,,,,,-60,-17,20,75,-27,10,10,-0.298971354,-0.408832465,1,0,0,1.5177,submitButton,10.46075433,-0.298971354,-0.408832465,0,0,0,2,3,123,1,1,17,67312,N,180,2022-02-24_20h50.43.674,orientation adjustment blockN,2021.2.3,MacIntel,59.99880002,,,,,,,
,,,,,,,,,,,,,,,,,28.33333333,-71,20,75,-84.66666667,13.66666667,13.66666667,-0.302868924,-0.396263021,1,0,0,1.1661,submitButton,10.48989899,-0.302868924,-0.396263021,0,0,0,2,4,124,55,1,71,67312,N,180,2022-02-24_20h50.43.674,orientation adjustment blockN,2021.2.3,MacIntel,59.99880002,,,,,,,
,,,,,,,,,,,,,,,,,64.44444444,32,20,75,217.4444444,5.444444444,5.444444444,0.205303819,-0.304019097,1,0,0,1.6997,submitButton,10.44444444,-0.247673611,-0.398828125,0,0,0,2,5,125,16,1,32,67312,N,180,2022-02-24_20h50.43.674,orientation adjustment blockN,2021.2.3,MacIntel,59.99880002,,,,,,,
,,,,,,,,,,,,,,,,,-35,64,20,75,51,13,13,0.21984809,-0.294414063,1,0,0,0.2162,submitButton,10.4672619,-0.151506076,-0.420217014,0,0,0,2,6,126,48,1,64,67312,N,180,2022-02-24_20h50.43.674,orientation adjustment blockN,2021.2.3,MacIntel,59.99880002,,,,,,,
,,,,,,,,,,,,,,,,,72.22222222,67,20,75,235.2222222,11.77777778,11.77777778,-0.319513889,-0.400885417,1,0,0,1.9671,submitButton,10.47885939,-0.319513889,-0.400885417,0,0,0,2,7,127,51,1,67,67312,N,180,2022-02-24_20h50.43.674,orientation adjustment blockN,2021.2.3,MacIntel,59.99880002,,,,,,,
,,,,,,,,,,,,,,,,,46.66666667,39,20,75,28.66666667,10.33333333,10.33333333,-0.293611111,-0.395998264,1,0,0,1.8012,submitButton,10.47758285,-0.293611111,-0.395998264,0,0,0,2,8,128,23,1,39,67312,N,180,2022-02-24_20h50.43.674,orientation adjustment blockN,2021.2.3,MacIntel,59.99880002,,,,,,,
,,,,,,,,,,,,,,,,,71.66666667,-21,20,75,-43.33333333,22.33333333,22.33333333,0.381150174,-0.299227431,1,0,0,1.2669,submitButton,10.58067633,-0.213185764,-0.413815104,0,0,0,2,9,129,5,1,21,67312,N,180,2022-02-24_20h50.43.674,orientation adjustment blockN,2021.2.3,MacIntel,59.99880002,,,,,,,
,,,,,,,,,,,,,,,,,-38.33333333,-48,20,75,-228.3333333,0.333333333,0.333333333,0.372612847,-0.298428819,1,0,0,2.1162,submitButton,10.49233716,-0.330338542,-0.415073785,0,0,0,2,10,130,32,1,48,67312,N,180,2022-02-24_20h50.43.674,orientation adjustment blockN,2021.2.3,MacIntel,59.99880002,,,,,,,
,,,,,,,,,,,,,,,,,-47.77777778,-23,20,75,-31.77777778,8.777777778,8.777777778,-0.307378472,-0.381866319,1,0,0,0.8329,submitButton,10.47768281,-0.307378472,-0.381866319,0,0,0,2,11,131,7,1,23,67312,N,180,2022-02-24_20h50.43.674,orientation adjustment blockN,2021.2.3,MacIntel,59.99880002,,,,,,,
,,,,,,,,,,,,,,,,,-44.44444444,70,20,75,74.55555556,4.555555556,4.555555556,-0.288980035,-0.394140625,1,0,0,0.933,submitButton,10.42749529,-0.288980035,-0.394140625,0,0,0,2,12,132,54,1,70,67312,N,180,2022-02-24_20h50.43.674,orientation adjustment blockN,2021.2.3,MacIntel,59.99880002,,,,,,,
,,,,,,,,,,,,,,,,,-58.33333333,58,20,75,68.66666667,10.66666667,10.66666667,0.229652778,-0.30359809,1,0,0,1.0332,submitButton,10.42950514,-0.341145833,-0.416297743,0,0,0,2,13,133,42,1,58,67312,N,180,2022-02-24_20h50.43.674,orientation adjustment blockN,2021.2.3,MacIntel,59.99880002,,,,,,,
,,,,,,,,,,,,,,,,,53.33333333,-25,20,75,-48.66666667,23.66666667,23.66666667,0.450091146,-0.284032118,1,0,0,1.2322,submitButton,10.53981481,0.425477431,-0.392738715,1,0,0,2,14,134,9,1,25,67312,N,180,2022-02-24_20h50.43.674,orientation adjustment blockN,2021.2.3,MacIntel,59.99880002,continueButton,,,,,,
,,,,,,,,,,,,,,,,,-36.11111111,52,20,75,53.88888889,1.888888889,1.888888889,-0.22015625,-0.396970486,1,0,0,0.9334,submitButton,10.46831956,-0.22015625,-0.396970486,0,0,0,2,15,135,36,1,52,67312,N,180,2022-02-24_20h50.43.674,orientation adjustment blockN,2021.2.3,MacIntel,59.99880002,,,,,,,
,,,,,,,,,,,,,,,,,-26.66666667,-30,20,75,-56.66666667,26.66666667,26.66666667,-0.202751736,-0.403780382,1,0,0,0.6989,submitButton,10.6010929,-0.202751736,-0.403780382,0,0,0,2,16,136,14,1,30,67312,N,180,2022-02-24_20h50.43.674,orientation adjustment blockN,2021.2.3,MacIntel,59.99880002,,,,,,,
,,,,,,,,,,,,,,,,,54.44444444,-26,20,75,-33.55555556,7.555555556,7.555555556,0.357013889,-0.303385417,1,0,0,0.066,submitButton,10.57633243,-0.207074653,-0.405329861,0,0,0,2,17,137,10,1,26,67312,N,180,2022-02-24_20h50.43.674,orientation adjustment blockN,2021.2.3,MacIntel,59.99880002,,,,,,,
,,,,,,,,,,,,,,,,,-66.11111111,-45,20,75,-226.1111111,1.111111111,1.111111111,0.38266059,-0.303845486,1,0,0,0.3171,submitButton,10.5,-0.231111111,-0.401775174,0,0,0,2,18,138,29,1,45,67312,N,180,2022-02-24_20h50.43.674,orientation adjustment blockN,2021.2.3,MacIntel,59.99880002,,,,,,,
,,,,,,,,,,,,,,,,,-37.22222222,-55,20,75,-53.22222222,1.777777778,1.777777778,0.23546875,-0.308615451,1,0,0,0.6667,submitButton,10.43022222,-0.144288194,-0.401805556,0,0,0,2,19,139,39,1,55,67312,N,180,2022-02-24_20h50.43.674,orientation adjustment blockN,2021.2.3,MacIntel,59.99880002,,,,,,,
,,,,,,,,,,,,,,,,,-45,-43,20,75,-54,11,11,-0.191054687,-0.393098958,1,0,0,0.699,submitButton,10.43474427,-0.191054687,-0.393098958,0,0,0,2,20,140,27,1,43,67312,N,180,2022-02-24_20h50.43.674,orientation adjustment blockN,2021.2.3,MacIntel,59.99880002,,,,,,,
,,,,,,,,,,,,,,,,,28.88888889,-72,20,75,-67.11111111,4.888888889,4.888888889,-0.348342014,-0.426914063,1,0,0,1.0164,submitButton,10.39107612,-0.171671007,-0.343376736,0,0,0,2,21,141,56,1,72,67312,N,180,2022-02-24_20h50.43.674,orientation adjustment blockN,2021.2.3,MacIntel,59.99880002,,,,,,,
,,,,,,,,,,,,,,,,,55,-57,20,75,-64,7,7,-0.349782986,-0.405203993,1,0,0,1.5999,submitButton,10.36458333,-0.349782986,-0.404275174,0,0,0,2,22,142,41,1,57,67312,N,180,2022-02-24_20h50.43.674,orientation adjustment blockN,2021.2.3,MacIntel,59.99880002,,,,,,,
,,,,,,,,,,,,,,,,,41.66666667,44,20,75,25.66666667,18.33333333,18.33333333,0.377235243,-0.294809028,1,0,0,0.0828,submitButton,10.42635659,-0.346015625,-0.405078125,0,0,0,2,23,143,28,1,44,67312,N,180,2022-02-24_20h50.43.674,orientation adjustment blockN,2021.2.3,MacIntel,59.99880002,,,,,,,
,,,,,,,,,,,,,,,,,-66.66666667,46,20,75,-149.6666667,15.66666667,15.66666667,0.399613715,-0.302712674,1,0,0,0.2666,submitButton,10.46666667,-0.278159722,-0.406501736,0,0,0,2,24,144,30,1,46,67312,N,180,2022-02-24_20h50.43.674,orientation adjustment blockN,2021.2.3,MacIntel,59.99880002,,,,,,,
,,,,,,,,,,,,,,,,,-65.55555556,65,20,75,51.44444444,13.55555556,13.55555556,-0.290833333,-0.403229167,1,0,0,1.2666,submitButton,10.49024597,-0.290833333,-0.403229167,0,0,0,2,25,145,49,1,65,67312,N,180,2022-02-24_20h50.43.674,orientation adjustment blockN,2021.2.3,MacIntel,59.99880002,,,,,,,
,,,,,,,,,,,,,,,,,33.33333333,66,20,75,236.3333333,9.666666667,9.666666667,-0.34578125,-0.403919271,1,0,0,2.5171,submitButton,10.48400673,-0.34578125,-0.403919271,0,0,0,2,26,146,50,1,66,67312,N,180,2022-02-24_20h50.43.674,orientation adjustment blockN,2021.2.3,MacIntel,59.99880002,,,,,,,
,,,,,,,,,,,,,,,,,-72.22222222,16,20,75,-165.2222222,1.222222222,1.222222222,0.377196181,-0.299461806,1,0,0,1.4502,submitButton,10.41436926,-0.343806424,-0.406436632,0,0,0,2,27,147,0,1,16,67312,N,180,2022-02-24_20h50.43.674,orientation adjustment blockN,2021.2.3,MacIntel,59.99880002,,,,,,,
,,,,,,,,,,,,,,,,,-40,24,20,75,45,21,21,0.19577691,-0.309444444,1,0,0,1.0843,submitButton,10.4933665,-0.316519097,-0.400963542,0,0,0,2,28,148,8,1,24,67312,N,180,2022-02-24_20h50.43.674,orientation adjustment blockN,2021.2.3,MacIntel,59.99880002,,,,,,,
,,,,,,,,,,,,,,,,,21.11111111,59,20,75,41.11111111,17.88888889,17.88888889,0.378702257,-0.295824653,1,0,0,0.5336,submitButton,10.54814815,-0.360338542,-0.398940972,0,0,0,2,29,149,43,1,59,67312,N,180,2022-02-24_20h50.43.674,orientation adjustment blockN,2021.2.3,MacIntel,59.99880002,,,,,,,
,,,,,,,,,,,,,,,,,55,-20,20,75,-34,14,14,-0.345264757,-0.405980903,1,0,0,1.8162,submitButton,10.57352941,-0.345264757,-0.405980903,0,0,0,2,30,150,4,1,20,67312,N,180,2022-02-24_20h50.43.674,orientation adjustment blockN,2021.2.3,MacIntel,59.99880002,,,,,,,
,,,,,,,,,,,,,,,,,-47.77777778,54,20,75,50.22222222,3.777777778,3.777777778,-0.400073785,-0.408255208,1,0,0,0.8496,submitButton,10.52392539,-0.400073785,-0.408255208,0,0,0,2,31,151,38,1,54,67312,N,180,2022-02-24_20h50.43.674,orientation adjustment blockN,2021.2.3,MacIntel,59.99880002,,,,,,,
,,,,,,,,,,,,,,,,,33.88888889,-33,20,75,-40.11111111,7.111111111,7.111111111,-0.264869792,-0.403454861,1,0,0,0.8338,submitButton,10.49919485,-0.264869792,-0.403454861,0,0,0,2,32,152,17,1,33,67312,N,180,2022-02-24_20h50.43.674,orientation adjustment blockN,2021.2.3,MacIntel,59.99880002,,,,,,,
,,,,,,,,,,,,,,,,,20.55555556,18,20,75,20.55555556,2.555555556,2.555555556,0.38828125,-0.327738715,1,0,0,0.3006,submitButton,10.44204636,-0.219105903,-0.383880208,0,0,0,2,33,153,2,1,18,67312,N,180,2022-02-24_20h50.43.674,orientation adjustment blockN,2021.2.3,MacIntel,59.99880002,,,,,,,
,,,,,,,,,,,,,,,,,-42.77777778,22,20,75,30.22222222,8.222222222,8.222222222,-0.235269097,-0.412643229,1,0,0,1.2498,submitButton,10.42619048,-0.235269097,-0.412643229,0,0,0,2,34,154,6,1,22,67312,N,180,2022-02-24_20h50.43.674,orientation adjustment blockN,2021.2.3,MacIntel,59.99880002,,,,,,,
,,,,,,,,,,,,,,,,,20.55555556,-56,20,75,-52.44444444,3.555555556,3.555555556,-0.289396701,-0.396627604,1,0,0,0.6165,submitButton,10.37746257,-0.289396701,-0.396627604,0,0,0,2,35,155,40,1,56,67312,N,180,2022-02-24_20h50.43.674,orientation adjustment blockN,2021.2.3,MacIntel,59.99880002,,,,,,,
,,,,,,,,,,,,,,,,,41.11111111,50,20,75,43.11111111,6.888888889,6.888888889,-0.193511285,-0.406076389,1,0,0,1.4835,submitButton,10.35289515,-0.193511285,-0.406076389,0,0,0,2,36,156,34,1,50,67312,N,180,2022-02-24_20h50.43.674,orientation adjustment blockN,2021.2.3,MacIntel,59.99880002,,,,,,,
,,,,,,,,,,,,,,,,,40.55555556,41,20,75,49.55555556,8.555555556,8.555555556,-0.32328125,-0.402539062,1,0,0,1.0164,submitButton,10.34032634,-0.04922309,-0.384361979,0,0,0,2,37,157,25,1,41,67312,N,180,2022-02-24_20h50.43.674,orientation adjustment blockN,2021.2.3,MacIntel,59.99880002,,,,,,,
,,,,,,,,,,,,,,,,,-72.22222222,61,20,75,42.77777778,18.22222222,18.22222222,-0.289830729,-0.393871528,1,0,0,1.3994,submitButton,10.39506173,-0.289830729,-0.393871528,0,0,0,2,38,158,45,1,61,67312,N,180,2022-02-24_20h50.43.674,orientation adjustment blockN,2021.2.3,MacIntel,59.99880002,,,,,,,
,,,,,,,,,,,,,,,,,28.88888889,27,20,75,28.88888889,1.888888889,1.888888889,-0.377860243,-0.404596354,1,0,0,0.7833,submitButton,10.33639847,-0.377860243,-0.404596354,0,0,0,2,39,159,11,1,27,67312,N,180,2022-02-24_20h50.43.674,orientation adjustment blockN,2021.2.3,MacIntel,59.99880002,,,,,,,
,,,,,,,,,,,,,,,,,47.22222222,63,20,75,58.22222222,4.777777778,4.777777778,0.367413194,-0.292239583,1,0,0,0.0321,submitButton,10.29832572,-0.355750868,-0.40608941,0,0,0,2,40,160,47,1,63,67312,N,180,2022-02-24_20h50.43.674,orientation adjustment blockN,2021.2.3,MacIntel,59.99880002,,,,,,,
,,,,,,,,,,,,,,,,,52.22222222,-49,20,75,-52.77777778,3.777777778,3.777777778,-0.301996528,-0.414244792,1,0,0,1.3666,submitButton,10.25396825,-0.301996528,-0.414244792,0,0,0,2,41,161,33,1,49,67312,N,180,2022-02-24_20h50.43.674,orientation adjustment blockN,2021.2.3,MacIntel,59.99880002,,,,,,,
,,,,,,,,,,,,,,,,,-38.33333333,31,20,75,36.66666667,5.666666667,5.666666667,-0.354448785,-0.401171875,1,0,0,0.9168,submitButton,10.22297297,-0.354448785,-0.401171875,0,0,0,2,42,162,15,1,31,67312,N,180,2022-02-24_20h50.43.674,orientation adjustment blockN,2021.2.3,MacIntel,59.99880002,,,,,,,
,,,,,,,,,,,,,,,,,70.55555556,-53,20,75,-41.44444444,11.55555556,11.55555556,-0.344092882,-0.388802083,1,0,0,1.5492,submitButton,10.23191648,-0.344092882,-0.388802083,0,0,0,2,43,163,37,1,53,67312,N,180,2022-02-24_20h50.43.674,orientation adjustment blockN,2021.2.3,MacIntel,59.99880002,,,,,,,
,,,,,,,,,,,,,,,,,-70.55555556,40,20,75,40.44444444,0.444444444,0.444444444,-0.329140625,-0.395928819,1,0,0,1.4168,submitButton,10.16666667,-0.329140625,-0.395928819,0,0,0,2,44,164,24,1,40,67312,N,180,2022-02-24_20h50.43.674,orientation adjustment blockN,2021.2.3,MacIntel,59.99880002,,,,,,,
,,,,,,,,,,,,,,,,,63.88888889,60,20,75,234.8888889,5.111111111,5.111111111,0.238289931,-0.313823785,1,0,0,1.5668,submitButton,10.13318617,-0.311085069,-0.39890625,0,0,0,2,45,165,44,1,60,67312,N,180,2022-02-24_20h50.43.674,orientation adjustment blockN,2021.2.3,MacIntel,59.99880002,,,,,,,
,,,,,,,,,,,,,,,,,35.55555556,69,20,75,247.5555556,1.444444444,1.444444444,0.206883681,-0.304353299,1,0,0,2.0519,submitButton,10.07602339,-0.294965278,-0.39921875,0,0,0,2,46,166,53,1,69,67312,N,180,2022-02-24_20h50.43.674,orientation adjustment blockN,2021.2.3,MacIntel,59.99880002,,,,,,,
,,,,,,,,,,,,,,,,,37.22222222,-68,20,75,-62.77777778,5.222222222,5.222222222,-0.30484809,-0.414991319,1,0,0,0.899,submitButton,10.0442992,-0.30484809,-0.414991319,0,0,0,2,47,167,52,1,68,67312,N,180,2022-02-24_20h50.43.674,orientation adjustment blockN,2021.2.3,MacIntel,59.99880002,,,,,,,
,,,,,,,,,,,,,,,,,-59.44444444,-35,20,75,-49.44444444,14.44444444,14.44444444,-0.299769965,-0.404822049,1,0,0,1.2153,submitButton,10.07287157,-0.299769965,-0.404822049,0,0,0,2,48,168,19,1,35,67312,N,180,2022-02-24_20h50.43.674,orientation adjustment blockN,2021.2.3,MacIntel,59.99880002,,,,,,,
,,,,,,,,,,,,,,,,,32.22222222,-28,20,75,-58.77777778,30.77777778,30.77777778,0.392044271,-0.303945313,1,0,0,0.0501,submitButton,10.20645161,-0.335221354,-0.390707465,0,0,0,2,49,169,12,1,28,67312,N,180,2022-02-24_20h50.43.674,orientation adjustment blockN,2021.2.3,MacIntel,59.99880002,,,,,,,
,,,,,,,,,,,,,,,,,25.55555556,75,20,75,50.55555556,24.44444444,24.44444444,-0.327929688,-0.405490451,1,0,0,1.2831,submitButton,10.2977208,-0.327929688,-0.405490451,0,0,0,2,50,170,59,1,75,67312,N,180,2022-02-24_20h50.43.674,orientation adjustment blockN,2021.2.3,MacIntel,59.99880002,,,,,,,
,,,,,,,,,,,,,,,,,38.33333333,-51,20,75,-55.66666667,4.666666667,4.666666667,0.418723958,-0.292847222,1,0,0,0.1332,submitButton,10.26185421,-0.208923611,-0.400234375,0,0,0,2,51,171,35,1,51,67312,N,180,2022-02-24_20h50.43.674,orientation adjustment blockN,2021.2.3,MacIntel,59.99880002,,,,,,,
,,,,,,,,,,,,,,,,,38.88888889,29,20,75,10.88888889,18.11111111,18.11111111,0.386614583,-0.304696181,1,0,0,0.1171,submitButton,10.31153305,-0.28984809,-0.39828125,0,0,0,2,52,172,13,1,29,67312,N,180,2022-02-24_20h50.43.674,orientation adjustment blockN,2021.2.3,MacIntel,59.99880002,,,,,,,
,,,,,,,,,,,,,,,,,-72.77777778,-62,20,75,-253.7777778,11.77777778,11.77777778,-0.317777778,-0.397469618,1,0,0,2.2505,submitButton,10.32075472,-0.317777778,-0.397469618,0,0,0,2,53,173,46,1,62,67312,N,180,2022-02-24_20h50.43.674,orientation adjustment blockN,2021.2.3,MacIntel,59.99880002,,,,,,,
,,,,,,,,,,,,,,,,,26.66666667,74,20,75,56.66666667,17.33333333,17.33333333,-0.305182292,-0.390325521,1,0,0,1.0163,submitButton,10.36458333,-0.305182292,-0.390325521,0,0,0,2,54,174,58,1,74,67312,N,180,2022-02-24_20h50.43.674,orientation adjustment blockN,2021.2.3,MacIntel,59.99880002,,,,,,,
,,,,,,,,,,,,,,,,,-27.77777778,37,20,75,26.22222222,10.77777778,10.77777778,-0.293250868,-0.406501736,1,0,0,0.517,submitButton,10.36714976,-0.293250868,-0.406501736,0,0,0,2,55,175,21,1,37,67312,N,180,2022-02-24_20h50.43.674,orientation adjustment blockN,2021.2.3,MacIntel,59.99880002,,,,,,,
,,,,,,,,,,,,,,,,,-28.88888889,47,20,75,34.11111111,12.88888889,12.88888889,0.179205729,-0.301540799,1,0,0,0.0501,submitButton,10.38271605,-0.330533854,-0.386158854,0,0,0,2,56,176,31,1,47,67312,N,180,2022-02-24_20h50.43.674,orientation adjustment blockN,2021.2.3,MacIntel,59.99880002,,,,,,,
,,,,,,,,,,,,,,,,,63.33333333,38,20,75,214.3333333,3.666666667,3.666666667,0.223346354,-0.308454861,1,0,0,0.149,submitButton,10.34151329,-0.233932292,-0.409027778,0,0,0,2,57,177,22,1,38,67312,N,180,2022-02-24_20h50.43.674,orientation adjustment blockN,2021.2.3,MacIntel,59.99880002,,,,,,,
,,,,,,,,,,,,,,,,,25.55555556,42,20,75,35.55555556,6.444444444,6.444444444,-0.37953125,-0.394322917,1,0,0,1.3159,submitButton,10.31775068,-0.37953125,-0.394322917,0,0,0,2,58,178,26,1,42,67312,N,180,2022-02-24_20h50.43.674,orientation adjustment blockN,2021.2.3,MacIntel,59.99880002,,,,,,,
,,,,,,,,,,,,,,,,,-20,-34,20,75,-32,2,2,0.198216146,-0.283337674,1,0,0,0.0158,submitButton,10.26734007,-0.296419271,-0.398980035,0,0,0,2,59,179,18,1,34,67312,N,180,2022-02-24_20h50.43.674,orientation adjustment blockN,2021.2.3,MacIntel,59.99880002,,,,,,,
,,,,,,,,,,,,,,,,,,,,,,,,,,,,,,,,,,,,,,,,,,,67312,N,180,2022-02-24_20h50.43.674,orientation adjustment blockN,2021.2.3,MacIntel,59.99880002,,0.313984375,-0.404418403,1,0,0,EndButtonTxt
