consentMouse1.x,consentMouse1.y,consentMouse1.leftButton,consentMouse1.midButton,consentMouse1.rightButton,consentMouse1.clicked_name,consent_Mouse.x,consent_Mouse.y,consent_Mouse.leftButton,consent_Mouse.midButton,consent_Mouse.rightButton,consent_Mouse.clicked_name,startMouse.x,startMouse.y,startMouse.leftButton,startMouse.midButton,startMouse.rightButton,start_distance,fixedOri,minimalDistance,maxOri,this_ori,accuracy,presented_accuracy,submitMouse.x,submitMouse.y,submitMouse.leftButton,submitMouse.midButton,submitMouse.rightButton,submitMouse.time,submitMouse.clicked_name,block_accuracy,continueMouse.x,continueMouse.y,continueMouse.leftButton,continueMouse.midButton,continueMouse.rightButton,trials.thisRepN,trials.thisTrialN,trials.thisN,trials.thisIndex,trials.ran,startOri,participant,condition,nTrials,date,expName,psychopyVersion,OS,frameRate,continueMouse.clicked_name,EndButtonMouse.x,EndButtonMouse.y,EndButtonMouse.leftButton,EndButtonMouse.midButton,EndButtonMouse.rightButton,EndButtonMouse.clicked_name
0.420987654,-0.401234568,1,0,0,consent_button1,0.409876543,-0.392592593,1,0,0,consent_button,0.196296296,-0.356790123,1,0,0,-56.66666667,32,20,75,28.33333333,3.666666667,3.666666667,0.202469136,-0.304938272,1,0,0,3.307,submitButton,3.666666667,-0.538271605,-0.403703704,0,0,0,0,0,0,16,1,32,67501,N,180,2022-02-16_15h22.35.008,orientation adjustment blockN,2021.2.3,MacIntel,62.5,,,,,,,
,,,,,,,,,,,,,,,,,24.44444444,-28,20,75,-27.55555556,0.444444444,0.444444444,0.403703704,-0.291358025,1,0,0,0.197,submitButton,2.055555556,-0.519753086,-0.409876543,0,0,0,0,1,1,12,1,28,67501,N,180,2022-02-16_15h22.35.008,orientation adjustment blockN,2021.2.3,MacIntel,62.5,,,,,,,
,,,,,,,,,,,,,,,,,-71.66666667,-61,20,75,-221.6666667,19.33333333,19.33333333,0.402469136,-0.298765432,1,0,0,0.372,submitButton,7.814814815,-0.537037037,-0.397530864,0,0,0,0,2,2,45,1,61,67501,N,180,2022-02-16_15h22.35.008,orientation adjustment blockN,2021.2.3,MacIntel,62.5,,,,,,,
,,,,,,,,,,,,,,,,,61.11111111,-65,20,75,-24.88888889,40.11111111,40.11111111,0.40617284,-0.314814815,1,0,0,0.054,submitButton,40.11111111,-0.52962963,-0.397530864,0,0,0,0,3,3,49,1,65,67501,N,180,2022-02-16_15h22.35.008,orientation adjustment blockN,2021.2.3,MacIntel,62.5,,,,,,,
,,,,,,,,,,,,,,,,,-36.66666667,51,20,75,31.33333333,19.66666667,19.66666667,0.196296296,-0.308641975,1,0,0,0.09,submitButton,29.88888889,-0.52962963,-0.397530864,0,0,0,0,4,4,35,1,51,67501,N,180,2022-02-16_15h22.35.008,orientation adjustment blockN,2021.2.3,MacIntel,62.5,,,,,,,
,,,,,,,,,,,,,,,,,-54.44444444,-30,20,75,-196.4444444,13.55555556,13.55555556,0.379012346,-0.322222222,1,0,0,0.152,submitButton,24.44444444,-0.50617284,-0.39382716,0,0,0,0,5,5,14,1,30,67501,N,180,2022-02-16_15h22.35.008,orientation adjustment blockN,2021.2.3,MacIntel,62.5,,,,,,,
,,,,,,,,,,,,,,,,,61.66666667,-16,20,75,-24.33333333,8.333333333,8.333333333,-0.528395062,-0.407407407,1,0,0,2.841,submitButton,8.333333333,-0.528395062,-0.407407407,0,0,0,0,6,6,0,1,16,67501,N,180,2022-02-16_15h22.35.008,orientation adjustment blockN,2021.2.3,MacIntel,62.5,,,,,,,
,,,,,,,,,,,,,,,,,-52.22222222,68,20,75,34.77777778,33.22222222,33.22222222,0.424691358,-0.301234568,1,0,0,0.662,submitButton,20.77777778,-0.513580247,-0.395061728,0,0,0,0,7,7,52,1,68,67501,N,180,2022-02-16_15h22.35.008,orientation adjustment blockN,2021.2.3,MacIntel,62.5,,,,,,,
,,,,,,,,,,,,,,,,,-75,37,20,75,31,6,6,0.192592593,-0.322222222,1,0,0,0.844,submitButton,15.85185185,-0.508641975,-0.402469136,0,0,0,0,8,8,21,1,37,67501,N,180,2022-02-16_15h22.35.008,orientation adjustment blockN,2021.2.3,MacIntel,62.5,,,,,,,
,,,,,,,,,,,,,,,,,-59.44444444,-72,20,75,-242.4444444,9.555555556,9.555555556,0.427160494,-0.301234568,1,0,0,0.595,submitButton,9.555555556,-0.532098765,-0.403703704,0,0,0,0,9,9,56,1,72,67501,N,180,2022-02-16_15h22.35.008,orientation adjustment blockN,2021.2.3,MacIntel,62.5,,,,,,,
,,,,,,,,,,,,,,,,,62.77777778,70,20,75,225.7777778,24.22222222,24.22222222,0.208641975,-0.303703704,1,0,0,1.487,submitButton,16.88888889,-0.524691358,-0.391358025,0,0,0,0,10,10,54,1,70,67501,N,180,2022-02-16_15h22.35.008,orientation adjustment blockN,2021.2.3,MacIntel,62.5,,,,,,,
,,,,,,,,,,,,,,,,,46.66666667,-45,20,75,-36.33333333,8.666666667,8.666666667,0.418518519,-0.313580247,1,0,0,0.545,submitButton,14.14814815,-0.528395062,-0.407407407,0,0,0,0,11,11,29,1,45,67501,N,180,2022-02-16_15h22.35.008,orientation adjustment blockN,2021.2.3,MacIntel,62.5,,,,,,,
,,,,,,,,,,,,,,,,,28.88888889,-17,20,75,-23.11111111,6.111111111,6.111111111,0.414814815,-0.314814815,1,0,0,0.123,submitButton,6.111111111,-0.527160494,-0.391358025,0,0,0,0,12,12,1,1,17,67501,N,180,2022-02-16_15h22.35.008,orientation adjustment blockN,2021.2.3,MacIntel,62.5,,,,,,,
,,,,,,,,,,,,,,,,,25.55555556,64,20,75,221.5555556,22.44444444,22.44444444,0.449382716,-0.288888889,1,0,0,2.907,submitButton,14.27777778,-0.532098765,-0.40617284,0,0,0,0,13,13,48,1,64,67501,N,180,2022-02-16_15h22.35.008,orientation adjustment blockN,2021.2.3,MacIntel,62.5,,,,,,,
,,,,,,,,,,,,,,,,,-27.22222222,-18,20,75,-27.22222222,9.222222222,9.222222222,0.191358025,-0.307407407,1,0,0,0.146,submitButton,12.59259259,0.444444444,-0.407407407,1,0,0,0,14,14,2,1,18,67501,N,180,2022-02-16_15h22.35.008,orientation adjustment blockN,2021.2.3,MacIntel,62.5,continueButton,,,,,,
,,,,,,,,,,,,,,,,,37.22222222,46,20,75,50.22222222,4.222222222,4.222222222,0.440740741,-0.324691358,1,0,0,0.154,submitButton,4.222222222,-0.537037037,-0.396296296,0,0,0,0,15,15,30,1,46,67501,N,180,2022-02-16_15h22.35.008,orientation adjustment blockN,2021.2.3,MacIntel,62.5,,,,,,,
,,,,,,,,,,,,,,,,,51.66666667,59,20,75,64.66666667,5.666666667,5.666666667,0.398765432,-0.319753086,1,0,0,0.177,submitButton,4.944444444,-0.522222222,-0.403703704,0,0,0,0,16,16,43,1,59,67501,N,180,2022-02-16_15h22.35.008,orientation adjustment blockN,2021.2.3,MacIntel,62.5,,,,,,,
,,,,,,,,,,,,,,,,,-25,48,20,75,46,2,2,0.42345679,-0.309876543,1,0,0,0.405,submitButton,3.962962963,-0.527160494,-0.402469136,0,0,0,0,17,17,32,1,48,67501,N,180,2022-02-16_15h22.35.008,orientation adjustment blockN,2021.2.3,MacIntel,62.5,,,,,,,
,,,,,,,,,,,,,,,,,-66.66666667,19,20,75,-146.6666667,14.33333333,14.33333333,0.456790123,-0.317283951,1,0,0,0.03,submitButton,6.555555556,-0.528395062,-0.395061728,0,0,0,0,18,18,3,1,19,67501,N,180,2022-02-16_15h22.35.008,orientation adjustment blockN,2021.2.3,MacIntel,62.5,,,,,,,
,,,,,,,,,,,,,,,,,57.22222222,66,20,75,68.22222222,2.222222222,2.222222222,0.414814815,-0.311111111,1,0,0,0.283,submitButton,5.688888889,-0.558024691,-0.402469136,0,0,0,0,19,19,50,1,66,67501,N,180,2022-02-16_15h22.35.008,orientation adjustment blockN,2021.2.3,MacIntel,62.5,,,,,,,
,,,,,,,,,,,,,,,,,-46.66666667,23,20,75,35.33333333,12.33333333,12.33333333,0.430864198,-0.301234568,1,0,0,0.655,submitButton,6.796296296,-0.533333333,-0.395061728,0,0,0,0,20,20,7,1,23,67501,N,180,2022-02-16_15h22.35.008,orientation adjustment blockN,2021.2.3,MacIntel,62.5,,,,,,,
,,,,,,,,,,,,,,,,,58.88888889,-35,20,75,-41.11111111,6.111111111,6.111111111,0.42962963,-0.318518519,1,0,0,1.04,submitButton,6.698412698,-0.492592593,-0.403703704,0,0,0,0,21,21,19,1,35,67501,N,180,2022-02-16_15h22.35.008,orientation adjustment blockN,2021.2.3,MacIntel,62.5,,,,,,,
,,,,,,,,,,,,,,,,,-31.66666667,44,20,75,35.33333333,8.666666667,8.666666667,-0.52345679,-0.395061728,1,0,0,1.11,submitButton,6.944444444,-0.538271605,-0.388888889,0,0,0,0,22,22,28,1,44,67501,N,180,2022-02-16_15h22.35.008,orientation adjustment blockN,2021.2.3,MacIntel,62.5,,,,,,,
,,,,,,,,,,,,,,,,,-53.88888889,-43,20,75,-211.8888889,11.11111111,11.11111111,0.209876543,-0.283950617,1,0,0,2.991,submitButton,7.407407407,-0.530864198,-0.397530864,0,0,0,0,23,23,27,1,43,67501,N,180,2022-02-16_15h22.35.008,orientation adjustment blockN,2021.2.3,MacIntel,62.5,,,,,,,
,,,,,,,,,,,,,,,,,-50.55555556,53,20,75,33.44444444,19.55555556,19.55555556,0.20617284,-0.313580247,1,0,0,0.247,submitButton,8.622222222,-0.543209877,-0.390123457,0,0,0,0,24,24,37,1,53,67501,N,180,2022-02-16_15h22.35.008,orientation adjustment blockN,2021.2.3,MacIntel,62.5,,,,,,,
,,,,,,,,,,,,,,,,,45,-75,20,75,-71,4,4,0.411111111,-0.309876543,1,0,0,0.088,submitButton,8.202020202,-0.544444444,-0.397530864,0,0,0,0,25,25,59,1,75,67501,N,180,2022-02-16_15h22.35.008,orientation adjustment blockN,2021.2.3,MacIntel,62.5,,,,,,,
,,,,,,,,,,,,,,,,,-63.33333333,-58,20,75,-260.3333333,22.33333333,22.33333333,0.418518519,-0.307407407,1,0,0,0.072,submitButton,9.37962963,-0.52962963,-0.385185185,0,0,0,0,26,26,42,1,58,67501,N,180,2022-02-16_15h22.35.008,orientation adjustment blockN,2021.2.3,MacIntel,62.5,,,,,,,
,,,,,,,,,,,,,,,,,-47.22222222,31,20,75,26.77777778,4.222222222,4.222222222,0.197530864,-0.304938272,1,0,0,0.795,submitButton,8.982905983,-0.486419753,-0.37654321,0,0,0,0,27,27,15,1,31,67501,N,180,2022-02-16_15h22.35.008,orientation adjustment blockN,2021.2.3,MacIntel,62.5,,,,,,,
,,,,,,,,,,,,,,,,,-68.33333333,62,20,75,49.66666667,12.33333333,12.33333333,0.202469136,-0.312345679,1,0,0,0.452,submitButton,9.222222222,-0.516049383,-0.402469136,0,0,0,0,28,28,46,1,62,67501,N,180,2022-02-16_15h22.35.008,orientation adjustment blockN,2021.2.3,MacIntel,62.5,,,,,,,
,,,,,,,,,,,,,,,,,-50.55555556,-50,20,75,-217.5555556,12.44444444,12.44444444,0.175308642,-0.313580247,1,0,0,2.136,submitButton,9.437037037,0.445679012,-0.392592593,1,0,0,0,29,29,34,1,50,67501,N,180,2022-02-16_15h22.35.008,orientation adjustment blockN,2021.2.3,MacIntel,62.5,continueButton,,,,,,
,,,,,,,,,,,,,,,,,-67.77777778,-67,20,75,-68.77777778,1.777777778,1.777777778,0.216049383,-0.296296296,1,0,0,0.426,submitButton,8.958333333,-0.555555556,-0.401234568,0,0,0,0,30,30,51,1,67,67501,N,180,2022-02-16_15h22.35.008,orientation adjustment blockN,2021.2.3,MacIntel,62.5,,,,,,,
,,,,,,,,,,,,,,,,,52.22222222,-40,20,75,130.2222222,9.777777778,9.777777778,0.190123457,-0.307407407,1,0,0,1.501,submitButton,9.006535948,-0.511111111,-0.396296296,0,0,0,0,31,31,24,1,40,67501,N,180,2022-02-16_15h22.35.008,orientation adjustment blockN,2021.2.3,MacIntel,62.5,,,,,,,
,,,,,,,,,,,,,,,,,56.11111111,60,20,75,59.11111111,0.888888889,0.888888889,0.418518519,-0.316049383,1,0,0,0.775,submitButton,8.555555556,-0.508641975,-0.409876543,0,0,0,0,32,32,44,1,60,67501,N,180,2022-02-16_15h22.35.008,orientation adjustment blockN,2021.2.3,MacIntel,62.5,,,,,,,
,,,,,,,,,,,,,,,,,48.88888889,36,20,75,40.88888889,4.888888889,4.888888889,0.420987654,-0.320987654,1,0,0,0.712,submitButton,8.362573099,-0.527160494,-0.39382716,0,0,0,0,33,33,20,1,36,67501,N,180,2022-02-16_15h22.35.008,orientation adjustment blockN,2021.2.3,MacIntel,62.5,,,,,,,
,,,,,,,,,,,,,,,,,-57.77777778,-52,20,75,-47.77777778,4.222222222,4.222222222,0.198765432,-0.309876543,1,0,0,0.711,submitButton,8.155555556,-0.539506173,-0.39382716,0,0,0,0,34,34,36,1,52,67501,N,180,2022-02-16_15h22.35.008,orientation adjustment blockN,2021.2.3,MacIntel,62.5,,,,,,,
,,,,,,,,,,,,,,,,,66.66666667,-24,20,75,134.6666667,21.33333333,21.33333333,0.188888889,-0.288888889,1,0,0,1.094,submitButton,8.783068783,-0.534567901,-0.381481481,0,0,0,0,35,35,8,1,24,67501,N,180,2022-02-16_15h22.35.008,orientation adjustment blockN,2021.2.3,MacIntel,62.5,,,,,,,
,,,,,,,,,,,,,,,,,30,73,20,75,53,20,20,0.382716049,-0.286419753,1,0,0,0.626,submitButton,9.292929293,-0.527160494,-0.40617284,0,0,0,0,36,36,57,1,73,67501,N,180,2022-02-16_15h22.35.008,orientation adjustment blockN,2021.2.3,MacIntel,62.5,,,,,,,
,,,,,,,,,,,,,,,,,-57.22222222,25,20,75,-145.2222222,9.777777778,9.777777778,0.414814815,-0.309876543,1,0,0,1.476,submitButton,9.314009662,-0.549382716,-0.396296296,0,0,0,0,37,37,9,1,25,67501,N,180,2022-02-16_15h22.35.008,orientation adjustment blockN,2021.2.3,MacIntel,62.5,,,,,,,
,,,,,,,,,,,,,,,,,-41.66666667,42,20,75,33.33333333,8.666666667,8.666666667,0.39382716,-0.313580247,1,0,0,0.071,submitButton,9.287037037,-0.52345679,-0.397530864,0,0,0,0,38,38,26,1,42,67501,N,180,2022-02-16_15h22.35.008,orientation adjustment blockN,2021.2.3,MacIntel,62.5,,,,,,,
,,,,,,,,,,,,,,,,,-32.77777778,-71,20,75,-230.7777778,20.22222222,20.22222222,0.175308642,-0.295061728,1,0,0,2.462,submitButton,9.724444444,-0.511111111,-0.396296296,0,0,0,0,39,39,55,1,71,67501,N,180,2022-02-16_15h22.35.008,orientation adjustment blockN,2021.2.3,MacIntel,62.5,,,,,,,
,,,,,,,,,,,,,,,,,-41.66666667,-27,20,75,-38.66666667,11.66666667,11.66666667,0.2,-0.309876543,1,0,0,0.047,submitButton,9.799145299,-0.545679012,-0.382716049,0,0,0,0,40,40,11,1,27,67501,N,180,2022-02-16_15h22.35.008,orientation adjustment blockN,2021.2.3,MacIntel,62.5,,,,,,,
,,,,,,,,,,,,,,,,,-38.33333333,34,20,75,29.66666667,4.333333333,4.333333333,0.216049383,-0.313580247,1,0,0,0.163,submitButton,9.596707819,-0.538271605,-0.388888889,0,0,0,0,41,41,18,1,34,67501,N,180,2022-02-16_15h22.35.008,orientation adjustment blockN,2021.2.3,MacIntel,62.5,,,,,,,
,,,,,,,,,,,,,,,,,-69.44444444,54,20,75,36.55555556,17.44444444,17.44444444,0.198765432,-0.3,1,0,0,1.319,submitButton,9.876984127,-0.537037037,-0.392592593,0,0,0,0,42,42,38,1,54,67501,N,180,2022-02-16_15h22.35.008,orientation adjustment blockN,2021.2.3,MacIntel,62.5,,,,,,,
,,,,,,,,,,,,,,,,,-33.33333333,-26,20,75,-41.33333333,15.33333333,15.33333333,0.417283951,-0.309876543,1,0,0,0.91,submitButton,10.0651341,-0.559259259,-0.398765432,0,0,0,0,43,43,10,1,26,67501,N,180,2022-02-16_15h22.35.008,orientation adjustment blockN,2021.2.3,MacIntel,62.5,,,,,,,
,,,,,,,,,,,,,,,,,54.44444444,33,20,75,213.4444444,0.444444444,0.444444444,0.15308642,-0.287654321,1,0,0,1.888,submitButton,9.744444444,0.475308642,-0.409876543,1,0,0,0,44,44,17,1,33,67501,N,180,2022-02-16_15h22.35.008,orientation adjustment blockN,2021.2.3,MacIntel,62.5,continueButton,,,,,,
,,,,,,,,,,,,,,,,,-48.88888889,56,20,75,43.11111111,12.88888889,12.88888889,0.169135802,-0.318518519,1,0,0,0.455,submitButton,9.845878136,-0.524691358,-0.39382716,0,0,0,0,45,45,40,1,56,67501,N,180,2022-02-16_15h22.35.008,orientation adjustment blockN,2021.2.3,MacIntel,62.5,,,,,,,
,,,,,,,,,,,,,,,,,-35,21,20,75,20,1,1,-0.544444444,-0.379012346,1,0,0,1.171,submitButton,9.569444444,-0.544444444,-0.379012346,0,0,0,0,46,46,5,1,21,67501,N,180,2022-02-16_15h22.35.008,orientation adjustment blockN,2021.2.3,MacIntel,62.5,,,,,,,
,,,,,,,,,,,,,,,,,66.11111111,-49,20,75,-38.88888889,10.11111111,10.11111111,0.403703704,-0.324691358,1,0,0,0.43,submitButton,9.585858586,-0.537037037,-0.391358025,0,0,0,0,47,47,33,1,49,67501,N,180,2022-02-16_15h22.35.008,orientation adjustment blockN,2021.2.3,MacIntel,62.5,,,,,,,
,,,,,,,,,,,,,,,,,66.11111111,-47,20,75,-29.88888889,17.11111111,17.11111111,0.204938272,-0.298765432,1,0,0,0.971,submitButton,9.807189542,-0.54691358,-0.397530864,0,0,0,0,48,48,31,1,47,67501,N,180,2022-02-16_15h22.35.008,orientation adjustment blockN,2021.2.3,MacIntel,62.5,,,,,,,
,,,,,,,,,,,,,,,,,-67.22222222,63,20,75,47.77777778,15.22222222,15.22222222,0.201234568,-0.292592593,1,0,0,0.412,submitButton,9.961904762,-0.549382716,-0.395061728,0,0,0,0,49,49,47,1,63,67501,N,180,2022-02-16_15h22.35.008,orientation adjustment blockN,2021.2.3,MacIntel,62.5,,,,,,,
,,,,,,,,,,,,,,,,,58.33333333,57,20,75,221.3333333,15.66666667,15.66666667,0.179012346,-0.290123457,1,0,0,1.405,submitButton,10.12037037,-0.540740741,-0.385185185,0,0,0,0,50,50,41,1,57,67501,N,180,2022-02-16_15h22.35.008,orientation adjustment blockN,2021.2.3,MacIntel,62.5,,,,,,,
,,,,,,,,,,,,,,,,,52.77777778,-55,20,75,-39.22222222,15.77777778,15.77777778,0.428395062,-0.307407407,1,0,0,0.106,submitButton,10.27327327,-0.539506173,-0.387654321,0,0,0,0,51,51,39,1,55,67501,N,180,2022-02-16_15h22.35.008,orientation adjustment blockN,2021.2.3,MacIntel,62.5,,,,,,,
,,,,,,,,,,,,,,,,,41.11111111,22,20,75,208.1111111,6.111111111,6.111111111,0.201234568,-0.295061728,1,0,0,1.913,submitButton,10.16374269,-0.533333333,-0.374074074,0,0,0,0,52,52,6,1,22,67501,N,180,2022-02-16_15h22.35.008,orientation adjustment blockN,2021.2.3,MacIntel,62.5,,,,,,,
,,,,,,,,,,,,,,,,,65.55555556,-38,20,75,-37.44444444,0.555555556,0.555555556,0.4,-0.296296296,1,0,0,0.855,submitButton,9.917378917,-0.54691358,-0.403703704,0,0,0,0,53,53,22,1,38,67501,N,180,2022-02-16_15h22.35.008,orientation adjustment blockN,2021.2.3,MacIntel,62.5,,,,,,,
,,,,,,,,,,,,,,,,,-59.44444444,29,20,75,33.55555556,4.555555556,4.555555556,0.420987654,-0.303703704,1,0,0,1.178,submitButton,9.783333333,-0.540740741,-0.379012346,0,0,0,0,54,54,13,1,29,67501,N,180,2022-02-16_15h22.35.008,orientation adjustment blockN,2021.2.3,MacIntel,62.5,,,,,,,
,,,,,,,,,,,,,,,,,33.33333333,74,20,75,241.3333333,12.66666667,12.66666667,0.187654321,-0.288888889,1,0,0,2.123,submitButton,9.853658537,-0.57037037,-0.39382716,0,0,0,0,55,55,58,1,74,67501,N,180,2022-02-16_15h22.35.008,orientation adjustment blockN,2021.2.3,MacIntel,62.5,,,,,,,
,,,,,,,,,,,,,,,,,48.33333333,20,20,75,49.33333333,29.33333333,29.33333333,0.388888889,-0.286419753,1,0,0,0.036,submitButton,10.31746032,-0.532098765,-0.39382716,0,0,0,0,56,56,4,1,20,67501,N,180,2022-02-16_15h22.35.008,orientation adjustment blockN,2021.2.3,MacIntel,62.5,,,,,,,
,,,,,,,,,,,,,,,,,30.55555556,41,20,75,35.55555556,5.444444444,5.444444444,0.411111111,-0.301234568,1,0,0,1.046,submitButton,10.20413437,-0.527160494,-0.388888889,0,0,0,0,57,57,25,1,41,67501,N,180,2022-02-16_15h22.35.008,orientation adjustment blockN,2021.2.3,MacIntel,62.5,,,,,,,
,,,,,,,,,,,,,,,,,64.44444444,69,20,75,233.4444444,15.55555556,15.55555556,0.219753086,-0.302469136,1,0,0,1.463,submitButton,10.32575758,-0.520987654,-0.379012346,0,0,0,0,58,58,53,1,69,67501,N,180,2022-02-16_15h22.35.008,orientation adjustment blockN,2021.2.3,MacIntel,62.5,,,,,,,
,,,,,,,,,,,,,,,,,-67.22222222,-39,20,75,-233.2222222,14.22222222,14.22222222,0.392592593,-0.301234568,1,0,0,1.545,submitButton,10.41234568,0.434567901,-0.397530864,1,0,0,0,59,59,23,1,39,67501,N,180,2022-02-16_15h22.35.008,orientation adjustment blockN,2021.2.3,MacIntel,62.5,continueButton,,,,,,
,,,,,,,,,,,,,,,,,31.66666667,70,20,75,130.6666667,60.66666667,60.66666667,0.20617284,-0.307407407,1,0,0,2.071,submitButton,11.50483092,-0.518518519,-0.40617284,0,0,0,1,0,60,54,1,70,67501,N,180,2022-02-16_15h22.35.008,orientation adjustment blockN,2021.2.3,MacIntel,62.5,,,,,,,
,,,,,,,,,,,,,,,,,37.77777778,-41,20,75,-33.22222222,7.777777778,7.777777778,0.408641975,-0.309876543,1,0,0,0.19,submitButton,11.42553191,-0.541975309,-0.39382716,0,0,0,1,1,61,25,1,41,67501,N,180,2022-02-16_15h22.35.008,orientation adjustment blockN,2021.2.3,MacIntel,62.5,,,,,,,
,,,,,,,,,,,,,,,,,30,-60,20,75,-54,6,6,0.218518519,-0.318518519,1,0,0,0.471,submitButton,11.3125,-0.524691358,-0.386419753,0,0,0,1,2,62,44,1,60,67501,N,180,2022-02-16_15h22.35.008,orientation adjustment blockN,2021.2.3,MacIntel,62.5,,,,,,,
,,,,,,,,,,,,,,,,,-30.55555556,-64,20,75,-61.55555556,2.444444444,2.444444444,0.218518519,-0.298765432,1,0,0,0.49,submitButton,11.13151927,-0.535802469,-0.382716049,0,0,0,1,3,63,48,1,64,67501,N,180,2022-02-16_15h22.35.008,orientation adjustment blockN,2021.2.3,MacIntel,62.5,,,,,,,
,,,,,,,,,,,,,,,,,43.88888889,34,20,75,56.88888889,22.88888889,22.88888889,0.387654321,-0.30617284,1,0,0,0.196,submitButton,11.36666667,-0.532098765,-0.381481481,0,0,0,1,4,64,18,1,34,67501,N,180,2022-02-16_15h22.35.008,orientation adjustment blockN,2021.2.3,MacIntel,62.5,,,,,,,
,,,,,,,,,,,,,,,,,23.33333333,-32,20,75,-38.66666667,6.666666667,6.666666667,0.395061728,-0.311111111,1,0,0,0.159,submitButton,11.2745098,-0.519753086,-0.37654321,0,0,0,1,5,65,16,1,32,67501,N,180,2022-02-16_15h22.35.008,orientation adjustment blockN,2021.2.3,MacIntel,62.5,,,,,,,
,,,,,,,,,,,,,,,,,-66.11111111,48,20,75,-131.1111111,0.888888889,0.888888889,0.388888889,-0.325925926,1,0,0,0.039,submitButton,11.07478632,-0.469135802,-0.381481481,0,0,0,1,6,66,32,1,48,67501,N,180,2022-02-16_15h22.35.008,orientation adjustment blockN,2021.2.3,MacIntel,62.5,,,,,,,
,,,,,,,,,,,,,,,,,-60.55555556,-28,20,75,-60.55555556,32.55555556,32.55555556,-0.516049383,-0.390123457,1,0,0,3.703,submitButton,11.48008386,-0.516049383,-0.390123457,0,0,0,1,7,67,12,1,28,67501,N,180,2022-02-16_15h22.35.008,orientation adjustment blockN,2021.2.3,MacIntel,62.5,,,,,,,
,,,,,,,,,,,,,,,,,-57.77777778,-47,20,75,-49.77777778,2.777777778,2.777777778,0.17654321,-0.307407407,1,0,0,0.971,submitButton,11.31893004,-0.511111111,-0.403703704,0,0,0,1,8,68,31,1,47,67501,N,180,2022-02-16_15h22.35.008,orientation adjustment blockN,2021.2.3,MacIntel,62.5,,,,,,,
,,,,,,,,,,,,,,,,,42.22222222,-16,20,75,132.2222222,31.77777778,31.77777778,0.175308642,-0.30617284,1,0,0,1.788,submitButton,11.69090909,-0.513580247,-0.386419753,0,0,0,1,9,69,0,1,16,67501,N,180,2022-02-16_15h22.35.008,orientation adjustment blockN,2021.2.3,MacIntel,62.5,,,,,,,
,,,,,,,,,,,,,,,,,-75,-43,20,75,-35,8,8,0.195061728,-0.298765432,1,0,0,1.384,submitButton,11.625,-0.528395062,-0.390123457,0,0,0,1,10,70,27,1,43,67501,N,180,2022-02-16_15h22.35.008,orientation adjustment blockN,2021.2.3,MacIntel,62.5,,,,,,,
,,,,,,,,,,,,,,,,,-33.88888889,22,20,75,-142.8888889,15.11111111,15.11111111,0.382716049,-0.295061728,1,0,0,1.979,submitButton,11.68615984,-0.5,-0.388888889,0,0,0,1,11,71,6,1,22,67501,N,180,2022-02-16_15h22.35.008,orientation adjustment blockN,2021.2.3,MacIntel,62.5,,,,,,,
,,,,,,,,,,,,,,,,,-64.44444444,-35,20,75,-41.44444444,6.444444444,6.444444444,0.174074074,-0.316049383,1,0,0,0.663,submitButton,11.59578544,-0.520987654,-0.409876543,0,0,0,1,12,72,19,1,35,67501,N,180,2022-02-16_15h22.35.008,orientation adjustment blockN,2021.2.3,MacIntel,62.5,,,,,,,
,,,,,,,,,,,,,,,,,-60.55555556,-44,20,75,-32.55555556,11.44444444,11.44444444,0.164197531,-0.307407407,1,0,0,0.763,submitButton,11.59322034,-0.479012346,-0.403703704,0,0,0,1,13,73,28,1,44,67501,N,180,2022-02-16_15h22.35.008,orientation adjustment blockN,2021.2.3,MacIntel,62.5,,,,,,,
,,,,,,,,,,,,,,,,,-20,58,20,75,54,4,4,0.204938272,-0.32345679,1,0,0,0.213,submitButton,11.46666667,0.438271605,-0.422222222,1,0,0,1,14,74,42,1,58,67501,N,180,2022-02-16_15h22.35.008,orientation adjustment blockN,2021.2.3,MacIntel,62.5,continueButton,,,,,,
,,,,,,,,,,,,,,,,,60.55555556,51,20,75,41.55555556,9.444444444,9.444444444,0.437037037,-0.322222222,1,0,0,1.087,submitButton,11.43351548,-0.5,-0.397530864,0,0,0,1,15,75,35,1,51,67501,N,180,2022-02-16_15h22.35.008,orientation adjustment blockN,2021.2.3,MacIntel,62.5,,,,,,,
,,,,,,,,,,,,,,,,,32.77777778,33,20,75,35.77777778,2.777777778,2.777777778,0.39382716,-0.318518519,1,0,0,0.111,submitButton,11.29390681,-0.497530864,-0.392592593,0,0,0,1,16,76,17,1,33,67501,N,180,2022-02-16_15h22.35.008,orientation adjustment blockN,2021.2.3,MacIntel,62.5,,,,,,,
,,,,,,,,,,,,,,,,,-42.22222222,-59,20,75,-49.22222222,9.777777778,9.777777778,0.186419753,-0.311111111,1,0,0,0.864,submitButton,11.26984127,-0.456790123,-0.401234568,0,0,0,1,17,77,43,1,59,67501,N,180,2022-02-16_15h22.35.008,orientation adjustment blockN,2021.2.3,MacIntel,62.5,,,,,,,
,,,,,,,,,,,,,,,,,-21.66666667,74,20,75,59.33333333,14.66666667,14.66666667,0.190123457,-0.316049383,1,0,0,0.199,submitButton,11.32291667,-0.47654321,-0.391358025,0,0,0,1,18,78,58,1,74,67501,N,180,2022-02-16_15h22.35.008,orientation adjustment blockN,2021.2.3,MacIntel,62.5,,,,,,,
,,,,,,,,,,,,,,,,,-31.66666667,-73,20,75,-46.66666667,26.33333333,26.33333333,0.182716049,-0.314814815,1,0,0,0.496,submitButton,11.55384615,-0.471604938,-0.380246914,0,0,0,1,19,79,57,1,73,67501,N,180,2022-02-16_15h22.35.008,orientation adjustment blockN,2021.2.3,MacIntel,62.5,,,,,,,
,,,,,,,,,,,,,,,,,36.11111111,-55,20,75,-34.88888889,20.11111111,20.11111111,-0.467901235,-0.39382716,1,0,0,1.505,submitButton,11.68350168,-0.467901235,-0.39382716,0,0,0,1,20,80,39,1,55,67501,N,180,2022-02-16_15h22.35.008,orientation adjustment blockN,2021.2.3,MacIntel,62.5,,,,,,,
,,,,,,,,,,,,,,,,,-67.22222222,-38,20,75,-54.22222222,16.22222222,16.22222222,0.214814815,-0.298765432,1,0,0,0.926,submitButton,11.75124378,-0.477777778,-0.375308642,0,0,0,1,21,81,22,1,38,67501,N,180,2022-02-16_15h22.35.008,orientation adjustment blockN,2021.2.3,MacIntel,62.5,,,,,,,
,,,,,,,,,,,,,,,,,42.77777778,53,20,75,46.77777778,6.222222222,6.222222222,0.409876543,-0.295061728,1,0,0,0.438,submitButton,11.66993464,-0.491358025,-0.386419753,0,0,0,1,22,82,37,1,53,67501,N,180,2022-02-16_15h22.35.008,orientation adjustment blockN,2021.2.3,MacIntel,62.5,,,,,,,
,,,,,,,,,,,,,,,,,26.66666667,-24,20,75,-31.33333333,7.333333333,7.333333333,0.401234568,-0.322222222,1,0,0,0.179,submitButton,11.60708535,-0.486419753,-0.408641975,0,0,0,1,23,83,8,1,24,67501,N,180,2022-02-16_15h22.35.008,orientation adjustment blockN,2021.2.3,MacIntel,62.5,,,,,,,
,,,,,,,,,,,,,,,,,-42.77777778,62,20,75,39.22222222,22.77777778,22.77777778,0.192592593,-0.309876543,1,0,0,0.271,submitButton,11.76666667,-0.454320988,-0.398765432,0,0,0,1,24,84,46,1,62,67501,N,180,2022-02-16_15h22.35.008,orientation adjustment blockN,2021.2.3,MacIntel,62.5,,,,,,,
,,,,,,,,,,,,,,,,,-73.88888889,-52,20,75,-214.8888889,17.11111111,17.11111111,0.185185185,-0.318518519,1,0,0,1.746,submitButton,11.84194053,-0.47654321,-0.385185185,0,0,0,1,25,85,36,1,52,67501,N,180,2022-02-16_15h22.35.008,orientation adjustment blockN,2021.2.3,MacIntel,62.5,,,,,,,
,,,,,,,,,,,,,,,,,-67.22222222,-40,20,75,-36.22222222,3.777777778,3.777777778,0.187654321,-0.308641975,1,0,0,1.055,submitButton,11.72993827,-0.498765432,-0.379012346,0,0,0,1,26,86,24,1,40,67501,N,180,2022-02-16_15h22.35.008,orientation adjustment blockN,2021.2.3,MacIntel,62.5,,,,,,,
,,,,,,,,,,,,,,,,,58.88888889,65,20,75,55.88888889,9.111111111,9.111111111,0.385185185,-0.309876543,1,0,0,0.753,submitButton,11.69406393,-0.460493827,-0.386419753,0,0,0,1,27,87,49,1,65,67501,N,180,2022-02-16_15h22.35.008,orientation adjustment blockN,2021.2.3,MacIntel,62.5,,,,,,,
,,,,,,,,,,,,,,,,,22.22222222,71,20,75,49.22222222,21.77777778,21.77777778,0.362962963,-0.319753086,1,0,0,0.655,submitButton,11.83033033,-0.445679012,-0.391358025,0,0,0,1,28,88,55,1,71,67501,N,180,2022-02-16_15h22.35.008,orientation adjustment blockN,2021.2.3,MacIntel,62.5,,,,,,,
,,,,,,,,,,,,,,,,,28.33333333,-37,20,75,-39.66666667,2.666666667,2.666666667,0.367901235,-0.30617284,1,0,0,0.069,submitButton,11.70814815,0.381481481,-0.388888889,1,0,0,1,29,89,21,1,37,67501,N,180,2022-02-16_15h22.35.008,orientation adjustment blockN,2021.2.3,MacIntel,62.5,continueButton,,,,,,
,,,,,,,,,,,,,,,,,45.55555556,72,20,75,55.55555556,16.44444444,16.44444444,0.428395062,-0.316049383,1,0,0,0.328,submitButton,11.77046784,-0.466666667,-0.404938272,0,0,0,1,30,90,56,1,72,67501,N,180,2022-02-16_15h22.35.008,orientation adjustment blockN,2021.2.3,MacIntel,62.5,,,,,,,
,,,,,,,,,,,,,,,,,68.33333333,-49,20,75,-33.66666667,15.33333333,15.33333333,0.204938272,-0.308641975,1,0,0,1.337,submitButton,11.81673882,-0.462962963,-0.4,0,0,0,1,31,91,33,1,49,67501,N,180,2022-02-16_15h22.35.008,orientation adjustment blockN,2021.2.3,MacIntel,62.5,,,,,,,
,,,,,,,,,,,,,,,,,44.44444444,45,20,75,46.44444444,1.444444444,1.444444444,0.417283951,-0.314814815,1,0,0,0.697,submitButton,11.68376068,-0.44691358,-0.403703704,0,0,0,1,32,92,29,1,45,67501,N,180,2022-02-16_15h22.35.008,orientation adjustment blockN,2021.2.3,MacIntel,62.5,,,,,,,
,,,,,,,,,,,,,,,,,55,56,20,75,49,7,7,-0.483950617,-0.402469136,1,0,0,2.088,submitButton,11.62447257,-0.483950617,-0.402469136,0,0,0,1,33,93,40,1,56,67501,N,180,2022-02-16_15h22.35.008,orientation adjustment blockN,2021.2.3,MacIntel,62.5,,,,,,,
,,,,,,,,,,,,,,,,,-32.77777778,20,20,75,-154.7777778,5.222222222,5.222222222,0.42345679,-0.311111111,1,0,0,1.997,submitButton,11.54444444,-0.454320988,-0.375308642,0,0,0,1,34,94,4,1,20,67501,N,180,2022-02-16_15h22.35.008,orientation adjustment blockN,2021.2.3,MacIntel,62.5,,,,,,,
,,,,,,,,,,,,,,,,,-53.33333333,42,20,75,41.66666667,0.333333333,0.333333333,0.161728395,-0.308641975,1,0,0,0.572,submitButton,11.40603567,-0.474074074,-0.395061728,0,0,0,1,35,95,26,1,42,67501,N,180,2022-02-16_15h22.35.008,orientation adjustment blockN,2021.2.3,MacIntel,62.5,,,,,,,
,,,,,,,,,,,,,,,,,71.66666667,26,20,75,34.66666667,8.666666667,8.666666667,0.4,-0.341975309,1,0,0,0.204,submitButton,11.37262873,-0.47654321,-0.381481481,0,0,0,1,36,96,10,1,26,67501,N,180,2022-02-16_15h22.35.008,orientation adjustment blockN,2021.2.3,MacIntel,62.5,,,,,,,
,,,,,,,,,,,,,,,,,-25.55555556,-75,20,75,-66.55555556,8.444444444,8.444444444,0.198765432,-0.304938272,1,0,0,0.33,submitButton,11.3373494,-0.441975309,-0.385185185,0,0,0,1,37,97,59,1,75,67501,N,180,2022-02-16_15h22.35.008,orientation adjustment blockN,2021.2.3,MacIntel,62.5,,,,,,,
,,,,,,,,,,,,,,,,,73.33333333,67,20,75,64.33333333,2.666666667,2.666666667,-0.445679012,-0.391358025,1,0,0,2.072,submitButton,11.23412698,-0.445679012,-0.391358025,0,0,0,1,38,98,51,1,67,67501,N,180,2022-02-16_15h22.35.008,orientation adjustment blockN,2021.2.3,MacIntel,62.5,,,,,,,
,,,,,,,,,,,,,,,,,-50.55555556,-31,20,75,-46.55555556,15.55555556,15.55555556,0.4,-0.302469136,1,0,0,1.262,submitButton,11.28496732,-0.471604938,-0.39382716,0,0,0,1,39,99,15,1,31,67501,N,180,2022-02-16_15h22.35.008,orientation adjustment blockN,2021.2.3,MacIntel,62.5,,,,,,,
,,,,,,,,,,,,,,,,,-22.77777778,-46,20,75,-48.77777778,2.777777778,2.777777778,-0.440740741,-0.391358025,1,0,0,0.58,submitButton,11.18604651,-0.440740741,-0.391358025,0,0,0,1,40,100,30,1,46,67501,N,180,2022-02-16_15h22.35.008,orientation adjustment blockN,2021.2.3,MacIntel,62.5,,,,,,,
,,,,,,,,,,,,,,,,,40.55555556,-29,20,75,146.5555556,4.444444444,4.444444444,0.174074074,-0.317283951,1,0,0,1.821,submitButton,11.10855683,-0.456790123,-0.402469136,0,0,0,1,41,101,13,1,29,67501,N,180,2022-02-16_15h22.35.008,orientation adjustment blockN,2021.2.3,MacIntel,62.5,,,,,,,
,,,,,,,,,,,,,,,,,65,21,20,75,38,17,17,0.428395062,-0.296296296,1,0,0,0.478,submitButton,11.17550505,-0.42345679,-0.401234568,0,0,0,1,42,102,5,1,21,67501,N,180,2022-02-16_15h22.35.008,orientation adjustment blockN,2021.2.3,MacIntel,62.5,,,,,,,
,,,,,,,,,,,,,,,,,27.77777778,27,20,75,21.77777778,5.222222222,5.222222222,-0.371604938,-0.397530864,1,0,0,1.071,submitButton,11.10861423,-0.371604938,-0.397530864,0,0,0,1,43,103,11,1,27,67501,N,180,2022-02-16_15h22.35.008,orientation adjustment blockN,2021.2.3,MacIntel,62.5,,,,,,,
,,,,,,,,,,,,,,,,,72.77777778,61,20,75,233.7777778,7.222222222,7.222222222,0.160493827,-0.314814815,1,0,0,0.056,submitButton,11.0654321,0.471604938,-0.390123457,1,0,0,1,44,104,45,1,61,67501,N,180,2022-02-16_15h22.35.008,orientation adjustment blockN,2021.2.3,MacIntel,62.5,continueButton,,,,,,
,,,,,,,,,,,,,,,,,56.11111111,30,20,75,37.11111111,7.111111111,7.111111111,0.388888889,-0.304938272,1,0,0,0.523,submitButton,11.02197802,-0.464197531,-0.412345679,0,0,0,1,45,105,14,1,30,67501,N,180,2022-02-16_15h22.35.008,orientation adjustment blockN,2021.2.3,MacIntel,62.5,,,,,,,
,,,,,,,,,,,,,,,,,73.88888889,-50,20,75,-38.11111111,11.88888889,11.88888889,0.435802469,-0.302469136,1,0,0,1.072,submitButton,11.03140097,-0.416049383,-0.39382716,0,0,0,1,46,106,34,1,50,67501,N,180,2022-02-16_15h22.35.008,orientation adjustment blockN,2021.2.3,MacIntel,62.5,,,,,,,
,,,,,,,,,,,,,,,,,-41.66666667,18,20,75,23.33333333,5.333333333,5.333333333,-0.332098765,-0.375308642,1,0,0,1.071,submitButton,10.97013142,-0.332098765,-0.375308642,0,0,0,1,47,107,2,1,18,67501,N,180,2022-02-16_15h22.35.008,orientation adjustment blockN,2021.2.3,MacIntel,62.5,,,,,,,
,,,,,,,,,,,,,,,,,-47.77777778,-25,20,75,-32.77777778,7.777777778,7.777777778,0.167901235,-0.313580247,1,0,0,0.113,submitButton,10.93617021,-0.398765432,-0.385185185,0,0,0,1,48,108,9,1,25,67501,N,180,2022-02-16_15h22.35.008,orientation adjustment blockN,2021.2.3,MacIntel,62.5,,,,,,,
,,,,,,,,,,,,,,,,,-41.11111111,-54,20,75,-54.11111111,0.111111111,0.111111111,0.209876543,-0.301234568,1,0,0,0.148,submitButton,10.82222222,-0.4,-0.381481481,0,0,0,1,49,109,38,1,54,67501,N,180,2022-02-16_15h22.35.008,orientation adjustment blockN,2021.2.3,MacIntel,62.5,,,,,,,
,,,,,,,,,,,,,,,,,71.11111111,-63,20,75,-45.88888889,17.11111111,17.11111111,-0.404938272,-0.392592593,1,0,0,1.663,submitButton,10.88773148,-0.404938272,-0.392592593,0,0,0,1,50,110,47,1,63,67501,N,180,2022-02-16_15h22.35.008,orientation adjustment blockN,2021.2.3,MacIntel,62.5,,,,,,,
,,,,,,,,,,,,,,,,,-36.11111111,-57,20,75,-47.11111111,9.888888889,9.888888889,0.191358025,-0.308641975,1,0,0,0.046,submitButton,10.87743414,-0.420987654,-0.411111111,0,0,0,1,51,111,41,1,57,67501,N,180,2022-02-16_15h22.35.008,orientation adjustment blockN,2021.2.3,MacIntel,62.5,,,,,,,
,,,,,,,,,,,,,,,,,-32.77777778,-66,20,75,-54.77777778,11.22222222,11.22222222,0.203703704,-0.308641975,1,0,0,0.906,submitButton,10.88095238,-0.433333333,-0.396296296,0,0,0,1,52,112,50,1,66,67501,N,180,2022-02-16_15h22.35.008,orientation adjustment blockN,2021.2.3,MacIntel,62.5,,,,,,,
,,,,,,,,,,,,,,,,,-71.66666667,36,20,75,-143.6666667,0.333333333,0.333333333,0.398765432,-0.29382716,1,0,0,1.929,submitButton,10.77441077,-0.417283951,-0.408641975,0,0,0,1,53,113,20,1,36,67501,N,180,2022-02-16_15h22.35.008,orientation adjustment blockN,2021.2.3,MacIntel,62.5,,,,,,,
,,,,,,,,,,,,,,,,,43.33333333,-19,20,75,149.3333333,11.66666667,11.66666667,0.162962963,-0.30617284,1,0,0,1.708,submitButton,10.78333333,-0.455555556,-0.397530864,0,0,0,1,54,114,3,1,19,67501,N,180,2022-02-16_15h22.35.008,orientation adjustment blockN,2021.2.3,MacIntel,62.5,,,,,,,
,,,,,,,,,,,,,,,,,-43.88888889,-68,20,75,-52.88888889,15.11111111,15.11111111,0.195061728,-0.304938272,1,0,0,0.037,submitButton,10.82618262,-0.424691358,-0.377777778,0,0,0,1,55,115,52,1,68,67501,N,180,2022-02-16_15h22.35.008,orientation adjustment blockN,2021.2.3,MacIntel,62.5,,,,,,,
,,,,,,,,,,,,,,,,,-67.77777778,-17,20,75,-34.77777778,17.77777778,17.77777778,0.161728395,-0.312345679,1,0,0,0.521,submitButton,10.89433551,-0.459259259,-0.395061728,0,0,0,1,56,116,1,1,17,67501,N,180,2022-02-16_15h22.35.008,orientation adjustment blockN,2021.2.3,MacIntel,62.5,,,,,,,
,,,,,,,,,,,,,,,,,57.77777778,39,20,75,40.77777778,1.777777778,1.777777778,0.420987654,-0.304938272,1,0,0,0.453,submitButton,10.80582524,-0.428395062,-0.382716049,0,0,0,1,57,117,23,1,39,67501,N,180,2022-02-16_15h22.35.008,orientation adjustment blockN,2021.2.3,MacIntel,62.5,,,,,,,
,,,,,,,,,,,,,,,,,-24.44444444,69,20,75,66.55555556,2.444444444,2.444444444,0.202469136,-0.320987654,1,0,0,0.105,submitButton,10.72542735,-0.443209877,-0.387654321,0,0,0,1,58,118,53,1,69,67501,N,180,2022-02-16_15h22.35.008,orientation adjustment blockN,2021.2.3,MacIntel,62.5,,,,,,,
,,,,,,,,,,,,,,,,,48.33333333,23,20,75,31.33333333,8.333333333,8.333333333,0.404938272,-0.314814815,1,0,0,0.171,submitButton,10.7026455,0.42962963,-0.409876543,1,0,0,1,59,119,7,1,23,67501,N,180,2022-02-16_15h22.35.008,orientation adjustment blockN,2021.2.3,MacIntel,62.5,continueButton,,,,,,
,,,,,,,,,,,,,,,,,61.11111111,-61,20,75,-42.88888889,18.11111111,18.11111111,-0.437037037,-0.374074074,1,0,0,1.396,submitButton,10.77253669,-0.437037037,-0.374074074,0,0,0,2,0,120,45,1,61,67501,N,180,2022-02-16_15h22.35.008,orientation adjustment blockN,2021.2.3,MacIntel,62.5,,,,,,,
,,,,,,,,,,,,,,,,,-46.66666667,-64,20,75,-43.66666667,20.33333333,20.33333333,0.204938272,-0.291358025,1,0,0,0.031,submitButton,10.86188993,-0.439506173,-0.391358025,0,0,0,2,1,121,48,1,64,67501,N,180,2022-02-16_15h22.35.008,orientation adjustment blockN,2021.2.3,MacIntel,62.5,,,,,,,
,,,,,,,,,,,,,,,,,67.77777778,68,20,75,59.77777778,8.222222222,8.222222222,0.418518519,-0.328395062,1,0,0,0.946,submitButton,10.83744856,-0.450617284,-0.37654321,0,0,0,2,2,122,52,1,68,67501,N,180,2022-02-16_15h22.35.008,orientation adjustment blockN,2021.2.3,MacIntel,62.5,,,,,,,
,,,,,,,,,,,,,,,,,45.55555556,-54,20,75,-40.44444444,13.55555556,13.55555556,0.416049383,-0.312345679,1,0,0,0.188,submitButton,10.86238532,-0.451851852,-0.383950617,0,0,0,2,3,123,38,1,54,67501,N,180,2022-02-16_15h22.35.008,orientation adjustment blockN,2021.2.3,MacIntel,62.5,,,,,,,
,,,,,,,,,,,,,,,,,-66.66666667,32,20,75,-136.6666667,11.33333333,11.33333333,0.445679012,-0.325925926,1,0,0,0.497,submitButton,10.86666667,-0.444444444,-0.385185185,0,0,0,2,4,124,16,1,32,67501,N,180,2022-02-16_15h22.35.008,orientation adjustment blockN,2021.2.3,MacIntel,62.5,,,,,,,
,,,,,,,,,,,,,,,,,-21.66666667,-23,20,75,-44.66666667,21.66666667,21.66666667,-0.444444444,-0.396296296,1,0,0,1.072,submitButton,10.96396396,-0.444444444,-0.396296296,0,0,0,2,5,125,7,1,23,67501,N,180,2022-02-16_15h22.35.008,orientation adjustment blockN,2021.2.3,MacIntel,62.5,,,,,,,
,,,,,,,,,,,,,,,,,35.55555556,20,20,75,30.55555556,10.55555556,10.55555556,0.408641975,-0.309876543,1,0,0,0.08,submitButton,10.96031746,-0.383950617,-0.381481481,0,0,0,2,6,126,4,1,20,67501,N,180,2022-02-16_15h22.35.008,orientation adjustment blockN,2021.2.3,MacIntel,62.5,,,,,,,
,,,,,,,,,,,,,,,,,-63.88888889,37,20,75,-148.8888889,5.888888889,5.888888889,0.397530864,-0.319753086,1,0,0,1.957,submitButton,10.91543756,-0.40617284,-0.395061728,0,0,0,2,7,127,21,1,37,67501,N,180,2022-02-16_15h22.35.008,orientation adjustment blockN,2021.2.3,MacIntel,62.5,,,,,,,
,,,,,,,,,,,,,,,,,-63.88888889,-52,20,75,-39.88888889,12.11111111,12.11111111,0.151851852,-0.335802469,1,0,0,0.953,submitButton,10.92592593,-0.374074074,-0.37654321,0,0,0,2,8,128,36,1,52,67501,N,180,2022-02-16_15h22.35.008,orientation adjustment blockN,2021.2.3,MacIntel,62.5,,,,,,,
,,,,,,,,,,,,,,,,,-73.88888889,70,20,75,64.11111111,5.888888889,5.888888889,-0.349382716,-0.361728395,1,0,0,1.656,submitButton,10.8821256,-0.455555556,-0.4,0,0,0,2,9,129,54,1,70,67501,N,180,2022-02-16_15h22.35.008,orientation adjustment blockN,2021.2.3,MacIntel,62.5,,,,,,,
,,,,,,,,,,,,,,,,,-34.44444444,-44,20,75,-43.44444444,0.555555556,0.555555556,-0.316049383,-0.382716049,1,0,0,0.829,submitButton,10.79310345,-0.316049383,-0.382716049,0,0,0,2,10,130,28,1,44,67501,N,180,2022-02-16_15h22.35.008,orientation adjustment blockN,2021.2.3,MacIntel,62.5,,,,,,,
,,,,,,,,,,,,,,,,,70.55555556,-34,20,75,134.5555556,11.44444444,11.44444444,0.17654321,-0.309876543,1,0,0,1.37,submitButton,10.79867047,-0.355555556,-0.39382716,0,0,0,2,11,131,18,1,34,67501,N,180,2022-02-16_15h22.35.008,orientation adjustment blockN,2021.2.3,MacIntel,62.5,,,,,,,
,,,,,,,,,,,,,,,,,-62.77777778,24,20,75,-147.7777778,8.222222222,8.222222222,0.42962963,-0.301234568,1,0,0,1.555,submitButton,10.77683616,-0.334567901,-0.380246914,0,0,0,2,12,132,8,1,24,67501,N,180,2022-02-16_15h22.35.008,orientation adjustment blockN,2021.2.3,MacIntel,62.5,,,,,,,
,,,,,,,,,,,,,,,,,-35,31,20,75,20,11,11,0.190123457,-0.309876543,1,0,0,0.047,submitButton,10.77871148,-0.345679012,-0.383950617,0,0,0,2,13,133,15,1,31,67501,N,180,2022-02-16_15h22.35.008,orientation adjustment blockN,2021.2.3,MacIntel,62.5,,,,,,,
,,,,,,,,,,,,,,,,,41.66666667,50,20,75,31.66666667,18.33333333,18.33333333,0.434567901,-0.308641975,1,0,0,0.065,submitButton,10.84166667,0.267901235,-0.409876543,1,0,0,2,14,134,34,1,50,67501,N,180,2022-02-16_15h22.35.008,orientation adjustment blockN,2021.2.3,MacIntel,62.5,continueButton,,,,,,
,,,,,,,,,,,,,,,,,33.88888889,30,20,75,34.88888889,4.888888889,4.888888889,0.412345679,-0.307407407,1,0,0,0.413,submitButton,10.79247016,-0.325925926,-0.416049383,0,0,0,2,15,135,14,1,30,67501,N,180,2022-02-16_15h22.35.008,orientation adjustment blockN,2021.2.3,MacIntel,62.5,,,,,,,
,,,,,,,,,,,,,,,,,-56.11111111,-38,20,75,-50.11111111,12.11111111,12.11111111,-0.359259259,-0.385185185,1,0,0,0.907,submitButton,10.80327869,-0.359259259,-0.385185185,0,0,0,2,16,136,22,1,38,67501,N,180,2022-02-16_15h22.35.008,orientation adjustment blockN,2021.2.3,MacIntel,62.5,,,,,,,
,,,,,,,,,,,,,,,,,29.44444444,74,20,75,43.44444444,30.55555556,30.55555556,-0.304938272,-0.398765432,1,0,0,1.169,submitButton,10.96386631,-0.304938272,-0.398765432,0,0,0,2,17,137,58,1,74,67501,N,180,2022-02-16_15h22.35.008,orientation adjustment blockN,2021.2.3,MacIntel,62.5,,,,,,,
,,,,,,,,,,,,,,,,,47.22222222,45,20,75,50.22222222,5.222222222,5.222222222,-0.292592593,-0.386419753,1,0,0,0.937,submitButton,10.91756272,-0.292592593,-0.386419753,0,0,0,2,18,138,29,1,45,67501,N,180,2022-02-16_15h22.35.008,orientation adjustment blockN,2021.2.3,MacIntel,62.5,,,,,,,
,,,,,,,,,,,,,,,,,-58.33333333,59,20,75,38.66666667,20.33333333,20.33333333,0.204938272,-0.324691358,1,0,0,0.729,submitButton,10.99288889,-0.303703704,-0.383950617,0,0,0,2,19,139,43,1,59,67501,N,180,2022-02-16_15h22.35.008,orientation adjustment blockN,2021.2.3,MacIntel,62.5,,,,,,,
,,,,,,,,,,,,,,,,,-33.33333333,57,20,75,42.66666667,14.33333333,14.33333333,0.188888889,-0.317283951,1,0,0,0.123,submitButton,11.01940035,-0.275308642,-0.401234568,0,0,0,2,20,140,41,1,57,67501,N,180,2022-02-16_15h22.35.008,orientation adjustment blockN,2021.2.3,MacIntel,62.5,,,,,,,
,,,,,,,,,,,,,,,,,-67.77777778,29,20,75,28.22222222,0.777777778,0.777777778,0.434567901,-0.303703704,1,0,0,1.363,submitButton,10.93875766,-0.295061728,-0.39382716,0,0,0,2,21,141,13,1,29,67501,N,180,2022-02-16_15h22.35.008,orientation adjustment blockN,2021.2.3,MacIntel,62.5,,,,,,,
,,,,,,,,,,,,,,,,,42.77777778,58,20,75,216.7777778,21.22222222,21.22222222,0.207407407,-0.292592593,1,0,0,2.111,submitButton,11.01909722,-0.239506173,-0.388888889,0,0,0,2,22,142,42,1,58,67501,N,180,2022-02-16_15h22.35.008,orientation adjustment blockN,2021.2.3,MacIntel,62.5,,,,,,,
,,,,,,,,,,,,,,,,,-46.11111111,63,20,75,49.88888889,13.11111111,13.11111111,0.209876543,-0.316049383,1,0,0,0.165,submitButton,11.03531438,-0.29382716,-0.374074074,0,0,0,2,23,143,47,1,63,67501,N,180,2022-02-16_15h22.35.008,orientation adjustment blockN,2021.2.3,MacIntel,62.5,,,,,,,
,,,,,,,,,,,,,,,,,65,-69,20,75,-46,23,23,0.195061728,-0.295061728,1,0,0,0.823,submitButton,11.12735043,-0.250617284,-0.390123457,0,0,0,2,24,144,53,1,69,67501,N,180,2022-02-16_15h22.35.008,orientation adjustment blockN,2021.2.3,MacIntel,62.5,,,,,,,
,,,,,,,,,,,,,,,,,-51.11111111,22,20,75,28.88888889,6.888888889,6.888888889,0.411111111,-0.298765432,1,0,0,0.828,submitButton,11.09499576,-0.303703704,-0.413580247,0,0,0,2,25,145,6,1,22,67501,N,180,2022-02-16_15h22.35.008,orientation adjustment blockN,2021.2.3,MacIntel,62.5,,,,,,,
,,,,,,,,,,,,,,,,,33.88888889,-67,20,75,-40.11111111,26.88888889,26.88888889,0.182716049,-0.301234568,1,0,0,0.194,submitButton,11.21464646,-0.341975309,-0.402469136,0,0,0,2,26,146,51,1,67,67501,N,180,2022-02-16_15h22.35.008,orientation adjustment blockN,2021.2.3,MacIntel,62.5,,,,,,,
,,,,,,,,,,,,,,,,,34.44444444,40,20,75,47.44444444,7.444444444,7.444444444,0.386419753,-0.309876543,1,0,0,0.113,submitButton,11.18629908,-0.319753086,-0.4,0,0,0,2,27,147,24,1,40,67501,N,180,2022-02-16_15h22.35.008,orientation adjustment blockN,2021.2.3,MacIntel,62.5,,,,,,,
,,,,,,,,,,,,,,,,,-48.88888889,-27,20,75,-39.88888889,12.88888889,12.88888889,0.198765432,-0.314814815,1,0,0,0.614,submitButton,11.19900498,-0.308641975,-0.413580247,0,0,0,2,28,148,11,1,27,67501,N,180,2022-02-16_15h22.35.008,orientation adjustment blockN,2021.2.3,MacIntel,62.5,,,,,,,
,,,,,,,,,,,,,,,,,55.55555556,66,20,75,47.55555556,18.44444444,18.44444444,0.416049383,-0.314814815,1,0,0,0.836,submitButton,11.2526749,-0.302469136,-0.420987654,0,0,0,2,29,149,50,1,66,67501,N,180,2022-02-16_15h22.35.008,orientation adjustment blockN,2021.2.3,MacIntel,62.5,,,,,,,
,,,,,,,,,,,,,,,,,-22.77777778,19,20,75,24.22222222,5.222222222,5.222222222,0.219753086,-0.311111111,1,0,0,0.096,submitButton,11.20833333,-0.262962963,-0.4,0,0,0,2,30,150,3,1,19,67501,N,180,2022-02-16_15h22.35.008,orientation adjustment blockN,2021.2.3,MacIntel,62.5,,,,,,,
,,,,,,,,,,,,,,,,,-39.44444444,16,20,75,23.55555556,7.555555556,7.555555556,0.202469136,-0.30617284,1,0,0,0.904,submitButton,11.18167072,-0.271604938,-0.403703704,0,0,0,2,31,151,0,1,16,67501,N,180,2022-02-16_15h22.35.008,orientation adjustment blockN,2021.2.3,MacIntel,62.5,,,,,,,
,,,,,,,,,,,,,,,,,-31.11111111,71,20,75,55.88888889,15.11111111,15.11111111,0.211111111,-0.318518519,1,0,0,0.161,submitButton,11.21014493,-0.27037037,-0.395061728,0,0,0,2,32,152,55,1,71,67501,N,180,2022-02-16_15h22.35.008,orientation adjustment blockN,2021.2.3,MacIntel,62.5,,,,,,,
,,,,,,,,,,,,,,,,,64.44444444,42,20,75,213.4444444,8.555555556,8.555555556,0.408641975,-0.311111111,1,0,0,2.153,submitButton,11.19104716,-0.356790123,-0.390123457,0,0,0,2,33,153,26,1,42,67501,N,180,2022-02-16_15h22.35.008,orientation adjustment blockN,2021.2.3,MacIntel,62.5,,,,,,,
,,,,,,,,,,,,,,,,,-23.88888889,49,20,75,36.11111111,12.88888889,12.88888889,-0.32345679,-0.404938272,1,0,0,0.493,submitButton,11.2031746,-0.32345679,-0.404938272,0,0,0,2,34,154,33,1,49,67501,N,180,2022-02-16_15h22.35.008,orientation adjustment blockN,2021.2.3,MacIntel,62.5,,,,,,,
,,,,,,,,,,,,,,,,,-43.33333333,26,20,75,43.66666667,17.66666667,17.66666667,0.216049383,-0.313580247,1,0,0,1.042,submitButton,11.24901497,-0.303703704,-0.392592593,0,0,0,2,35,155,10,1,26,67501,N,180,2022-02-16_15h22.35.008,orientation adjustment blockN,2021.2.3,MacIntel,62.5,,,,,,,
,,,,,,,,,,,,,,,,,37.22222222,25,20,75,36.22222222,11.22222222,11.22222222,0.379012346,-0.308641975,1,0,0,0.454,submitButton,11.24882629,-0.291358025,-0.403703704,0,0,0,2,36,156,9,1,25,67501,N,180,2022-02-16_15h22.35.008,orientation adjustment blockN,2021.2.3,MacIntel,62.5,,,,,,,
,,,,,,,,,,,,,,,,,22.22222222,-56,20,75,-46.77777778,9.222222222,9.222222222,-0.325925926,-0.396296296,1,0,0,0.473,submitButton,11.23465423,-0.325925926,-0.396296296,0,0,0,2,37,157,40,1,56,67501,N,180,2022-02-16_15h22.35.008,orientation adjustment blockN,2021.2.3,MacIntel,62.5,,,,,,,
,,,,,,,,,,,,,,,,,-61.11111111,-51,20,75,-223.1111111,7.888888889,7.888888889,0.375308642,-0.32962963,1,0,0,0.062,submitButton,11.21141975,-0.280246914,-0.387654321,0,0,0,2,38,158,35,1,51,67501,N,180,2022-02-16_15h22.35.008,orientation adjustment blockN,2021.2.3,MacIntel,62.5,,,,,,,
,,,,,,,,,,,,,,,,,23.33333333,-17,20,75,-43.66666667,26.66666667,26.66666667,0.413580247,-0.314814815,1,0,0,0.44,submitButton,11.31800766,-0.264197531,-0.388888889,0,0,0,2,39,159,1,1,17,67501,N,180,2022-02-16_15h22.35.008,orientation adjustment blockN,2021.2.3,MacIntel,62.5,,,,,,,
,,,,,,,,,,,,,,,,,48.33333333,60,20,75,235.3333333,4.666666667,4.666666667,0.191358025,-0.309876543,1,0,0,2.177,submitButton,11.27245053,-0.218518519,-0.382716049,0,0,0,2,40,160,44,1,60,67501,N,180,2022-02-16_15h22.35.008,orientation adjustment blockN,2021.2.3,MacIntel,62.5,,,,,,,
,,,,,,,,,,,,,,,,,-20.55555556,48,20,75,46.44444444,1.555555556,1.555555556,0.204938272,-0.333333333,1,0,0,0.104,submitButton,11.20634921,-0.217283951,-0.375308642,0,0,0,2,41,161,32,1,48,67501,N,180,2022-02-16_15h22.35.008,orientation adjustment blockN,2021.2.3,MacIntel,62.5,,,,,,,
,,,,,,,,,,,,,,,,,62.77777778,-73,20,75,-67.22222222,5.777777778,5.777777778,0.418518519,-0.325925926,1,0,0,0.904,submitButton,11.16966967,-0.228395062,-0.391358025,0,0,0,2,42,162,57,1,73,67501,N,180,2022-02-16_15h22.35.008,orientation adjustment blockN,2021.2.3,MacIntel,62.5,,,,,,,
,,,,,,,,,,,,,,,,,65,36,20,75,242,26,26,0.187654321,-0.328395062,1,0,0,2.213,submitButton,11.26920209,-0.19382716,-0.395061728,0,0,0,2,43,163,20,1,36,67501,N,180,2022-02-16_15h22.35.008,orientation adjustment blockN,2021.2.3,MacIntel,62.5,,,,,,,
,,,,,,,,,,,,,,,,,-21.66666667,33,20,75,46.33333333,13.33333333,13.33333333,0.228395062,-0.313580247,1,0,0,0.147,submitButton,11.28296296,-0.243209877,-0.407407407,0,0,0,2,44,164,17,1,33,67501,N,180,2022-02-16_15h22.35.008,orientation adjustment blockN,2021.2.3,MacIntel,62.5,,,,,,,
,,,,,,,,,,,,,,,,,-43.33333333,-18,20,75,-30.33333333,12.33333333,12.33333333,0.204938272,-0.345679012,1,0,0,0.181,submitButton,11.28991906,-0.265432099,-0.409876543,0,0,0,2,45,165,2,1,18,67501,N,180,2022-02-16_15h22.35.008,orientation adjustment blockN,2021.2.3,MacIntel,62.5,,,,,,,
,,,,,,,,,,,,,,,,,66.11111111,39,20,75,32.11111111,6.888888889,6.888888889,0.213580247,-0.328395062,1,0,0,0.22,submitButton,11.26096491,-0.232098765,-0.392592593,0,0,0,2,46,166,23,1,39,67501,N,180,2022-02-16_15h22.35.008,orientation adjustment blockN,2021.2.3,MacIntel,62.5,,,,,,,
,,,,,,,,,,,,,,,,,-47.22222222,-47,20,75,-39.22222222,7.777777778,7.777777778,0.17654321,-0.334567901,1,0,0,0.897,submitButton,11.23819898,-0.245679012,-0.4,0,0,0,2,47,167,31,1,47,67501,N,180,2022-02-16_15h22.35.008,orientation adjustment blockN,2021.2.3,MacIntel,62.5,,,,,,,
,,,,,,,,,,,,,,,,,51.66666667,-28,20,75,152.6666667,0.666666667,0.666666667,0.180246914,-0.318518519,1,0,0,1.441,submitButton,11.16955267,-0.317283951,-0.391358025,0,0,0,2,48,168,12,1,28,67501,N,180,2022-02-16_15h22.35.008,orientation adjustment blockN,2021.2.3,MacIntel,62.5,,,,,,,
,,,,,,,,,,,,,,,,,21.11111111,-62,20,75,-64.88888889,2.888888889,2.888888889,0.404938272,-0.304938272,1,0,0,0.126,submitButton,11.11612903,-0.328395062,-0.403703704,0,0,0,2,49,169,46,1,62,67501,N,180,2022-02-16_15h22.35.008,orientation adjustment blockN,2021.2.3,MacIntel,62.5,,,,,,,
,,,,,,,,,,,,,,,,,27.77777778,43,20,75,41.77777778,1.222222222,1.222222222,0.224691358,-0.320987654,1,0,0,0.129,submitButton,11.05270655,-0.281481481,-0.401234568,0,0,0,2,50,170,27,1,43,67501,N,180,2022-02-16_15h22.35.008,orientation adjustment blockN,2021.2.3,MacIntel,62.5,,,,,,,
,,,,,,,,,,,,,,,,,-45,41,20,75,-147,8,8,0.395061728,-0.309876543,1,0,0,2.228,submitButton,11.03326256,-0.228395062,-0.382716049,0,0,0,2,51,171,25,1,41,67501,N,180,2022-02-16_15h22.35.008,orientation adjustment blockN,2021.2.3,MacIntel,62.5,,,,,,,
,,,,,,,,,,,,,,,,,60,-53,20,75,135,8,8,0.154320988,-0.32345679,1,0,0,1.784,submitButton,11.0140647,-0.283950617,-0.408641975,0,0,0,2,52,172,37,1,53,67501,N,180,2022-02-16_15h22.35.008,orientation adjustment blockN,2021.2.3,MacIntel,62.5,,,,,,,
,,,,,,,,,,,,,,,,,21.66666667,72,20,75,49.66666667,22.33333333,22.33333333,0.402469136,-0.325925926,1,0,0,0.689,submitButton,11.08525507,-0.302469136,-0.397530864,0,0,0,2,53,173,56,1,72,67501,N,180,2022-02-16_15h22.35.008,orientation adjustment blockN,2021.2.3,MacIntel,62.5,,,,,,,
,,,,,,,,,,,,,,,,,40,65,20,75,43,22,22,0.397530864,-0.318518519,1,0,0,1.268,submitButton,11.15347222,-0.274074074,-0.379012346,0,0,0,2,54,174,49,1,65,67501,N,180,2022-02-16_15h22.35.008,orientation adjustment blockN,2021.2.3,MacIntel,62.5,,,,,,,
,,,,,,,,,,,,,,,,,63.88888889,-75,20,75,-65.11111111,9.888888889,9.888888889,-0.34691358,-0.391358025,1,0,0,1.754,submitButton,11.14561767,-0.34691358,-0.391358025,0,0,0,2,55,175,59,1,75,67501,N,180,2022-02-16_15h22.35.008,orientation adjustment blockN,2021.2.3,MacIntel,62.5,,,,,,,
,,,,,,,,,,,,,,,,,-38.33333333,35,20,75,46.66666667,11.66666667,11.66666667,0.235802469,-0.318518519,1,0,0,0.239,submitButton,11.14883402,-0.254320988,-0.383950617,0,0,0,2,56,176,19,1,35,67501,N,180,2022-02-16_15h22.35.008,orientation adjustment blockN,2021.2.3,MacIntel,62.5,,,,,,,
,,,,,,,,,,,,,,,,,-22.77777778,46,20,75,47.22222222,1.222222222,1.222222222,0.191358025,-0.308641975,1,0,0,0.261,submitButton,11.08793456,-0.227160494,-0.391358025,0,0,0,2,57,177,30,1,46,67501,N,180,2022-02-16_15h22.35.008,orientation adjustment blockN,2021.2.3,MacIntel,62.5,,,,,,,
,,,,,,,,,,,,,,,,,38.88888889,-55,20,75,-51.11111111,3.888888889,3.888888889,0.39382716,-0.302469136,1,0,0,0.362,submitButton,11.04403794,-0.303703704,-0.385185185,0,0,0,2,58,178,39,1,55,67501,N,180,2022-02-16_15h22.35.008,orientation adjustment blockN,2021.2.3,MacIntel,62.5,,,,,,,
,,,,,,,,,,,,,,,,,53.33333333,21,20,75,36.33333333,15.33333333,15.33333333,0.201234568,-0.316049383,1,0,0,0.161,submitButton,11.07003367,-0.311111111,-0.407407407,0,0,0,2,59,179,5,1,21,67501,N,180,2022-02-16_15h22.35.008,orientation adjustment blockN,2021.2.3,MacIntel,62.5,,,,,,,
,,,,,,,,,,,,,,,,,,,,,,,,,,,,,,,,,,,,,,,,,,,67501,N,180,2022-02-16_15h22.35.008,orientation adjustment blockN,2021.2.3,MacIntel,62.5,,0.445679012,-0.40617284,1,0,0,EndButtonTxt
