consentMouse1.x,consentMouse1.y,consentMouse1.leftButton,consentMouse1.midButton,consentMouse1.rightButton,consentMouse1.clicked_name,consent_Mouse.x,consent_Mouse.y,consent_Mouse.leftButton,consent_Mouse.midButton,consent_Mouse.rightButton,consent_Mouse.clicked_name,startMouse.x,startMouse.y,startMouse.leftButton,startMouse.midButton,startMouse.rightButton,start_distance,fixedOri,minimalDistance,maxOri,this_ori,accuracy,presented_accuracy,submitMouse.x,submitMouse.y,submitMouse.leftButton,submitMouse.midButton,submitMouse.rightButton,submitMouse.time,submitMouse.clicked_name,block_accuracy,continueMouse.x,continueMouse.y,continueMouse.leftButton,continueMouse.midButton,continueMouse.rightButton,trials.thisRepN,trials.thisTrialN,trials.thisN,trials.thisIndex,trials.ran,startOri,participant,condition,nTrials,date,expName,psychopyVersion,OS,frameRate,continueMouse.clicked_name,EndButtonMouse.x,EndButtonMouse.y,EndButtonMouse.leftButton,EndButtonMouse.midButton,EndButtonMouse.rightButton,EndButtonMouse.clicked_name
0.327083333,-0.393229167,1,0,0,consent_button1,0.409114583,-0.403645833,1,0,0,consent_button,0.268489583,-0.311197917,1,0,0,27.22222222,46,20,75,175.2222222,50.77777778,50.77777778,0.213802083,-0.305989583,1,0,0,2.714700001,submitButton,50.77777778,-0.23671875,-0.389322917,0,0,0,0,0,0,30,1,46,67561,N,180,2022-02-15_19h26.18.359,orientation adjustment blockN,2021.2.3,Win32,12.00062403,,,,,,,
,,,,,,,,,,,,,,,,,-23.33333333,56,20,75,10.66666667,45.33333333,45.33333333,0.424739583,-0.298177083,1,0,0,2.4385,submitButton,48.05555556,-0.29140625,-0.416666667,0,0,0,0,1,1,40,1,56,67561,N,180,2022-02-15_19h26.18.359,orientation adjustment blockN,2021.2.3,Win32,12.00062403,,,,,,,
,,,,,,,,,,,,,,,,,-70.55555556,-64,20,75,-238.5555556,5.444444444,5.444444444,0.420833333,-0.290364583,1,0,0,0.636,submitButton,33.85185185,-0.2640625,-0.395833333,0,0,0,0,2,2,48,1,64,67561,N,180,2022-02-15_19h26.18.359,orientation adjustment blockN,2021.2.3,Win32,12.00062403,,,,,,,
,,,,,,,,,,,,,,,,,-75,50,20,75,42,8,8,0.187760417,-0.290364583,1,0,0,0.9495,submitButton,8,-0.19375,-0.404947917,0,0,0,0,3,3,34,1,50,67561,N,180,2022-02-15_19h26.18.359,orientation adjustment blockN,2021.2.3,Win32,12.00062403,,,,,,,
,,,,,,,,,,,,,,,,,-32.77777778,-31,20,75,-32.77777778,1.777777778,1.777777778,0.344010417,-0.30078125,1,0,0,0.532200001,submitButton,4.888888889,-0.175520833,-0.404947917,0,0,0,0,4,4,15,1,31,67561,N,180,2022-02-15_19h26.18.359,orientation adjustment blockN,2021.2.3,Win32,12.00062403,,,,,,,
,,,,,,,,,,,,,,,,,-52.22222222,-32,20,75,-39.22222222,7.222222222,7.222222222,0.229427083,-0.305989583,1,0,0,0.579800001,submitButton,5.666666667,-0.188541667,-0.397135417,0,0,0,0,5,5,16,1,32,67561,N,180,2022-02-15_19h26.18.359,orientation adjustment blockN,2021.2.3,Win32,12.00062403,,,,,,,
,,,,,,,,,,,,,,,,,40.55555556,20,20,75,27.55555556,7.555555556,7.555555556,0.38046875,-0.287760417,1,0,0,0.8276,submitButton,7.555555556,-0.163802083,-0.399739583,0,0,0,0,6,6,4,1,20,67561,N,180,2022-02-15_19h26.18.359,orientation adjustment blockN,2021.2.3,Win32,12.00062403,,,,,,,
,,,,,,,,,,,,,,,,,-67.77777778,49,20,75,32.22222222,16.77777778,16.77777778,0.4234375,-0.311197917,1,0,0,1.4679,submitButton,12.16666667,-0.269270833,-0.421875,0,0,0,0,7,7,33,1,49,67561,N,180,2022-02-15_19h26.18.359,orientation adjustment blockN,2021.2.3,Win32,12.00062403,,,,,,,
,,,,,,,,,,,,,,,,,-48.33333333,-40,20,75,-206.3333333,13.66666667,13.66666667,0.37265625,-0.2734375,1,0,0,0.2654,submitButton,12.66666667,-0.167708333,-0.397135417,0,0,0,0,8,8,24,1,40,67561,N,180,2022-02-15_19h26.18.359,orientation adjustment blockN,2021.2.3,Win32,12.00062403,,,,,,,
,,,,,,,,,,,,,,,,,46.11111111,-51,20,75,-35.88888889,15.11111111,15.11111111,0.410416667,-0.309895833,1,0,0,0.881799999,submitButton,15.11111111,-0.286197917,-0.401041667,0,0,0,0,9,9,35,1,51,67561,N,180,2022-02-15_19h26.18.359,orientation adjustment blockN,2021.2.3,Win32,12.00062403,,,,,,,
,,,,,,,,,,,,,,,,,72.77777778,37,20,75,40.77777778,3.777777778,3.777777778,0.39609375,-0.307291667,1,0,0,0.3449,submitButton,9.444444444,-0.241927083,-0.3984375,0,0,0,0,10,10,21,1,37,67561,N,180,2022-02-15_19h26.18.359,orientation adjustment blockN,2021.2.3,Win32,12.00062403,,,,,,,
,,,,,,,,,,,,,,,,,36.11111111,-69,20,75,-60.88888889,8.111111111,8.111111111,0.4078125,-0.287760417,1,0,0,1.183300001,submitButton,9,-0.179427083,-0.3984375,0,0,0,0,11,11,53,1,69,67561,N,180,2022-02-15_19h26.18.359,orientation adjustment blockN,2021.2.3,Win32,12.00062403,,,,,,,
,,,,,,,,,,,,,,,,,-47.77777778,67,20,75,47.22222222,19.77777778,19.77777778,0.42734375,-0.28125,1,0,0,1.2331,submitButton,19.77777778,-0.3109375,-0.41015625,0,0,0,0,12,12,51,1,67,67561,N,180,2022-02-15_19h26.18.359,orientation adjustment blockN,2021.2.3,Win32,12.00062403,,,,,,,
,,,,,,,,,,,,,,,,,-41.11111111,-38,20,75,-48.11111111,10.11111111,10.11111111,0.203385417,-0.307291667,1,0,0,0.850299999,submitButton,14.94444444,-0.136458333,-0.39453125,0,0,0,0,13,13,22,1,38,67561,N,180,2022-02-15_19h26.18.359,orientation adjustment blockN,2021.2.3,Win32,12.00062403,,,,,,,
,,,,,,,,,,,,,,,,,53.88888889,22,20,75,43.88888889,21.88888889,21.88888889,0.402604167,-0.28125,1,0,0,1.1785,submitButton,17.25925926,0.379166667,-0.411458333,1,0,0,0,14,14,6,1,22,67561,N,180,2022-02-15_19h26.18.359,orientation adjustment blockN,2021.2.3,Win32,12.00062403,continueButton,,,,,,
,,,,,,,,,,,,,,,,,-55,74,20,75,48,26,26,0.156510417,-0.278645833,1,0,0,4,submitButton,26,-0.238020833,-0.404947917,0,0,0,0,15,15,58,1,74,67561,N,180,2022-02-15_19h26.18.359,orientation adjustment blockN,2021.2.3,Win32,12.00062403,,,,,,,
,,,,,,,,,,,,,,,,,47.77777778,29,20,75,39.77777778,10.77777778,10.77777778,0.383072917,-0.29296875,1,0,0,0.9155,submitButton,18.38888889,-0.155989583,-0.3984375,0,0,0,0,16,16,13,1,29,67561,N,180,2022-02-15_19h26.18.359,orientation adjustment blockN,2021.2.3,Win32,12.00062403,,,,,,,
,,,,,,,,,,,,,,,,,46.11111111,-18,20,75,-15.88888889,2.111111111,2.111111111,0.379166667,-0.295572917,1,0,0,0.3675,submitButton,12.96296296,-0.136458333,-0.3984375,0,0,0,0,17,17,2,1,18,67561,N,180,2022-02-15_19h26.18.359,orientation adjustment blockN,2021.2.3,Win32,12.00062403,,,,,,,
,,,,,,,,,,,,,,,,,27.22222222,26,20,75,41.22222222,15.22222222,15.22222222,0.350520833,-0.278645833,1,0,0,0.5155,submitButton,13.52777778,-0.12734375,-0.408854167,0,0,0,0,18,18,10,1,26,67561,N,180,2022-02-15_19h26.18.359,orientation adjustment blockN,2021.2.3,Win32,12.00062403,,,,,,,
,,,,,,,,,,,,,,,,,-21.11111111,-44,20,75,-65.11111111,21.11111111,21.11111111,0.164322917,-0.299479167,1,0,0,1.265700001,submitButton,15.04444444,-0.208072917,-0.4140625,0,0,0,0,19,19,28,1,44,67561,N,180,2022-02-15_19h26.18.359,orientation adjustment blockN,2021.2.3,Win32,12.00062403,,,,,,,
,,,,,,,,,,,,,,,,,28.88888889,70,20,75,76.88888889,6.888888889,6.888888889,0.194270833,-0.313802083,1,0,0,0.930300001,submitButton,13.68518519,-0.109114583,-0.404947917,0,0,0,0,20,20,54,1,70,67561,N,180,2022-02-15_19h26.18.359,orientation adjustment blockN,2021.2.3,Win32,12.00062403,,,,,,,
,,,,,,,,,,,,,,,,,-42.77777778,47,20,75,-112.7777778,20.22222222,20.22222222,0.398697917,-0.28515625,1,0,0,2.6534,submitButton,14.61904762,-0.13515625,-0.395833333,0,0,0,0,21,21,31,1,47,67561,N,180,2022-02-15_19h26.18.359,orientation adjustment blockN,2021.2.3,Win32,12.00062403,,,,,,,
,,,,,,,,,,,,,,,,,-20.55555556,-62,20,75,-69.55555556,7.555555556,7.555555556,0.226822917,-0.302083333,1,0,0,0.834800001,submitButton,13.73611111,-0.257552083,-0.3984375,0,0,0,0,22,22,46,1,62,67561,N,180,2022-02-15_19h26.18.359,orientation adjustment blockN,2021.2.3,Win32,12.00062403,,,,,,,
,,,,,,,,,,,,,,,,,52.77777778,61,20,75,70.77777778,9.777777778,9.777777778,0.36875,-0.3046875,1,0,0,0.967,submitButton,13.2962963,-0.13125,-0.389322917,0,0,0,0,23,23,45,1,61,67561,N,180,2022-02-15_19h26.18.359,orientation adjustment blockN,2021.2.3,Win32,12.00062403,,,,,,,
,,,,,,,,,,,,,,,,,55.55555556,-72,20,75,-44.44444444,27.55555556,27.55555556,0.41171875,-0.291666667,1,0,0,1.5174,submitButton,14.72222222,-0.153385417,-0.395833333,0,0,0,0,24,24,56,1,72,67561,N,180,2022-02-15_19h26.18.359,orientation adjustment blockN,2021.2.3,Win32,12.00062403,,,,,,,
,,,,,,,,,,,,,,,,,73.88888889,-36,20,75,-7.111111111,28.88888889,28.88888889,0.41171875,-0.279947917,1,0,0,0.9644,submitButton,16.01010101,-0.1625,-0.412760417,0,0,0,0,25,25,20,1,36,67561,N,180,2022-02-15_19h26.18.359,orientation adjustment blockN,2021.2.3,Win32,12.00062403,,,,,,,
,,,,,,,,,,,,,,,,,70,-27,20,75,-13,14,14,0.363541667,-0.313802083,1,0,0,0.53,submitButton,15.84259259,-0.230208333,-0.411458333,0,0,0,0,26,26,11,1,27,67561,N,180,2022-02-15_19h26.18.359,orientation adjustment blockN,2021.2.3,Win32,12.00062403,,,,,,,
,,,,,,,,,,,,,,,,,26.66666667,-19,20,75,-17.33333333,1.666666667,1.666666667,0.41953125,-0.29296875,1,0,0,1.417,submitButton,14.75213675,-0.226302083,-0.420572917,0,0,0,0,27,27,3,1,19,67561,N,180,2022-02-15_19h26.18.359,orientation adjustment blockN,2021.2.3,Win32,12.00062403,,,,,,,
,,,,,,,,,,,,,,,,,-55.55555556,-45,20,75,-208.5555556,16.44444444,16.44444444,0.389583333,-0.290364583,1,0,0,0.733799999,submitButton,14.87301587,-0.118229167,-0.399739583,0,0,0,0,28,28,29,1,45,67561,N,180,2022-02-15_19h26.18.359,orientation adjustment blockN,2021.2.3,Win32,12.00062403,,,,,,,
,,,,,,,,,,,,,,,,,73.88888889,48,20,75,227.8888889,0.111111111,0.111111111,0.20078125,-0.291666667,1,0,0,0.700799999,submitButton,13.88888889,0.289322917,-0.393229167,1,0,0,0,29,29,32,1,48,67561,N,180,2022-02-15_19h26.18.359,orientation adjustment blockN,2021.2.3,Win32,12.00062403,continueButton,,,,,,
,,,,,,,,,,,,,,,,,20,35,20,75,45,10,10,0.41171875,-0.317708333,1,0,0,1.127300001,submitButton,13.64583333,-0.133854167,-0.408854167,0,0,0,0,30,30,19,1,35,67561,N,180,2022-02-15_19h26.18.359,orientation adjustment blockN,2021.2.3,Win32,12.00062403,,,,,,,
,,,,,,,,,,,,,,,,,27.77777778,41,20,75,43.77777778,2.777777778,2.777777778,0.371354167,-0.30859375,1,0,0,0.753,submitButton,13.00653595,-0.28359375,-0.411458333,0,0,0,0,31,31,25,1,41,67561,N,180,2022-02-15_19h26.18.359,orientation adjustment blockN,2021.2.3,Win32,12.00062403,,,,,,,
,,,,,,,,,,,,,,,,,-35.55555556,53,20,75,48.44444444,4.555555556,4.555555556,0.2125,-0.30078125,1,0,0,1.366,submitButton,12.53703704,-0.206770833,-0.407552083,0,0,0,0,32,32,37,1,53,67561,N,180,2022-02-15_19h26.18.359,orientation adjustment blockN,2021.2.3,Win32,12.00062403,,,,,,,
,,,,,,,,,,,,,,,,,20.55555556,-17,20,75,-8.444444444,8.555555556,8.555555556,0.347916667,-0.294270833,1,0,0,0.2676,submitButton,12.32748538,-0.149479167,-0.403645833,0,0,0,0,33,33,1,1,17,67561,N,180,2022-02-15_19h26.18.359,orientation adjustment blockN,2021.2.3,Win32,12.00062403,,,,,,,
,,,,,,,,,,,,,,,,,-35,-73,20,75,-77,4,4,0.198177083,-0.317708333,1,0,0,0.539799999,submitButton,11.91111111,-0.149479167,-0.3984375,0,0,0,0,34,34,57,1,73,67561,N,180,2022-02-15_19h26.18.359,orientation adjustment blockN,2021.2.3,Win32,12.00062403,,,,,,,
,,,,,,,,,,,,,,,,,-51.11111111,-39,20,75,-65.11111111,26.11111111,26.11111111,0.37265625,-0.2734375,1,0,0,0.366,submitButton,12.58730159,-0.178125,-0.40625,0,0,0,0,35,35,23,1,39,67561,N,180,2022-02-15_19h26.18.359,orientation adjustment blockN,2021.2.3,Win32,12.00062403,,,,,,,
,,,,,,,,,,,,,,,,,-59.44444444,23,20,75,31.55555556,8.555555556,8.555555556,0.229427083,-0.294270833,1,0,0,0.918,submitButton,12.4040404,-0.148177083,-0.41015625,0,0,0,0,36,36,7,1,23,67561,N,180,2022-02-15_19h26.18.359,orientation adjustment blockN,2021.2.3,Win32,12.00062403,,,,,,,
,,,,,,,,,,,,,,,,,58.88888889,-28,20,75,-38.11111111,10.11111111,10.11111111,0.437760417,-0.282552083,1,0,0,0.498799999,submitButton,12.30434783,-0.1390625,-0.399739583,0,0,0,0,37,37,12,1,28,67561,N,180,2022-02-15_19h26.18.359,orientation adjustment blockN,2021.2.3,Win32,12.00062403,,,,,,,
,,,,,,,,,,,,,,,,,68.33333333,-54,20,75,-30.66666667,23.33333333,23.33333333,0.40390625,-0.278645833,1,0,0,1.2351,submitButton,12.76388889,-0.239322917,-0.395833333,0,0,0,0,38,38,38,1,54,67561,N,180,2022-02-15_19h26.18.359,orientation adjustment blockN,2021.2.3,Win32,12.00062403,,,,,,,
,,,,,,,,,,,,,,,,,63.88888889,-43,20,75,-15.11111111,27.88888889,27.88888889,0.393489583,-0.290364583,1,0,0,0.296200001,submitButton,13.36888889,-0.136458333,-0.399739583,0,0,0,0,39,39,27,1,43,67561,N,180,2022-02-15_19h26.18.359,orientation adjustment blockN,2021.2.3,Win32,12.00062403,,,,,,,
,,,,,,,,,,,,,,,,,-51.66666667,59,20,75,39.33333333,19.66666667,19.66666667,0.233333333,-0.29296875,1,0,0,0.309700001,submitButton,13.61111111,-0.146875,-0.41796875,0,0,0,0,40,40,43,1,59,67561,N,180,2022-02-15_19h26.18.359,orientation adjustment blockN,2021.2.3,Win32,12.00062403,,,,,,,
,,,,,,,,,,,,,,,,,35.55555556,-60,20,75,-74.44444444,14.44444444,14.44444444,0.40390625,-0.282552083,1,0,0,0.477400002,submitButton,13.64197531,-0.187239583,-0.3984375,0,0,0,0,41,41,44,1,60,67561,N,180,2022-02-15_19h26.18.359,orientation adjustment blockN,2021.2.3,Win32,12.00062403,,,,,,,
,,,,,,,,,,,,,,,,,32.22222222,-55,20,75,136.2222222,11.22222222,11.22222222,0.18125,-0.30859375,1,0,0,2.1845,submitButton,13.55555556,-0.209375,-0.411458333,0,0,0,0,42,42,39,1,55,67561,N,180,2022-02-15_19h26.18.359,orientation adjustment blockN,2021.2.3,Win32,12.00062403,,,,,,,
,,,,,,,,,,,,,,,,,-68.33333333,-16,20,75,-29.33333333,13.33333333,13.33333333,0.174739583,-0.309895833,1,0,0,0.749199999,submitButton,13.54789272,-0.191145833,-0.40625,0,0,0,0,43,43,0,1,16,67561,N,180,2022-02-15_19h26.18.359,orientation adjustment blockN,2021.2.3,Win32,12.00062403,,,,,,,
,,,,,,,,,,,,,,,,,-26.11111111,24,20,75,29.88888889,5.888888889,5.888888889,0.213802083,-0.298177083,1,0,0,0.7986,submitButton,13.29259259,0.440364583,-0.393229167,1,0,0,0,44,44,8,1,24,67561,N,180,2022-02-15_19h26.18.359,orientation adjustment blockN,2021.2.3,Win32,12.00062403,continueButton,,,,,,
,,,,,,,,,,,,,,,,,-50,57,20,75,48,9,9,0.225520833,-0.27734375,1,0,0,0.301699999,submitButton,13.15412186,-0.26015625,-0.39453125,0,0,0,0,45,45,41,1,57,67561,N,180,2022-02-15_19h26.18.359,orientation adjustment blockN,2021.2.3,Win32,12.00062403,,,,,,,
,,,,,,,,,,,,,,,,,-45,33,20,75,17,16,16,0.2125,-0.298177083,1,0,0,0.083799999,submitButton,13.24305556,-0.225,-0.389322917,0,0,0,0,46,46,17,1,33,67561,N,180,2022-02-15_19h26.18.359,orientation adjustment blockN,2021.2.3,Win32,12.00062403,,,,,,,
,,,,,,,,,,,,,,,,,40,-52,20,75,-32,20,20,0.373958333,-0.287760417,1,0,0,0.9495,submitButton,13.44781145,-0.18984375,-0.408854167,0,0,0,0,47,47,36,1,52,67561,N,180,2022-02-15_19h26.18.359,orientation adjustment blockN,2021.2.3,Win32,12.00062403,,,,,,,
,,,,,,,,,,,,,,,,,-38.88888889,65,20,75,47.11111111,17.88888889,17.88888889,0.179947917,-0.313802083,1,0,0,0.4014,submitButton,13.57843137,-0.163802083,-0.411458333,0,0,0,0,48,48,49,1,65,67561,N,180,2022-02-15_19h26.18.359,orientation adjustment blockN,2021.2.3,Win32,12.00062403,,,,,,,
,,,,,,,,,,,,,,,,,-36.11111111,-21,20,75,-40.11111111,19.11111111,19.11111111,0.13828125,-0.286458333,1,0,0,0.4656,submitButton,13.73650794,-0.1625,-0.407552083,0,0,0,0,49,49,5,1,21,67561,N,180,2022-02-15_19h26.18.359,orientation adjustment blockN,2021.2.3,Win32,12.00062403,,,,,,,
,,,,,,,,,,,,,,,,,-32.22222222,-68,20,75,-70.22222222,2.222222222,2.222222222,0.179947917,-0.290364583,1,0,0,0.483800001,submitButton,13.41666667,-0.159895833,-0.395833333,0,0,0,0,50,50,52,1,68,67561,N,180,2022-02-15_19h26.18.359,orientation adjustment blockN,2021.2.3,Win32,12.00062403,,,,,,,
,,,,,,,,,,,,,,,,,54.44444444,42,20,75,54.44444444,12.44444444,12.44444444,0.428645833,-0.295572917,1,0,0,1.582699999,submitButton,13.39039039,-0.13125,-0.404947917,0,0,0,0,51,51,26,1,42,67561,N,180,2022-02-15_19h26.18.359,orientation adjustment blockN,2021.2.3,Win32,12.00062403,,,,,,,
,,,,,,,,,,,,,,,,,-54.44444444,75,20,75,62.55555556,12.44444444,12.44444444,0.23984375,-0.287760417,1,0,0,0.5015,submitButton,13.36549708,-0.144270833,-0.3984375,0,0,0,0,52,52,59,1,75,67561,N,180,2022-02-15_19h26.18.359,orientation adjustment blockN,2021.2.3,Win32,12.00062403,,,,,,,
,,,,,,,,,,,,,,,,,-66.11111111,-30,20,75,-49.11111111,19.11111111,19.11111111,0.16171875,-0.278645833,1,0,0,0.349099998,submitButton,13.51282051,-0.262760417,-0.3984375,0,0,0,0,53,53,14,1,30,67561,N,180,2022-02-15_19h26.18.359,orientation adjustment blockN,2021.2.3,Win32,12.00062403,,,,,,,
,,,,,,,,,,,,,,,,,21.11111111,-71,20,75,-73.88888889,2.888888889,2.888888889,0.455989583,-0.282552083,1,0,0,1.202299999,submitButton,13.24722222,-0.187239583,-0.407552083,0,0,0,0,54,54,55,1,71,67561,N,180,2022-02-15_19h26.18.359,orientation adjustment blockN,2021.2.3,Win32,12.00062403,,,,,,,
,,,,,,,,,,,,,,,,,47.77777778,-34,20,75,-34.22222222,0.222222222,0.222222222,0.445572917,-0.278645833,1,0,0,1.332,submitButton,12.9295393,-0.24453125,-0.416666667,0,0,0,0,55,55,18,1,34,67561,N,180,2022-02-15_19h26.18.359,orientation adjustment blockN,2021.2.3,Win32,12.00062403,,,,,,,
,,,,,,,,,,,,,,,,,21.11111111,-25,20,75,-21.88888889,3.111111111,3.111111111,0.422135417,-0.29296875,1,0,0,1.7151,submitButton,12.6957672,-0.265364583,-0.404947917,0,0,0,0,56,56,9,1,25,67561,N,180,2022-02-15_19h26.18.359,orientation adjustment blockN,2021.2.3,Win32,12.00062403,,,,,,,
,,,,,,,,,,,,,,,,,61.11111111,58,20,75,219.1111111,18.88888889,18.88888889,0.186458333,-0.291666667,1,0,0,0.846200001,submitButton,12.83979328,-0.153385417,-0.415364583,0,0,0,0,57,57,42,1,58,67561,N,180,2022-02-15_19h26.18.359,orientation adjustment blockN,2021.2.3,Win32,12.00062403,,,,,,,
,,,,,,,,,,,,,,,,,34.44444444,63,20,75,47.44444444,15.55555556,15.55555556,0.36484375,-0.3046875,1,0,0,1.4165,submitButton,12.90151515,-0.19375,-0.424479167,0,0,0,0,58,58,47,1,63,67561,N,180,2022-02-15_19h26.18.359,orientation adjustment blockN,2021.2.3,Win32,12.00062403,,,,,,,
,,,,,,,,,,,,,,,,,34.44444444,-66,20,75,-61.55555556,4.444444444,4.444444444,0.41171875,-0.28125,1,0,0,0.600599998,submitButton,12.71358025,0.31015625,-0.401041667,1,0,0,0,59,59,50,1,66,67561,N,180,2022-02-15_19h26.18.359,orientation adjustment blockN,2021.2.3,Win32,12.00062403,continueButton,,,,,,
,,,,,,,,,,,,,,,,,-45,-49,20,75,-51,2,2,0.213802083,-0.294270833,1,0,0,1.024800001,submitButton,12.48067633,-0.215885417,-0.40625,0,0,0,1,0,60,33,1,49,67561,N,180,2022-02-15_19h26.18.359,orientation adjustment blockN,2021.2.3,Win32,12.00062403,,,,,,,
,,,,,,,,,,,,,,,,,-61.11111111,18,20,75,28.88888889,10.88888889,10.88888889,0.221614583,-0.299479167,1,0,0,0.984799999,submitButton,12.44680851,-0.19375,-0.416666667,0,0,0,1,1,61,2,1,18,67561,N,180,2022-02-15_19h26.18.359,orientation adjustment blockN,2021.2.3,Win32,12.00062403,,,,,,,
,,,,,,,,,,,,,,,,,65,-72,20,75,-49,23,23,0.429947917,-0.265625,1,0,0,0.750299999,submitButton,12.66666667,-0.149479167,-0.399739583,0,0,0,1,2,62,56,1,72,67561,N,180,2022-02-15_19h26.18.359,orientation adjustment blockN,2021.2.3,Win32,12.00062403,,,,,,,
,,,,,,,,,,,,,,,,,25,-45,20,75,-31,14,14,0.384375,-0.313802083,1,0,0,1.065799999,submitButton,12.69387755,-0.188541667,-0.40625,0,0,0,1,3,63,29,1,45,67561,N,180,2022-02-15_19h26.18.359,orientation adjustment blockN,2021.2.3,Win32,12.00062403,,,,,,,
,,,,,,,,,,,,,,,,,51.11111111,62,20,75,214.1111111,27.88888889,27.88888889,0.2125,-0.305989583,1,0,0,1.049200001,submitButton,12.99777778,-0.137760417,-0.408854167,0,0,0,1,4,64,46,1,62,67561,N,180,2022-02-15_19h26.18.359,orientation adjustment blockN,2021.2.3,Win32,12.00062403,,,,,,,
,,,,,,,,,,,,,,,,,-47.22222222,-37,20,75,-34.22222222,2.777777778,2.777777778,0.1734375,-0.30859375,1,0,0,1.211,submitButton,12.79738562,-0.22109375,-0.408854167,0,0,0,1,5,65,21,1,37,67561,N,180,2022-02-15_19h26.18.359,orientation adjustment blockN,2021.2.3,Win32,12.00062403,,,,,,,
,,,,,,,,,,,,,,,,,-30,-35,20,75,-40,5,5,0.178645833,-0.3046875,1,0,0,0.321700001,submitButton,12.6474359,-0.171614583,-0.390625,0,0,0,1,6,66,19,1,35,67561,N,180,2022-02-15_19h26.18.359,orientation adjustment blockN,2021.2.3,Win32,12.00062403,,,,,,,
,,,,,,,,,,,,,,,,,-35.55555556,48,20,75,35.44444444,12.55555556,12.55555556,0.207291667,-0.295572917,1,0,0,0.833700001,submitButton,12.64570231,-0.1546875,-0.39453125,0,0,0,1,7,67,32,1,48,67561,N,180,2022-02-15_19h26.18.359,orientation adjustment blockN,2021.2.3,Win32,12.00062403,,,,,,,
,,,,,,,,,,,,,,,,,-60,19,20,75,16,3,3,0.213802083,-0.302083333,1,0,0,0.433299999,submitButton,12.46707819,-0.157291667,-0.41015625,0,0,0,1,8,68,3,1,19,67561,N,180,2022-02-15_19h26.18.359,orientation adjustment blockN,2021.2.3,Win32,12.00062403,,,,,,,
,,,,,,,,,,,,,,,,,39.44444444,-41,20,75,-28.55555556,12.44444444,12.44444444,0.36875,-0.290364583,1,0,0,0.518200001,submitButton,12.46666667,-0.11171875,-0.407552083,0,0,0,1,9,69,25,1,41,67561,N,180,2022-02-15_19h26.18.359,orientation adjustment blockN,2021.2.3,Win32,12.00062403,,,,,,,
,,,,,,,,,,,,,,,,,-44.44444444,-74,20,75,-66.44444444,7.555555556,7.555555556,0.211197917,-0.295572917,1,0,0,1.7825,submitButton,12.37896825,-0.169010417,-0.395833333,0,0,0,1,10,70,58,1,74,67561,N,180,2022-02-15_19h26.18.359,orientation adjustment blockN,2021.2.3,Win32,12.00062403,,,,,,,
,,,,,,,,,,,,,,,,,-46.66666667,-34,20,75,-44.66666667,10.66666667,10.66666667,0.18515625,-0.295572917,1,0,0,1.131199999,submitButton,12.34892788,-0.305729167,-0.421875,0,0,0,1,11,71,18,1,34,67561,N,180,2022-02-15_19h26.18.359,orientation adjustment blockN,2021.2.3,Win32,12.00062403,,,,,,,
,,,,,,,,,,,,,,,,,28.88888889,27,20,75,31.88888889,4.888888889,4.888888889,0.415625,-0.2734375,1,0,0,1.197799999,submitButton,12.22030651,-0.1625,-0.388020833,0,0,0,1,12,72,11,1,27,67561,N,180,2022-02-15_19h26.18.359,orientation adjustment blockN,2021.2.3,Win32,12.00062403,,,,,,,
,,,,,,,,,,,,,,,,,34.44444444,54,20,75,60.44444444,6.444444444,6.444444444,0.413020833,-0.295572917,1,0,0,1.366300001,submitButton,12.12241055,-0.171614583,-0.3984375,0,0,0,1,13,73,38,1,54,67561,N,180,2022-02-15_19h26.18.359,orientation adjustment blockN,2021.2.3,Win32,12.00062403,,,,,,,
,,,,,,,,,,,,,,,,,-33.33333333,64,20,75,53.66666667,10.33333333,10.33333333,0.241145833,-0.298177083,1,0,0,0.8074,submitButton,12.09259259,0.336197917,-0.395833333,1,0,0,1,14,74,48,1,64,67561,N,180,2022-02-15_19h26.18.359,orientation adjustment blockN,2021.2.3,Win32,12.00062403,continueButton,,,,,,
,,,,,,,,,,,,,,,,,63.88888889,26,20,75,47.88888889,21.88888889,21.88888889,0.377864583,-0.29296875,1,0,0,0.5324,submitButton,12.25318761,-0.159895833,-0.403645833,0,0,0,1,15,75,10,1,26,67561,N,180,2022-02-15_19h26.18.359,orientation adjustment blockN,2021.2.3,Win32,12.00062403,,,,,,,
,,,,,,,,,,,,,,,,,65.55555556,42,20,75,219.5555556,2.444444444,2.444444444,0.174739583,-0.299479167,1,0,0,0.699,submitButton,12.09498208,-0.145572917,-0.393229167,0,0,0,1,16,76,26,1,42,67561,N,180,2022-02-15_19h26.18.359,orientation adjustment blockN,2021.2.3,Win32,12.00062403,,,,,,,
,,,,,,,,,,,,,,,,,-25.55555556,-31,20,75,-40.55555556,9.555555556,9.555555556,0.176041667,-0.32421875,1,0,0,0.5154,submitButton,12.05467372,-0.136458333,-0.401041667,0,0,0,1,17,77,15,1,31,67561,N,180,2022-02-15_19h26.18.359,orientation adjustment blockN,2021.2.3,Win32,12.00062403,,,,,,,
,,,,,,,,,,,,,,,,,-36.11111111,-68,20,75,-228.1111111,19.88888889,19.88888889,0.422135417,-0.286458333,1,0,0,0.7359,submitButton,12.17708333,-0.148177083,-0.403645833,0,0,0,1,18,78,52,1,68,67561,N,180,2022-02-15_19h26.18.359,orientation adjustment blockN,2021.2.3,Win32,12.00062403,,,,,,,
,,,,,,,,,,,,,,,,,-51.66666667,-25,20,75,-43.66666667,18.66666667,18.66666667,0.170833333,-0.299479167,1,0,0,0.5144,submitButton,12.27692308,-0.12734375,-0.393229167,0,0,0,1,19,79,9,1,25,67561,N,180,2022-02-15_19h26.18.359,orientation adjustment blockN,2021.2.3,Win32,12.00062403,,,,,,,
,,,,,,,,,,,,,,,,,-44.44444444,71,20,75,69.55555556,1.444444444,1.444444444,0.165625,-0.298177083,1,0,0,1.0165,submitButton,12.11279461,-0.11953125,-0.389322917,0,0,0,1,20,80,55,1,71,67561,N,180,2022-02-15_19h26.18.359,orientation adjustment blockN,2021.2.3,Win32,12.00062403,,,,,,,
,,,,,,,,,,,,,,,,,-46.66666667,24,20,75,13.33333333,10.66666667,10.66666667,0.182552083,-0.290364583,1,0,0,0.8011,submitButton,12.09121061,-0.159895833,-0.415364583,0,0,0,1,21,81,8,1,24,67561,N,180,2022-02-15_19h26.18.359,orientation adjustment blockN,2021.2.3,Win32,12.00062403,,,,,,,
,,,,,,,,,,,,,,,,,-29.44444444,36,20,75,35.55555556,0.444444444,0.444444444,0.211197917,-0.29296875,1,0,0,0.7676,submitButton,11.91993464,-0.15078125,-0.40625,0,0,0,1,22,82,20,1,36,67561,N,180,2022-02-15_19h26.18.359,orientation adjustment blockN,2021.2.3,Win32,12.00062403,,,,,,,
,,,,,,,,,,,,,,,,,40,-39,20,75,-29,10,10,0.385677083,-0.28515625,1,0,0,0.982299999,submitButton,11.8921095,-0.126041667,-0.407552083,0,0,0,1,23,83,23,1,39,67561,N,180,2022-02-15_19h26.18.359,orientation adjustment blockN,2021.2.3,Win32,12.00062403,,,,,,,
,,,,,,,,,,,,,,,,,34.44444444,-21,20,75,-17.55555556,3.444444444,3.444444444,0.418229167,-0.291666667,1,0,0,0.449700001,submitButton,11.77142857,-0.141666667,-0.38671875,0,0,0,1,24,84,5,1,21,67561,N,180,2022-02-15_19h26.18.359,orientation adjustment blockN,2021.2.3,Win32,12.00062403,,,,,,,
,,,,,,,,,,,,,,,,,-66.11111111,-56,20,75,-234.1111111,1.888888889,1.888888889,0.394791667,-0.298177083,1,0,0,1.6501,submitButton,11.63223787,-0.2953125,-0.407552083,0,0,0,1,25,85,40,1,56,67561,N,180,2022-02-15_19h26.18.359,orientation adjustment blockN,2021.2.3,Win32,12.00062403,,,,,,,
,,,,,,,,,,,,,,,,,-20,-59,20,75,-79,20,20,-0.188541667,-0.39453125,1,0,0,1.516700001,submitButton,11.74845679,-0.188541667,-0.39453125,0,0,0,1,26,86,43,1,59,67561,N,180,2022-02-15_19h26.18.359,orientation adjustment blockN,2021.2.3,Win32,12.00062403,,,,,,,
,,,,,,,,,,,,,,,,,22.22222222,-55,20,75,-43.77777778,11.22222222,11.22222222,0.4,-0.303385417,1,0,0,1.0239,submitButton,11.7412481,-0.129947917,-0.401041667,0,0,0,1,27,87,39,1,55,67561,N,180,2022-02-15_19h26.18.359,orientation adjustment blockN,2021.2.3,Win32,12.00062403,,,,,,,
,,,,,,,,,,,,,,,,,-52.22222222,52,20,75,42.77777778,9.222222222,9.222222222,0.19296875,-0.287760417,1,0,0,0.6295,submitButton,11.70720721,-0.14296875,-0.403645833,0,0,0,1,28,88,36,1,52,67561,N,180,2022-02-15_19h26.18.359,orientation adjustment blockN,2021.2.3,Win32,12.00062403,,,,,,,
,,,,,,,,,,,,,,,,,-36.66666667,70,20,75,65.33333333,4.666666667,4.666666667,0.174739583,-0.282552083,1,0,0,0.3656,submitButton,11.61333333,0.261979167,-0.39453125,1,0,0,1,29,89,54,1,70,67561,N,180,2022-02-15_19h26.18.359,orientation adjustment blockN,2021.2.3,Win32,12.00062403,continueButton,,,,,,
,,,,,,,,,,,,,,,,,-25.55555556,58,20,75,44.44444444,13.55555556,13.55555556,0.202083333,-0.295572917,1,0,0,0.4466,submitButton,11.63888889,-0.175520833,-0.40234375,0,0,0,1,30,90,42,1,58,67561,N,180,2022-02-15_19h26.18.359,orientation adjustment blockN,2021.2.3,Win32,12.00062403,,,,,,,
,,,,,,,,,,,,,,,,,32.77777778,17,20,75,38.77777778,21.77777778,21.77777778,0.36875,-0.296875,1,0,0,0.5589,submitButton,11.77056277,-0.171614583,-0.390625,0,0,0,1,31,91,1,1,17,67561,N,180,2022-02-15_19h26.18.359,orientation adjustment blockN,2021.2.3,Win32,12.00062403,,,,,,,
,,,,,,,,,,,,,,,,,51.66666667,63,20,75,221.6666667,21.33333333,21.33333333,0.1890625,-0.287760417,1,0,0,0.4204,submitButton,11.89316239,-0.129947917,-0.391927083,0,0,0,1,32,92,47,1,63,67561,N,180,2022-02-15_19h26.18.359,orientation adjustment blockN,2021.2.3,Win32,12.00062403,,,,,,,
,,,,,,,,,,,,,,,,,41.11111111,-43,20,75,-31.88888889,11.11111111,11.11111111,0.375260417,-0.3125,1,0,0,0.3831,submitButton,11.88326301,-0.12734375,-0.391927083,0,0,0,1,33,93,27,1,43,67561,N,180,2022-02-15_19h26.18.359,orientation adjustment blockN,2021.2.3,Win32,12.00062403,,,,,,,
,,,,,,,,,,,,,,,,,-34.44444444,22,20,75,29.55555556,7.555555556,7.555555556,0.187760417,-0.296875,1,0,0,0.253800001,submitButton,11.82916667,-0.146875,-0.40234375,0,0,0,1,34,94,6,1,22,67561,N,180,2022-02-15_19h26.18.359,orientation adjustment blockN,2021.2.3,Win32,12.00062403,,,,,,,
,,,,,,,,,,,,,,,,,62.22222222,23,20,75,53.22222222,30.22222222,30.22222222,0.355729167,-0.270833333,1,0,0,0.3229,submitButton,12.05624143,-0.1625,-0.411458333,0,0,0,1,35,95,7,1,23,67561,N,180,2022-02-15_19h26.18.359,orientation adjustment blockN,2021.2.3,Win32,12.00062403,,,,,,,
,,,,,,,,,,,,,,,,,71.66666667,61,20,75,241.6666667,0.666666667,0.666666667,0.205989583,-0.294270833,1,0,0,0.7086,submitButton,11.91734417,-0.109114583,-0.389322917,0,0,0,1,36,96,45,1,61,67561,N,180,2022-02-15_19h26.18.359,orientation adjustment blockN,2021.2.3,Win32,12.00062403,,,,,,,
,,,,,,,,,,,,,,,,,-51.66666667,-46,20,75,-236.6666667,10.66666667,10.66666667,0.418229167,-0.2890625,1,0,0,1.198699999,submitButton,11.90227577,-0.146875,-0.399739583,0,0,0,1,37,97,30,1,46,67561,N,180,2022-02-15_19h26.18.359,orientation adjustment blockN,2021.2.3,Win32,12.00062403,,,,,,,
,,,,,,,,,,,,,,,,,34.44444444,-30,20,75,-33.55555556,3.555555556,3.555555556,0.390885417,-0.298177083,1,0,0,0.2175,submitButton,11.80291005,-0.163802083,-0.40234375,0,0,0,1,38,98,14,1,30,67561,N,180,2022-02-15_19h26.18.359,orientation adjustment blockN,2021.2.3,Win32,12.00062403,,,,,,,
,,,,,,,,,,,,,,,,,73.33333333,69,20,75,59.33333333,9.666666667,9.666666667,0.405208333,-0.287760417,1,0,0,1.051200001,submitButton,11.77777778,-0.271875,-0.393229167,0,0,0,1,39,99,53,1,69,67561,N,180,2022-02-15_19h26.18.359,orientation adjustment blockN,2021.2.3,Win32,12.00062403,,,,,,,
,,,,,,,,,,,,,,,,,-45,-38,20,75,-47,9,9,0.359635417,-0.299479167,1,0,0,0.6166,submitButton,11.74547804,-0.215885417,-0.404947917,0,0,0,1,40,100,22,1,38,67561,N,180,2022-02-15_19h26.18.359,orientation adjustment blockN,2021.2.3,Win32,12.00062403,,,,,,,
,,,,,,,,,,,,,,,,,-26.66666667,-40,20,75,-42.66666667,2.666666667,2.666666667,0.165625,-0.299479167,1,0,0,1.516199999,submitButton,11.64112388,-0.13125,-0.39453125,0,0,0,1,41,101,24,1,40,67561,N,180,2022-02-15_19h26.18.359,orientation adjustment blockN,2021.2.3,Win32,12.00062403,,,,,,,
,,,,,,,,,,,,,,,,,55,-60,20,75,-53,7,7,0.402604167,-0.282552083,1,0,0,0.3376,submitButton,11.58838384,-0.149479167,-0.401041667,0,0,0,1,42,102,44,1,60,67561,N,180,2022-02-15_19h26.18.359,orientation adjustment blockN,2021.2.3,Win32,12.00062403,,,,,,,
,,,,,,,,,,,,,,,,,-29.44444444,-28,20,75,-27.44444444,0.555555556,0.555555556,0.199479167,-0.27734375,1,0,0,0.4824,submitButton,11.46441948,-0.1546875,-0.41015625,0,0,0,1,43,103,12,1,28,67561,N,180,2022-02-15_19h26.18.359,orientation adjustment blockN,2021.2.3,Win32,12.00062403,,,,,,,
,,,,,,,,,,,,,,,,,42.77777778,20,20,75,38.77777778,18.77777778,18.77777778,0.383072917,-0.291666667,1,0,0,1.0661,submitButton,11.54567901,0.289322917,-0.3828125,1,0,0,1,44,104,4,1,20,67561,N,180,2022-02-15_19h26.18.359,orientation adjustment blockN,2021.2.3,Win32,12.00062403,continueButton,,,,,,
,,,,,,,,,,,,,,,,,62.77777778,51,20,75,224.7777778,6.222222222,6.222222222,0.21640625,-0.27734375,1,0,0,0.501,submitButton,11.48717949,-0.171614583,-0.391927083,0,0,0,1,45,105,35,1,51,67561,N,180,2022-02-15_19h26.18.359,orientation adjustment blockN,2021.2.3,Win32,12.00062403,,,,,,,
,,,,,,,,,,,,,,,,,68.88888889,16,20,75,41.88888889,25.88888889,25.88888889,0.428645833,-0.28515625,1,0,0,1.6336,submitButton,11.64371981,-0.257552083,-0.41796875,0,0,0,1,46,106,0,1,16,67561,N,180,2022-02-15_19h26.18.359,orientation adjustment blockN,2021.2.3,Win32,12.00062403,,,,,,,
,,,,,,,,,,,,,,,,,55.55555556,47,20,75,208.5555556,18.44444444,18.44444444,0.23984375,-0.272135417,1,0,0,0.3519,submitButton,11.71684588,-0.202864583,-0.390625,0,0,0,1,47,107,31,1,47,67561,N,180,2022-02-15_19h26.18.359,orientation adjustment blockN,2021.2.3,Win32,12.00062403,,,,,,,
,,,,,,,,,,,,,,,,,53.88888889,66,20,75,236.8888889,9.111111111,9.111111111,0.241145833,-0.290364583,1,0,0,0.316299999,submitButton,11.6891253,-0.133854167,-0.404947917,0,0,0,1,48,108,50,1,66,67561,N,180,2022-02-15_19h26.18.359,orientation adjustment blockN,2021.2.3,Win32,12.00062403,,,,,,,
,,,,,,,,,,,,,,,,,-33.33333333,75,20,75,72.66666667,2.333333333,2.333333333,0.22421875,-0.286458333,1,0,0,0.465200001,submitButton,11.59064327,-0.1546875,-0.412760417,0,0,0,1,49,109,59,1,75,67561,N,180,2022-02-15_19h26.18.359,orientation adjustment blockN,2021.2.3,Win32,12.00062403,,,,,,,
,,,,,,,,,,,,,,,,,54.44444444,-32,20,75,-45.55555556,13.55555556,13.55555556,0.393489583,-0.28125,1,0,0,0.726800001,submitButton,11.61111111,-0.13515625,-0.388020833,0,0,0,1,50,110,16,1,32,67561,N,180,2022-02-15_19h26.18.359,orientation adjustment blockN,2021.2.3,Win32,12.00062403,,,,,,,
,,,,,,,,,,,,,,,,,72.22222222,29,20,75,209.2222222,0.222222222,0.222222222,0.190364583,-0.27734375,1,0,0,0.200300001,submitButton,11.49369989,-0.126041667,-0.39453125,0,0,0,1,51,111,13,1,29,67561,N,180,2022-02-15_19h26.18.359,orientation adjustment blockN,2021.2.3,Win32,12.00062403,,,,,,,
,,,,,,,,,,,,,,,,,22.22222222,73,20,75,113.2222222,40.22222222,40.22222222,0.168229167,-0.276041667,1,0,0,1.532300001,submitButton,11.78684807,-0.137760417,-0.391927083,0,0,0,1,52,112,57,1,73,67561,N,180,2022-02-15_19h26.18.359,orientation adjustment blockN,2021.2.3,Win32,12.00062403,,,,,,,
,,,,,,,,,,,,,,,,,72.22222222,-57,20,75,-50.77777778,6.222222222,6.222222222,0.373958333,-0.282552083,1,0,0,0.576599998,submitButton,11.73063973,-0.225,-0.403645833,0,0,0,1,53,113,41,1,57,67561,N,180,2022-02-15_19h26.18.359,orientation adjustment blockN,2021.2.3,Win32,12.00062403,,,,,,,
,,,,,,,,,,,,,,,,,63.33333333,65,20,75,232.3333333,12.66666667,12.66666667,0.18125,-0.283854167,1,0,0,0.4949,submitButton,11.74,-0.144270833,-0.395833333,0,0,0,1,54,114,49,1,65,67561,N,180,2022-02-15_19h26.18.359,orientation adjustment blockN,2021.2.3,Win32,12.00062403,,,,,,,
,,,,,,,,,,,,,,,,,-65.55555556,44,20,75,42.44444444,1.555555556,1.555555556,0.182552083,-0.307291667,1,0,0,0.6975,submitButton,11.63916392,-0.136458333,-0.415364583,0,0,0,1,55,115,28,1,44,67561,N,180,2022-02-15_19h26.18.359,orientation adjustment blockN,2021.2.3,Win32,12.00062403,,,,,,,
,,,,,,,,,,,,,,,,,32.22222222,-50,20,75,-38.77777778,11.22222222,11.22222222,0.370052083,-0.282552083,1,0,0,0.4986,submitButton,11.63507625,-0.126041667,-0.41015625,0,0,0,1,56,116,34,1,50,67561,N,180,2022-02-15_19h26.18.359,orientation adjustment blockN,2021.2.3,Win32,12.00062403,,,,,,,
,,,,,,,,,,,,,,,,,-45.55555556,-33,20,75,-53.55555556,20.55555556,20.55555556,0.164322917,-0.290364583,1,0,0,0.761,submitButton,11.72168285,-0.198958333,-0.393229167,0,0,0,1,57,117,17,1,33,67561,N,180,2022-02-15_19h26.18.359,orientation adjustment blockN,2021.2.3,Win32,12.00062403,,,,,,,
,,,,,,,,,,,,,,,,,-47.22222222,-53,20,75,-53.22222222,0.222222222,0.222222222,0.26328125,-0.2890625,1,0,0,1.057099998,submitButton,11.61111111,-0.192447917,-0.393229167,0,0,0,1,58,118,37,1,53,67561,N,180,2022-02-15_19h26.18.359,orientation adjustment blockN,2021.2.3,Win32,12.00062403,,,,,,,
,,,,,,,,,,,,,,,,,37.22222222,-67,20,75,-68.77777778,1.777777778,1.777777778,0.409114583,-0.278645833,1,0,0,0.711599998,submitButton,11.51746032,0.31796875,-0.401041667,1,0,0,1,59,119,51,1,67,67561,N,180,2022-02-15_19h26.18.359,orientation adjustment blockN,2021.2.3,Win32,12.00062403,continueButton,,,,,,
,,,,,,,,,,,,,,,,,62.77777778,74,20,75,221.7777778,32.22222222,32.22222222,0.242447917,-0.3046875,1,0,0,0.565200001,submitButton,11.71278826,-0.12734375,-0.3984375,0,0,0,2,0,120,58,1,74,67561,N,180,2022-02-15_19h26.18.359,orientation adjustment blockN,2021.2.3,Win32,12.00062403,,,,,,,
,,,,,,,,,,,,,,,,,-60.55555556,34,20,75,33.44444444,0.555555556,0.555555556,0.20859375,-0.28515625,1,0,0,0.376800001,submitButton,11.60851506,-0.1859375,-0.399739583,0,0,0,2,1,121,18,1,34,67561,N,180,2022-02-15_19h26.18.359,orientation adjustment blockN,2021.2.3,Win32,12.00062403,,,,,,,
,,,,,,,,,,,,,,,,,28.33333333,-33,20,75,-21.66666667,11.33333333,11.33333333,0.38046875,-0.28515625,1,0,0,0.8631,submitButton,11.60596708,-0.1546875,-0.3984375,0,0,0,2,2,122,17,1,33,67561,N,180,2022-02-15_19h26.18.359,orientation adjustment blockN,2021.2.3,Win32,12.00062403,,,,,,,
,,,,,,,,,,,,,,,,,55,55,20,75,220,15,15,0.1890625,-0.286458333,1,0,0,0.5945,submitButton,11.63710499,-0.227604167,-0.395833333,0,0,0,2,3,123,39,1,55,67561,N,180,2022-02-15_19h26.18.359,orientation adjustment blockN,2021.2.3,Win32,12.00062403,,,,,,,
,,,,,,,,,,,,,,,,,43.33333333,62,20,75,219.3333333,22.66666667,22.66666667,0.1734375,-0.303385417,1,0,0,0.498800001,submitButton,11.73737374,-0.1390625,-0.40625,0,0,0,2,4,124,46,1,62,67561,N,180,2022-02-15_19h26.18.359,orientation adjustment blockN,2021.2.3,Win32,12.00062403,,,,,,,
,,,,,,,,,,,,,,,,,-54.44444444,-51,20,75,-223.4444444,7.555555556,7.555555556,0.422135417,-0.295572917,1,0,0,0.5826,submitButton,11.6996997,-0.13515625,-0.38671875,0,0,0,2,5,125,35,1,51,67561,N,180,2022-02-15_19h26.18.359,orientation adjustment blockN,2021.2.3,Win32,12.00062403,,,,,,,
,,,,,,,,,,,,,,,,,48.88888889,23,20,75,41.88888889,18.88888889,18.88888889,0.362239583,-0.294270833,1,0,0,0.3986,submitButton,11.76388889,-0.258854167,-0.415364583,0,0,0,2,6,126,7,1,23,67561,N,180,2022-02-15_19h26.18.359,orientation adjustment blockN,2021.2.3,Win32,12.00062403,,,,,,,
,,,,,,,,,,,,,,,,,-59.44444444,-20,20,75,-24.44444444,4.444444444,4.444444444,0.1734375,-0.28515625,1,0,0,0.865800001,submitButton,11.69911504,-0.16640625,-0.407552083,0,0,0,2,7,127,4,1,20,67561,N,180,2022-02-15_19h26.18.359,orientation adjustment blockN,2021.2.3,Win32,12.00062403,,,,,,,
,,,,,,,,,,,,,,,,,20.55555556,45,20,75,46.55555556,1.555555556,1.555555556,0.379166667,-0.307291667,1,0,0,0.631799999,submitButton,11.61013645,-0.14296875,-0.40625,0,0,0,2,8,128,29,1,45,67561,N,180,2022-02-15_19h26.18.359,orientation adjustment blockN,2021.2.3,Win32,12.00062403,,,,,,,
,,,,,,,,,,,,,,,,,-64.44444444,58,20,75,45.55555556,12.44444444,12.44444444,0.13828125,-0.3046875,1,0,0,0.2991,submitButton,11.6173913,-0.144270833,-0.391927083,0,0,0,2,9,129,42,1,58,67561,N,180,2022-02-15_19h26.18.359,orientation adjustment blockN,2021.2.3,Win32,12.00062403,,,,,,,
,,,,,,,,,,,,,,,,,41.66666667,-68,20,75,-72.33333333,4.333333333,4.333333333,0.4,-0.286458333,1,0,0,0.2836,submitButton,11.5545977,-0.208072917,-0.41796875,0,0,0,2,10,130,52,1,68,67561,N,180,2022-02-15_19h26.18.359,orientation adjustment blockN,2021.2.3,Win32,12.00062403,,,,,,,
,,,,,,,,,,,,,,,,,53.33333333,-71,20,75,-52.66666667,18.33333333,18.33333333,0.4,-0.309895833,1,0,0,0.433299999,submitButton,11.61253561,-0.152083333,-0.3984375,0,0,0,2,11,131,55,1,71,67561,N,180,2022-02-15_19h26.18.359,orientation adjustment blockN,2021.2.3,Win32,12.00062403,,,,,,,
,,,,,,,,,,,,,,,,,24.44444444,73,20,75,97.44444444,24.44444444,24.44444444,-0.12734375,-0.397135417,1,0,0,1.5136,submitButton,11.7212806,-0.12734375,-0.397135417,0,0,0,2,12,132,57,1,73,67561,N,180,2022-02-15_19h26.18.359,orientation adjustment blockN,2021.2.3,Win32,12.00062403,,,,,,,
,,,,,,,,,,,,,,,,,-57.22222222,-52,20,75,-62.22222222,10.22222222,10.22222222,0.176041667,-0.286458333,1,0,0,0.3495,submitButton,11.70868347,-0.180729167,-0.391927083,0,0,0,2,13,133,36,1,52,67561,N,180,2022-02-15_19h26.18.359,orientation adjustment blockN,2021.2.3,Win32,12.00062403,,,,,,,
,,,,,,,,,,,,,,,,,-60.55555556,-75,20,75,-232.5555556,22.44444444,22.44444444,0.405208333,-0.283854167,1,0,0,0.9294,submitButton,11.79814815,0.291927083,-0.395833333,1,0,0,2,14,134,59,1,75,67561,N,180,2022-02-15_19h26.18.359,orientation adjustment blockN,2021.2.3,Win32,12.00062403,continueButton,,,,,,
,,,,,,,,,,,,,,,,,25.55555556,-65,20,75,-56.44444444,8.555555556,8.555555556,0.39609375,-0.30859375,1,0,0,0.416300001,submitButton,11.77134986,-0.12734375,-0.3828125,0,0,0,2,15,135,49,1,65,67561,N,180,2022-02-15_19h26.18.359,orientation adjustment blockN,2021.2.3,Win32,12.00062403,,,,,,,
,,,,,,,,,,,,,,,,,43.88888889,-46,20,75,-52.11111111,6.111111111,6.111111111,0.37265625,-0.296875,1,0,0,0.399700001,submitButton,11.72495446,-0.18984375,-0.403645833,0,0,0,2,16,136,30,1,46,67561,N,180,2022-02-15_19h26.18.359,orientation adjustment blockN,2021.2.3,Win32,12.00062403,,,,,,,
,,,,,,,,,,,,,,,,,32.22222222,59,20,75,49.22222222,9.777777778,9.777777778,0.390885417,-0.294270833,1,0,0,0.600199999,submitButton,11.70912376,-0.1859375,-0.401041667,0,0,0,2,17,137,43,1,59,67561,N,180,2022-02-15_19h26.18.359,orientation adjustment blockN,2021.2.3,Win32,12.00062403,,,,,,,
,,,,,,,,,,,,,,,,,-58.33333333,72,20,75,51.66666667,20.33333333,20.33333333,0.151302083,-0.30859375,1,0,0,0.2659,submitButton,11.77867384,-0.133854167,-0.3984375,0,0,0,2,18,138,56,1,72,67561,N,180,2022-02-15_19h26.18.359,orientation adjustment blockN,2021.2.3,Win32,12.00062403,,,,,,,
,,,,,,,,,,,,,,,,,-37.77777778,-26,20,75,-47.77777778,21.77777778,21.77777778,0.159114583,-0.27734375,1,0,0,0.7505,submitButton,11.85866667,-0.1390625,-0.395833333,0,0,0,2,19,139,10,1,26,67561,N,180,2022-02-15_19h26.18.359,orientation adjustment blockN,2021.2.3,Win32,12.00062403,,,,,,,
,,,,,,,,,,,,,,,,,71.66666667,-27,20,75,-41.33333333,14.33333333,14.33333333,0.377864583,-0.30078125,1,0,0,0.6156,submitButton,11.87830688,-0.155989583,-0.401041667,0,0,0,2,20,140,11,1,27,67561,N,180,2022-02-15_19h26.18.359,orientation adjustment blockN,2021.2.3,Win32,12.00062403,,,,,,,
,,,,,,,,,,,,,,,,,33.88888889,-28,20,75,43.88888889,71.88888889,71.88888889,0.199479167,-0.30078125,1,0,0,0.9645,submitButton,12.35083115,-0.178125,-0.403645833,0,0,0,2,21,141,12,1,28,67561,N,180,2022-02-15_19h26.18.359,orientation adjustment blockN,2021.2.3,Win32,12.00062403,,,,,,,
,,,,,,,,,,,,,,,,,-50.55555556,17,20,75,34.44444444,17.44444444,17.44444444,0.18125,-0.294270833,1,0,0,0.815299999,submitButton,12.390625,-0.16640625,-0.3984375,0,0,0,2,22,142,1,1,17,67561,N,180,2022-02-15_19h26.18.359,orientation adjustment blockN,2021.2.3,Win32,12.00062403,,,,,,,
,,,,,,,,,,,,,,,,,-36.66666667,60,20,75,57.33333333,2.666666667,2.666666667,0.213802083,-0.283854167,1,0,0,0.277199999,submitButton,12.31524548,-0.292708333,-0.389322917,0,0,0,2,23,143,44,1,60,67561,N,180,2022-02-15_19h26.18.359,orientation adjustment blockN,2021.2.3,Win32,12.00062403,,,,,,,
,,,,,,,,,,,,,,,,,63.33333333,-43,20,75,-42.66666667,0.333333333,0.333333333,0.383072917,-0.283854167,1,0,0,0.1529,submitButton,12.22307692,-0.29140625,-0.411458333,0,0,0,2,24,144,27,1,43,67561,N,180,2022-02-15_19h26.18.359,orientation adjustment blockN,2021.2.3,Win32,12.00062403,,,,,,,
,,,,,,,,,,,,,,,,,-52.22222222,-67,20,75,-233.2222222,13.77777778,13.77777778,0.41953125,-0.27734375,1,0,0,0.3769,submitButton,12.23494487,-0.145572917,-0.397135417,0,0,0,2,25,145,51,1,67,67561,N,180,2022-02-15_19h26.18.359,orientation adjustment blockN,2021.2.3,Win32,12.00062403,,,,,,,
,,,,,,,,,,,,,,,,,20.55555556,70,20,75,77.55555556,7.555555556,7.555555556,0.36484375,-0.291666667,1,0,0,0.4146,submitButton,12.19949495,-0.191145833,-0.423177083,0,0,0,2,26,146,54,1,70,67561,N,180,2022-02-15_19h26.18.359,orientation adjustment blockN,2021.2.3,Win32,12.00062403,,,,,,,
,,,,,,,,,,,,,,,,,22.77777778,21,20,75,31.77777778,10.77777778,10.77777778,0.295833333,-0.272135417,1,0,0,1.0005,submitButton,12.18880535,-0.126041667,-0.40234375,0,0,0,2,27,147,5,1,21,67561,N,180,2022-02-15_19h26.18.359,orientation adjustment blockN,2021.2.3,Win32,12.00062403,,,,,,,
,,,,,,,,,,,,,,,,,33.88888889,-41,20,75,-37.11111111,3.888888889,3.888888889,0.41171875,-0.28515625,1,0,0,1.239,submitButton,12.12686567,-0.163802083,-0.40234375,0,0,0,2,28,148,25,1,41,67561,N,180,2022-02-15_19h26.18.359,orientation adjustment blockN,2021.2.3,Win32,12.00062403,,,,,,,
,,,,,,,,,,,,,,,,,43.88888889,-37,20,75,-11.11111111,25.88888889,25.88888889,0.397395833,-0.2890625,1,0,0,0.2014,submitButton,12.22880658,-0.106510417,-0.399739583,0,0,0,2,29,149,21,1,37,67561,N,180,2022-02-15_19h26.18.359,orientation adjustment blockN,2021.2.3,Win32,12.00062403,,,,,,,
,,,,,,,,,,,,,,,,,-68.88888889,-22,20,75,-31.88888889,9.888888889,9.888888889,0.20078125,-0.2890625,1,0,0,1.0489,submitButton,12.21160131,-0.2640625,-0.395833333,0,0,0,2,30,150,6,1,22,67561,N,180,2022-02-15_19h26.18.359,orientation adjustment blockN,2021.2.3,Win32,12.00062403,,,,,,,
,,,,,,,,,,,,,,,,,-44.44444444,57,20,75,48.55555556,8.444444444,8.444444444,0.183854167,-0.290364583,1,0,0,0.133699999,submitButton,12.18410381,-0.1546875,-0.385416667,0,0,0,2,31,151,41,1,57,67561,N,180,2022-02-15_19h26.18.359,orientation adjustment blockN,2021.2.3,Win32,12.00062403,,,,,,,
,,,,,,,,,,,,,,,,,-41.66666667,54,20,75,27.33333333,26.66666667,26.66666667,0.20859375,-0.311197917,1,0,0,0.252700001,submitButton,12.28904992,-0.137760417,-0.40234375,0,0,0,2,32,152,38,1,54,67561,N,180,2022-02-15_19h26.18.359,orientation adjustment blockN,2021.2.3,Win32,12.00062403,,,,,,,
,,,,,,,,,,,,,,,,,48.33333333,-18,20,75,13.33333333,31.33333333,31.33333333,0.36875,-0.287760417,1,0,0,0.200299999,submitButton,12.42605915,-0.192447917,-0.421875,0,0,0,2,33,153,2,1,18,67561,N,180,2022-02-15_19h26.18.359,orientation adjustment blockN,2021.2.3,Win32,12.00062403,,,,,,,
,,,,,,,,,,,,,,,,,-63.88888889,50,20,75,28.11111111,21.88888889,21.88888889,0.1578125,-0.307291667,1,0,0,0.0229,submitButton,12.49365079,-0.22890625,-0.40625,0,0,0,2,34,154,34,1,50,67561,N,180,2022-02-15_19h26.18.359,orientation adjustment blockN,2021.2.3,Win32,12.00062403,,,,,,,
,,,,,,,,,,,,,,,,,-72.22222222,-66,20,75,-229.2222222,16.77777778,16.77777778,0.359635417,-0.274739583,1,0,0,0.1664,submitButton,12.52403467,-0.13125,-0.41015625,0,0,0,2,35,155,50,1,66,67561,N,180,2022-02-15_19h26.18.359,orientation adjustment blockN,2021.2.3,Win32,12.00062403,,,,,,,
,,,,,,,,,,,,,,,,,-66.66666667,-29,20,75,-41.66666667,12.66666667,12.66666667,0.178645833,-0.29296875,1,0,0,0.2325,submitButton,12.52503912,-0.176822917,-0.390625,0,0,0,2,36,156,13,1,29,67561,N,180,2022-02-15_19h26.18.359,orientation adjustment blockN,2021.2.3,Win32,12.00062403,,,,,,,
,,,,,,,,,,,,,,,,,-56.66666667,35,20,75,31.33333333,3.666666667,3.666666667,0.147395833,-0.29296875,1,0,0,0.103200001,submitButton,12.46309246,-0.2328125,-0.40234375,0,0,0,2,37,157,19,1,35,67561,N,180,2022-02-15_19h26.18.359,orientation adjustment blockN,2021.2.3,Win32,12.00062403,,,,,,,
,,,,,,,,,,,,,,,,,-30,-40,20,75,-54,14,14,0.209895833,-0.299479167,1,0,0,0.5494,submitButton,12.47376543,-0.128645833,-0.389322917,0,0,0,2,38,158,24,1,40,67561,N,180,2022-02-15_19h26.18.359,orientation adjustment blockN,2021.2.3,Win32,12.00062403,,,,,,,
,,,,,,,,,,,,,,,,,-20.55555556,-63,20,75,-83.55555556,20.55555556,20.55555556,-0.129947917,-0.389322917,1,0,0,1.1599,submitButton,12.52950192,-0.129947917,-0.389322917,0,0,0,2,39,159,47,1,63,67561,N,180,2022-02-15_19h26.18.359,orientation adjustment blockN,2021.2.3,Win32,12.00062403,,,,,,,
,,,,,,,,,,,,,,,,,71.11111111,-48,20,75,114.1111111,17.88888889,17.88888889,0.15,-0.287760417,1,0,0,0.5505,submitButton,12.56621005,-0.2015625,-0.397135417,0,0,0,2,40,160,32,1,48,67561,N,180,2022-02-15_19h26.18.359,orientation adjustment blockN,2021.2.3,Win32,12.00062403,,,,,,,
,,,,,,,,,,,,,,,,,25.55555556,64,20,75,65.55555556,1.555555556,1.555555556,0.422135417,-0.290364583,1,0,0,0.649299999,submitButton,12.49130763,-0.18203125,-0.40234375,0,0,0,2,41,161,48,1,64,67561,N,180,2022-02-15_19h26.18.359,orientation adjustment blockN,2021.2.3,Win32,12.00062403,,,,,,,
,,,,,,,,,,,,,,,,,-61.66666667,-44,20,75,-56.66666667,12.66666667,12.66666667,0.179947917,-0.307291667,1,0,0,0.200900002,submitButton,12.49249249,-0.171614583,-0.399739583,0,0,0,2,42,162,28,1,44,67561,N,180,2022-02-15_19h26.18.359,orientation adjustment blockN,2021.2.3,Win32,12.00062403,,,,,,,
,,,,,,,,,,,,,,,,,70.55555556,69,20,75,51.55555556,17.44444444,17.44444444,0.38828125,-0.282552083,1,0,0,0.465699999,submitButton,12.52572707,-0.1390625,-0.393229167,0,0,0,2,43,163,53,1,69,67561,N,180,2022-02-15_19h26.18.359,orientation adjustment blockN,2021.2.3,Win32,12.00062403,,,,,,,
,,,,,,,,,,,,,,,,,-22.22222222,56,20,75,60.77777778,4.777777778,4.777777778,0.205989583,-0.28515625,1,0,0,0.275700001,submitButton,12.47407407,-0.274479167,-0.38671875,0,0,0,2,44,164,40,1,56,67561,N,180,2022-02-15_19h26.18.359,orientation adjustment blockN,2021.2.3,Win32,12.00062403,,,,,,,
,,,,,,,,,,,,,,,,,-64.44444444,-42,20,75,-135.4444444,86.55555556,86.55555556,0.38046875,-0.305989583,1,0,0,1.1324,submitButton,12.96467991,-0.113020833,-0.399739583,0,0,0,2,45,165,26,1,42,67561,N,180,2022-02-15_19h26.18.359,orientation adjustment blockN,2021.2.3,Win32,12.00062403,,,,,,,
,,,,,,,,,,,,,,,,,-29.44444444,-30,20,75,-29.44444444,0.555555556,0.555555556,0.2125,-0.309895833,1,0,0,0.3319,submitButton,12.88304094,-0.19375,-0.395833333,0,0,0,2,46,166,14,1,30,67561,N,180,2022-02-15_19h26.18.359,orientation adjustment blockN,2021.2.3,Win32,12.00062403,,,,,,,
,,,,,,,,,,,,,,,,,46.11111111,47,20,75,62.11111111,15.11111111,15.11111111,0.215104167,-0.287760417,1,0,0,0.1351,submitButton,12.89760349,-0.152083333,-0.40625,0,0,0,2,47,167,31,1,47,67561,N,180,2022-02-15_19h26.18.359,orientation adjustment blockN,2021.2.3,Win32,12.00062403,,,,,,,
,,,,,,,,,,,,,,,,,-40.55555556,32,20,75,27.44444444,4.555555556,4.555555556,0.225520833,-0.317708333,1,0,0,0.5681,submitButton,12.84343434,-0.159895833,-0.407552083,0,0,0,2,48,168,16,1,32,67561,N,180,2022-02-15_19h26.18.359,orientation adjustment blockN,2021.2.3,Win32,12.00062403,,,,,,,
,,,,,,,,,,,,,,,,,-31.11111111,39,20,75,24.88888889,14.11111111,14.11111111,0.199479167,-0.279947917,1,0,0,0.217799999,submitButton,12.8516129,-0.198958333,-0.41796875,0,0,0,2,49,169,23,1,39,67561,N,180,2022-02-15_19h26.18.359,orientation adjustment blockN,2021.2.3,Win32,12.00062403,,,,,,,
,,,,,,,,,,,,,,,,,56.11111111,-38,20,75,-34.88888889,3.111111111,3.111111111,0.415625,-0.270833333,1,0,0,0.277900002,submitButton,12.78917379,-0.1625,-0.39453125,0,0,0,2,50,170,22,1,38,67561,N,180,2022-02-15_19h26.18.359,orientation adjustment blockN,2021.2.3,Win32,12.00062403,,,,,,,
,,,,,,,,,,,,,,,,,-32.22222222,19,20,75,32.77777778,13.77777778,13.77777778,0.1421875,-0.29296875,1,0,0,0.064299999,submitButton,12.79547063,-0.198958333,-0.401041667,0,0,0,2,51,171,3,1,19,67561,N,180,2022-02-15_19h26.18.359,orientation adjustment blockN,2021.2.3,Win32,12.00062403,,,,,,,
,,,,,,,,,,,,,,,,,-20,36,20,75,32,4,4,0.18515625,-0.296875,1,0,0,0.05,submitButton,12.73980309,-0.149479167,-0.397135417,0,0,0,2,52,172,20,1,36,67561,N,180,2022-02-15_19h26.18.359,orientation adjustment blockN,2021.2.3,Win32,12.00062403,,,,,,,
,,,,,,,,,,,,,,,,,-31.66666667,49,20,75,40.33333333,8.666666667,8.666666667,0.1890625,-0.303385417,1,0,0,0.191199999,submitButton,12.71418588,-0.14296875,-0.403645833,0,0,0,2,53,173,33,1,49,67561,N,180,2022-02-15_19h26.18.359,orientation adjustment blockN,2021.2.3,Win32,12.00062403,,,,,,,
,,,,,,,,,,,,,,,,,57.22222222,-31,20,75,-24.77777778,6.222222222,6.222222222,0.406510417,-0.290364583,1,0,0,1.2165,submitButton,12.67361111,-0.22890625,-0.4140625,0,0,0,2,54,174,15,1,31,67561,N,180,2022-02-15_19h26.18.359,orientation adjustment blockN,2021.2.3,Win32,12.00062403,,,,,,,
,,,,,,,,,,,,,,,,,50.55555556,-25,20,75,-25.44444444,0.444444444,0.444444444,0.413020833,-0.317708333,1,0,0,0.0929,submitButton,12.59765355,-0.11953125,-0.40625,0,0,0,2,55,175,9,1,25,67561,N,180,2022-02-15_19h26.18.359,orientation adjustment blockN,2021.2.3,Win32,12.00062403,,,,,,,
,,,,,,,,,,,,,,,,,-45,-53,20,75,-250,17,17,0.410416667,-0.291666667,1,0,0,5.7876,submitButton,12.62482853,-0.208072917,-0.390625,0,0,0,2,56,176,37,1,53,67561,N,180,2022-02-15_19h26.18.359,orientation adjustment blockN,2021.2.3,Win32,12.00062403,,,,,,,
,,,,,,,,,,,,,,,,,-66.66666667,16,20,75,31.33333333,15.33333333,15.33333333,0.172135417,-0.29296875,1,0,0,0.1665,submitButton,12.64144513,-0.227604167,-0.385416667,0,0,0,2,57,177,0,1,16,67561,N,180,2022-02-15_19h26.18.359,orientation adjustment blockN,2021.2.3,Win32,12.00062403,,,,,,,
,,,,,,,,,,,,,,,,,-40.55555556,-24,20,75,-45.55555556,21.55555556,21.55555556,0.164322917,-0.295572917,1,0,0,0.349300001,submitButton,12.69579946,-0.1703125,-0.393229167,0,0,0,2,58,178,8,1,24,67561,N,180,2022-02-15_19h26.18.359,orientation adjustment blockN,2021.2.3,Win32,12.00062403,,,,,,,
,,,,,,,,,,,,,,,,,-62.77777778,61,20,75,48.22222222,12.77777778,12.77777778,0.172135417,-0.296875,1,0,0,0.1841,submitButton,12.6962963,-0.18984375,-0.395833333,0,0,0,2,59,179,45,1,61,67561,N,180,2022-02-15_19h26.18.359,orientation adjustment blockN,2021.2.3,Win32,12.00062403,,,,,,,
,,,,,,,,,,,,,,,,,,,,,,,,,,,,,,,,,,,,,,,,,,,67561,N,180,2022-02-15_19h26.18.359,orientation adjustment blockN,2021.2.3,Win32,12.00062403,,0.268489583,-0.407552083,1,0,0,EndButtonTxt
