consentMouse1.x,consentMouse1.y,consentMouse1.leftButton,consentMouse1.midButton,consentMouse1.rightButton,consentMouse1.clicked_name,consent_Mouse.x,consent_Mouse.y,consent_Mouse.leftButton,consent_Mouse.midButton,consent_Mouse.rightButton,consent_Mouse.clicked_name,startMouse.x,startMouse.y,startMouse.leftButton,startMouse.midButton,startMouse.rightButton,start_distance,fixedOri,minimalDistance,maxOri,this_ori,accuracy,presented_accuracy,submitMouse.x,submitMouse.y,submitMouse.leftButton,submitMouse.midButton,submitMouse.rightButton,submitMouse.time,submitMouse.clicked_name,block_accuracy,continueMouse.x,continueMouse.y,continueMouse.leftButton,continueMouse.midButton,continueMouse.rightButton,trials.thisRepN,trials.thisTrialN,trials.thisN,trials.thisIndex,trials.ran,startOri,participant,condition,nTrials,date,expName,psychopyVersion,OS,frameRate,continueMouse.clicked_name,EndButtonMouse.x,EndButtonMouse.y,EndButtonMouse.leftButton,EndButtonMouse.midButton,EndButtonMouse.rightButton,EndButtonMouse.clicked_name
0.295370406,-0.391666693,1,0,0,consent_button1,0.378703741,-0.399074157,1,0,0,consent_button,0.364814852,-0.325925951,1,0,0,-60,59,20,75,22,37,37,0.225925959,-0.301851932,1,0,0,0.3607,submitButton,37,-0.211111091,-0.395370397,0,0,0,0,0,0,43,1,59,68857,N,180,2022-02-15_19h15.29.749,orientation adjustment blockN,2021.2.3,Win32,59.23819679,,,,,,,
,,,,,,,,,,,,,,,,,-43.33333333,-24,20,75,-22.33333333,1.666666667,1.666666667,0.225000033,-0.30092595,1,0,0,1.1835,submitButton,19.33333333,-0.113888866,-0.349074156,0,0,0,0,1,1,8,1,24,68857,N,180,2022-02-15_19h15.29.749,orientation adjustment blockN,2021.2.3,Win32,59.23819679,,,,,,,
,,,,,,,,,,,,,,,,,-58.88888889,-64,20,75,-277.8888889,33.88888889,33.88888889,0.399074112,-0.294444468,1,0,0,0.3497,submitButton,24.18518519,-0.160185163,-0.393518602,0,0,0,0,2,2,48,1,64,68857,N,180,2022-02-15_19h15.29.749,orientation adjustment blockN,2021.2.3,Win32,59.23819679,,,,,,,
,,,,,,,,,,,,,,,,,-37.22222222,37,20,75,23.77777778,13.22222222,13.22222222,0.193518551,-0.30462971,1,0,0,0.133,submitButton,13.22222222,-0.174074053,-0.380555582,0,0,0,0,3,3,21,1,37,68857,N,180,2022-02-15_19h15.29.749,orientation adjustment blockN,2021.2.3,Win32,59.23819679,,,,,,,
,,,,,,,,,,,,,,,,,55.55555556,-42,20,75,-27.44444444,14.55555556,14.55555556,0.366666704,-0.274074154,1,0,0,0.0333,submitButton,13.88888889,-0.236111092,-0.391666693,0,0,0,0,4,4,26,1,42,68857,N,180,2022-02-15_19h15.29.749,orientation adjustment blockN,2021.2.3,Win32,59.23819679,,,,,,,
,,,,,,,,,,,,,,,,,-63.33333333,70,20,75,86.66666667,16.66666667,16.66666667,0.230555589,-0.29166669,1,0,0,0.0836,submitButton,14.81481481,-0.162036959,-0.387037063,0,0,0,0,5,5,54,1,70,68857,N,180,2022-02-15_19h15.29.749,orientation adjustment blockN,2021.2.3,Win32,59.23819679,,,,,,,
,,,,,,,,,,,,,,,,,53.88888889,-36,20,75,-19.11111111,16.88888889,16.88888889,0.364814852,-0.290740821,1,0,0,0.7995,submitButton,16.88888889,-0.219444424,-0.406481508,0,0,0,0,6,6,20,1,36,68857,N,180,2022-02-15_19h15.29.749,orientation adjustment blockN,2021.2.3,Win32,59.23819679,,,,,,,
,,,,,,,,,,,,,,,,,26.66666667,-21,20,75,-25.33333333,4.333333333,4.333333333,0.435185225,-0.289814838,1,0,0,0.0674,submitButton,10.61111111,-0.153703625,-0.403703731,0,0,0,0,7,7,5,1,21,68857,N,180,2022-02-15_19h15.29.749,orientation adjustment blockN,2021.2.3,Win32,59.23819679,,,,,,,
,,,,,,,,,,,,,,,,,-21.11111111,-75,20,75,-86.11111111,11.11111111,11.11111111,0.222222255,-0.302777802,1,0,0,0.4161,submitButton,10.77777778,-0.250925907,-0.372222248,0,0,0,0,8,8,59,1,75,68857,N,180,2022-02-15_19h15.29.749,orientation adjustment blockN,2021.2.3,Win32,59.23819679,,,,,,,
,,,,,,,,,,,,,,,,,-32.77777778,-29,20,75,-29.77777778,0.777777778,0.777777778,0.184259291,-0.280555579,1,0,0,0.1006,submitButton,0.777777778,-0.258333315,-0.386111138,0,0,0,0,9,9,13,1,29,68857,N,180,2022-02-15_19h15.29.749,orientation adjustment blockN,2021.2.3,Win32,59.23819679,,,,,,,
,,,,,,,,,,,,,,,,,48.33333333,50,20,75,220.3333333,9.666666667,9.666666667,0.176851884,-0.310185266,1,0,0,0.0669,submitButton,5.222222222,-0.242592573,-0.415740825,0,0,0,0,10,10,34,1,50,68857,N,180,2022-02-15_19h15.29.749,orientation adjustment blockN,2021.2.3,Win32,59.23819679,,,,,,,
,,,,,,,,,,,,,,,,,42.22222222,-23,20,75,-14.77777778,8.222222222,8.222222222,0.392592631,-0.301851932,1,0,0,0.6782,submitButton,6.222222222,-0.170370292,-0.398148175,0,0,0,0,11,11,7,1,23,68857,N,180,2022-02-15_19h15.29.749,orientation adjustment blockN,2021.2.3,Win32,59.23819679,,,,,,,
,,,,,,,,,,,,,,,,,31.11111111,-66,20,75,-55.88888889,10.11111111,10.11111111,-0.139814736,-0.413888916,1,0,0,1.3328,submitButton,10.11111111,-0.139814736,-0.413888916,0,0,0,0,12,12,50,1,66,68857,N,180,2022-02-15_19h15.29.749,orientation adjustment blockN,2021.2.3,Win32,59.23819679,,,,,,,
,,,,,,,,,,,,,,,,,53.33333333,61,20,75,81.33333333,20.33333333,20.33333333,0.423148187,-0.293518599,1,0,0,0.5503,submitButton,15.22222222,-0.127777755,-0.391666693,0,0,0,0,13,13,45,1,61,68857,N,180,2022-02-15_19h15.29.749,orientation adjustment blockN,2021.2.3,Win32,59.23819679,,,,,,,
,,,,,,,,,,,,,,,,,-38.88888889,-43,20,75,-211.8888889,11.11111111,11.11111111,0.420370409,-0.298148172,1,0,0,0.1005,submitButton,13.85185185,0.259259293,-0.409259286,1,0,0,0,14,14,27,1,43,68857,N,180,2022-02-15_19h15.29.749,orientation adjustment blockN,2021.2.3,Win32,59.23819679,continueButton,,,,,,
,,,,,,,,,,,,,,,,,51.11111111,-57,20,75,-40.88888889,16.11111111,16.11111111,0.369444482,-0.309259283,1,0,0,0.6333,submitButton,16.11111111,-0.128703625,-0.389814841,0,0,0,0,15,15,41,1,57,68857,N,180,2022-02-15_19h15.29.749,orientation adjustment blockN,2021.2.3,Win32,59.23819679,,,,,,,
,,,,,,,,,,,,,,,,,-61.11111111,-46,20,75,-212.1111111,13.88888889,13.88888889,0.399074112,-0.299074154,1,0,0,0.4673,submitButton,15,-0.167592515,-0.412037064,0,0,0,0,16,16,30,1,46,68857,N,180,2022-02-15_19h15.29.749,orientation adjustment blockN,2021.2.3,Win32,59.23819679,,,,,,,
,,,,,,,,,,,,,,,,,-66.66666667,54,20,75,37.33333333,16.66666667,16.66666667,0.225000033,-0.290740821,1,0,0,0.1672,submitButton,15.55555556,-0.172222201,-0.39629638,0,0,0,0,17,17,38,1,54,68857,N,180,2022-02-15_19h15.29.749,orientation adjustment blockN,2021.2.3,Win32,59.23819679,,,,,,,
,,,,,,,,,,,,,,,,,45,-72,20,75,-75,3,3,-0.233333314,-0.362963045,1,0,0,1.4824,submitButton,12.41666667,-0.270370352,-0.406481508,0,0,0,0,18,18,56,1,72,68857,N,180,2022-02-15_19h15.29.749,orientation adjustment blockN,2021.2.3,Win32,59.23819679,,,,,,,
,,,,,,,,,,,,,,,,,26.11111111,-35,20,75,-21.88888889,13.11111111,13.11111111,0.380555593,-0.30462971,1,0,0,0.2833,submitButton,12.55555556,-0.133333311,-0.400000027,0,0,0,0,19,19,19,1,35,68857,N,180,2022-02-15_19h15.29.749,orientation adjustment blockN,2021.2.3,Win32,59.23819679,,,,,,,
,,,,,,,,,,,,,,,,,25,55,20,75,67,12,12,0.37222226,-0.260185264,1,0,0,0.5165,submitButton,12.46296296,-0.226851832,-0.402777805,0,0,0,0,20,20,39,1,55,68857,N,180,2022-02-15_19h15.29.749,orientation adjustment blockN,2021.2.3,Win32,59.23819679,,,,,,,
,,,,,,,,,,,,,,,,,74.44444444,53,20,75,73.44444444,20.44444444,20.44444444,0.402777816,-0.302777802,1,0,0,0.9502,submitButton,13.6031746,-0.157407386,-0.410185269,0,0,0,0,21,21,37,1,53,68857,N,180,2022-02-15_19h15.29.749,orientation adjustment blockN,2021.2.3,Win32,59.23819679,,,,,,,
,,,,,,,,,,,,,,,,,58.88888889,-56,20,75,-42.11111111,13.88888889,13.88888889,0.400000038,-0.284259283,1,0,0,0.3991,submitButton,13.63888889,-0.221296276,-0.39629638,0,0,0,0,22,22,40,1,56,68857,N,180,2022-02-15_19h15.29.749,orientation adjustment blockN,2021.2.3,Win32,59.23819679,,,,,,,
,,,,,,,,,,,,,,,,,25,40,20,75,29,11,11,0.380555593,-0.301851932,1,0,0,0.1337,submitButton,13.34567901,-0.191666646,-0.406481508,0,0,0,0,23,23,24,1,40,68857,N,180,2022-02-15_19h15.29.749,orientation adjustment blockN,2021.2.3,Win32,59.23819679,,,,,,,
,,,,,,,,,,,,,,,,,-27.77777778,68,20,75,62.22222222,5.777777778,5.777777778,-0.191666646,-0.355555581,1,0,0,0.7494,submitButton,12.58888889,-0.212962943,-0.375000026,0,0,0,0,24,24,52,1,68,68857,N,180,2022-02-15_19h15.29.749,orientation adjustment blockN,2021.2.3,Win32,59.23819679,,,,,,,
,,,,,,,,,,,,,,,,,-26.66666667,34,20,75,20.33333333,13.66666667,13.66666667,0.198148181,-0.29166669,1,0,0,0.2001,submitButton,12.68686869,-0.140740718,-0.401851935,0,0,0,0,25,25,18,1,34,68857,N,180,2022-02-15_19h15.29.749,orientation adjustment blockN,2021.2.3,Win32,59.23819679,,,,,,,
,,,,,,,,,,,,,,,,,-28.88888889,-62,20,75,-67.88888889,5.888888889,5.888888889,0.201851884,-0.294444468,1,0,0,0.4166,submitButton,12.12037037,-0.120370291,-0.385185268,0,0,0,0,26,26,46,1,62,68857,N,180,2022-02-15_19h15.29.749,orientation adjustment blockN,2021.2.3,Win32,59.23819679,,,,,,,
,,,,,,,,,,,,,,,,,-43.88888889,-69,20,75,-66.88888889,2.111111111,2.111111111,0.213888922,-0.303703728,1,0,0,0.1169,submitButton,11.35042735,-0.228703684,-0.38333336,0,0,0,0,27,27,53,1,69,68857,N,180,2022-02-15_19h15.29.749,orientation adjustment blockN,2021.2.3,Win32,59.23819679,,,,,,,
,,,,,,,,,,,,,,,,,-64.44444444,19,20,75,-137.4444444,23.55555556,23.55555556,0.375925964,-0.274074154,1,0,0,0.3498,submitButton,12.22222222,-0.182407386,-0.403703731,0,0,0,0,28,28,3,1,19,68857,N,180,2022-02-15_19h15.29.749,orientation adjustment blockN,2021.2.3,Win32,59.23819679,,,,,,,
,,,,,,,,,,,,,,,,,63.33333333,60,20,75,216.3333333,23.66666667,23.66666667,0.197222255,-0.278703727,1,0,0,1.0833,submitButton,12.98518519,0.317592629,-0.400000027,1,0,0,0,29,29,44,1,60,68857,N,180,2022-02-15_19h15.29.749,orientation adjustment blockN,2021.2.3,Win32,59.23819679,continueButton,,,,,,
,,,,,,,,,,,,,,,,,29.44444444,47,20,75,54.44444444,7.444444444,7.444444444,-0.298148131,-0.419444472,1,0,0,1.5827,submitButton,12.63888889,-0.298148131,-0.419444472,0,0,0,0,30,30,31,1,47,68857,N,180,2022-02-15_19h15.29.749,orientation adjustment blockN,2021.2.3,Win32,59.23819679,,,,,,,
,,,,,,,,,,,,,,,,,-39.44444444,-18,20,75,-31.44444444,13.44444444,13.44444444,-0.237037018,-0.407407491,1,0,0,1.2001,submitButton,12.68627451,-0.237037018,-0.407407491,0,0,0,0,31,31,2,1,18,68857,N,180,2022-02-15_19h15.29.749,orientation adjustment blockN,2021.2.3,Win32,59.23819679,,,,,,,
,,,,,,,,,,,,,,,,,66.11111111,28,20,75,199.1111111,8.888888889,8.888888889,0.223148181,-0.284259283,1,0,0,0.0831,submitButton,12.47530864,-0.215740721,-0.400000027,0,0,0,0,32,32,12,1,28,68857,N,180,2022-02-15_19h15.29.749,orientation adjustment blockN,2021.2.3,Win32,59.23819679,,,,,,,
,,,,,,,,,,,,,,,,,46.11111111,-16,20,75,-12.88888889,3.111111111,3.111111111,0.421296335,-0.285185265,1,0,0,0.5332,submitButton,11.98245614,-0.152777756,-0.399074157,0,0,0,0,33,33,0,1,16,68857,N,180,2022-02-15_19h15.29.749,orientation adjustment blockN,2021.2.3,Win32,59.23819679,,,,,,,
,,,,,,,,,,,,,,,,,-28.33333333,30,20,75,27.66666667,2.333333333,2.333333333,0.381481519,-0.301851932,1,0,0,1.0998,submitButton,11.5,-0.143518496,-0.400925953,0,0,0,0,34,34,14,1,30,68857,N,180,2022-02-15_19h15.29.749,orientation adjustment blockN,2021.2.3,Win32,59.23819679,,,,,,,
,,,,,,,,,,,,,,,,,-44.44444444,17,20,75,21.55555556,4.555555556,4.555555556,0.258333368,-0.289814838,1,0,0,0.7497,submitButton,11.16931217,-0.168518497,-0.389814841,0,0,0,0,35,35,1,1,17,68857,N,180,2022-02-15_19h15.29.749,orientation adjustment blockN,2021.2.3,Win32,59.23819679,,,,,,,
,,,,,,,,,,,,,,,,,50.55555556,-65,20,75,-59.44444444,5.555555556,5.555555556,0.379629667,-0.300000024,1,0,0,0.0168,submitButton,10.91414141,-0.30740739,-0.395370397,0,0,0,0,36,36,49,1,65,68857,N,180,2022-02-15_19h15.29.749,orientation adjustment blockN,2021.2.3,Win32,59.23819679,,,,,,,
,,,,,,,,,,,,,,,,,-52.77777778,-45,20,75,-51.77777778,6.777777778,6.777777778,0.229629663,-0.290740821,1,0,0,0.067,submitButton,10.73429952,-0.129629607,-0.404629713,0,0,0,0,37,37,29,1,45,68857,N,180,2022-02-15_19h15.29.749,orientation adjustment blockN,2021.2.3,Win32,59.23819679,,,,,,,
,,,,,,,,,,,,,,,,,58.33333333,-26,20,75,-18.66666667,7.333333333,7.333333333,0.435185225,-0.311111135,1,0,0,0.1502,submitButton,10.59259259,-0.256481463,-0.392592619,0,0,0,0,38,38,10,1,26,68857,N,180,2022-02-15_19h15.29.749,orientation adjustment blockN,2021.2.3,Win32,59.23819679,,,,,,,
,,,,,,,,,,,,,,,,,-55,-71,20,75,-221,30,30,-0.224074054,-0.419444472,1,0,0,2.1657,submitButton,11.36888889,-0.224074054,-0.419444472,0,0,0,0,39,39,55,1,71,68857,N,180,2022-02-15_19h15.29.749,orientation adjustment blockN,2021.2.3,Win32,59.23819679,,,,,,,
,,,,,,,,,,,,,,,,,-22.77777778,67,20,75,80.22222222,13.22222222,13.22222222,-0.199999979,-0.397222249,1,0,0,1.2497,submitButton,11.44017094,-0.199999979,-0.397222249,0,0,0,0,40,40,51,1,67,68857,N,180,2022-02-15_19h15.29.749,orientation adjustment blockN,2021.2.3,Win32,59.23819679,,,,,,,
,,,,,,,,,,,,,,,,,-35,-52,20,75,-63,11,11,-0.142592514,-0.425000028,1,0,0,1.1485,submitButton,11.42386831,-0.142592514,-0.425000028,0,0,0,0,41,41,36,1,52,68857,N,180,2022-02-15_19h15.29.749,orientation adjustment blockN,2021.2.3,Win32,59.23819679,,,,,,,
,,,,,,,,,,,,,,,,,73.88888889,-49,20,75,-41.11111111,7.888888889,7.888888889,0.437963003,-0.325000025,1,0,0,0.1834,submitButton,11.29761905,-0.137036958,-0.398148175,0,0,0,0,42,42,33,1,49,68857,N,180,2022-02-15_19h15.29.749,orientation adjustment blockN,2021.2.3,Win32,59.23819679,,,,,,,
,,,,,,,,,,,,,,,,,-65,-73,20,75,-199,54,54,0.359259296,-0.29166669,1,0,0,0.6831,submitButton,12.77011494,-0.224074054,-0.404629713,0,0,0,0,43,43,57,1,73,68857,N,180,2022-02-15_19h15.29.749,orientation adjustment blockN,2021.2.3,Win32,59.23819679,,,,,,,
,,,,,,,,,,,,,,,,,66.66666667,-25,20,75,-34.33333333,9.333333333,9.333333333,0.437037077,-0.317592617,1,0,0,0.0169,submitButton,12.65555556,0.271296331,-0.400925953,1,0,0,0,44,44,9,1,25,68857,N,180,2022-02-15_19h15.29.749,orientation adjustment blockN,2021.2.3,Win32,59.23819679,continueButton,,,,,,
,,,,,,,,,,,,,,,,,39.44444444,48,20,75,45.44444444,2.555555556,2.555555556,0.378703741,-0.30092595,1,0,0,1.0495,submitButton,12.3297491,0.167592624,-0.40833336,0,0,0,0,45,45,32,1,48,68857,N,180,2022-02-15_19h15.29.749,orientation adjustment blockN,2021.2.3,Win32,59.23819679,,,,,,,
,,,,,,,,,,,,,,,,,53.33333333,-22,20,75,150.3333333,7.666666667,7.666666667,0.17314818,-0.322222247,1,0,0,3.4151,submitButton,12.18402778,-0.140740718,-0.393518602,0,0,0,0,46,46,6,1,22,68857,N,180,2022-02-15_19h15.29.749,orientation adjustment blockN,2021.2.3,Win32,59.23819679,,,,,,,
,,,,,,,,,,,,,,,,,65,41,20,75,210,11,11,0.213888922,-0.30555558,1,0,0,0.2829,submitButton,12.14814815,-0.136111089,-0.401851935,0,0,0,0,47,47,25,1,41,68857,N,180,2022-02-15_19h15.29.749,orientation adjustment blockN,2021.2.3,Win32,59.23819679,,,,,,,
,,,,,,,,,,,,,,,,,-37.77777778,74,20,75,83.22222222,9.222222222,9.222222222,0.191666699,-0.293518599,1,0,0,0.6832,submitButton,12.0620915,-0.171296275,-0.403703731,0,0,0,0,48,48,58,1,74,68857,N,180,2022-02-15_19h15.29.749,orientation adjustment blockN,2021.2.3,Win32,59.23819679,,,,,,,
,,,,,,,,,,,,,,,,,-25.55555556,31,20,75,31.44444444,0.444444444,0.444444444,0.205555588,-0.288888912,1,0,0,0.0833,submitButton,11.73015873,-0.23425924,-0.397222249,0,0,0,0,49,49,15,1,31,68857,N,180,2022-02-15_19h15.29.749,orientation adjustment blockN,2021.2.3,Win32,59.23819679,,,,,,,
,,,,,,,,,,,,,,,,,-52.77777778,-33,20,75,-219.7777778,6.777777778,6.777777778,-0.255555537,-0.40833336,1,0,0,3.2319,submitButton,11.59259259,-0.255555537,-0.40833336,0,0,0,0,50,50,17,1,33,68857,N,180,2022-02-15_19h15.29.749,orientation adjustment blockN,2021.2.3,Win32,59.23819679,,,,,,,
,,,,,,,,,,,,,,,,,47.22222222,20,20,75,22.22222222,2.222222222,2.222222222,0.359259296,-0.30555558,1,0,0,0.2333,submitButton,11.33933934,-0.269444426,-0.397222249,0,0,0,0,51,51,4,1,20,68857,N,180,2022-02-15_19h15.29.749,orientation adjustment blockN,2021.2.3,Win32,59.23819679,,,,,,,
,,,,,,,,,,,,,,,,,-42.77777778,38,20,75,25.22222222,12.77777778,12.77777778,-0.232407388,-0.419444472,1,0,0,1.4496,submitButton,11.37719298,-0.232407388,-0.419444472,0,0,0,0,52,52,22,1,38,68857,N,180,2022-02-15_19h15.29.749,orientation adjustment blockN,2021.2.3,Win32,59.23819679,,,,,,,
,,,,,,,,,,,,,,,,,-75,44,20,75,43,1,1,0.211111144,-0.303703728,1,0,0,1.4998,submitButton,11.11111111,-0.127777755,-0.393518602,0,0,0,0,53,53,28,1,44,68857,N,180,2022-02-15_19h15.29.749,orientation adjustment blockN,2021.2.3,Win32,59.23819679,,,,,,,
,,,,,,,,,,,,,,,,,57.22222222,-27,20,75,-33.77777778,6.777777778,6.777777778,0.412963002,-0.288888912,1,0,0,1.0498,submitButton,11.00277778,-0.133333311,-0.403703731,0,0,0,0,54,54,11,1,27,68857,N,180,2022-02-15_19h15.29.749,orientation adjustment blockN,2021.2.3,Win32,59.23819679,,,,,,,
,,,,,,,,,,,,,,,,,-63.88888889,32,20,75,20.11111111,11.88888889,11.88888889,-0.176851831,-0.407407491,1,0,0,1.4999,submitButton,11.02439024,0.124074104,-0.375000026,0,0,0,0,55,55,16,1,32,68857,N,180,2022-02-15_19h15.29.749,orientation adjustment blockN,2021.2.3,Win32,59.23819679,,,,,,,
,,,,,,,,,,,,,,,,,-72.77777778,58,20,75,56.22222222,1.777777778,1.777777778,-0.142592514,-0.390740824,1,0,0,1.8825,submitButton,10.8042328,-0.142592514,-0.390740824,0,0,0,0,56,56,42,1,58,68857,N,180,2022-02-15_19h15.29.749,orientation adjustment blockN,2021.2.3,Win32,59.23819679,,,,,,,
,,,,,,,,,,,,,,,,,-27.22222222,-63,20,75,-65.22222222,2.222222222,2.222222222,0.167592624,-0.316666691,1,0,0,0.4504,submitButton,10.60465116,-0.131481402,-0.391666693,0,0,0,0,57,57,47,1,63,68857,N,180,2022-02-15_19h15.29.749,orientation adjustment blockN,2021.2.3,Win32,59.23819679,,,,,,,
,,,,,,,,,,,,,,,,,-38.88888889,-51,20,75,-64.88888889,13.88888889,13.88888889,0.194444477,-0.281481505,1,0,0,0.2666,submitButton,10.67929293,-0.164814737,-0.400000027,0,0,0,0,58,58,35,1,51,68857,N,180,2022-02-15_19h15.29.749,orientation adjustment blockN,2021.2.3,Win32,59.23819679,,,,,,,
,,,,,,,,,,,,,,,,,33.88888889,-39,20,75,-50.11111111,11.11111111,11.11111111,0.375000038,-0.320370395,1,0,0,0.6166,submitButton,10.68888889,0.275925961,-0.39629638,1,0,0,0,59,59,23,1,39,68857,N,180,2022-02-15_19h15.29.749,orientation adjustment blockN,2021.2.3,Win32,59.23819679,continueButton,,,,,,
,,,,,,,,,,,,,,,,,65,-21,20,75,-33,12,12,0.344444481,-0.299074154,1,0,0,0.3825,submitButton,10.7173913,-0.224074054,-0.377777804,0,0,0,1,0,60,5,1,21,68857,N,180,2022-02-15_19h15.29.749,orientation adjustment blockN,2021.2.3,Win32,59.23819679,,,,,,,
,,,,,,,,,,,,,,,,,63.88888889,-32,20,75,-31.11111111,0.888888889,0.888888889,0.36759263,-0.315740822,1,0,0,0.4662,submitButton,10.50827423,-0.212962943,-0.419444472,0,0,0,1,1,61,16,1,32,68857,N,180,2022-02-15_19h15.29.749,orientation adjustment blockN,2021.2.3,Win32,59.23819679,,,,,,,
,,,,,,,,,,,,,,,,,-30,57,20,75,60,3,3,-0.146296274,-0.401851935,1,0,0,1.1159,submitButton,10.35185185,-0.146296274,-0.401851935,0,0,0,1,2,62,41,1,57,68857,N,180,2022-02-15_19h15.29.749,orientation adjustment blockN,2021.2.3,Win32,59.23819679,,,,,,,
,,,,,,,,,,,,,,,,,-71.66666667,-27,20,75,-208.6666667,1.666666667,1.666666667,0.358333371,-0.29166669,1,0,0,0.0501,submitButton,10.17460317,-0.269444426,-0.413888916,0,0,0,1,3,63,11,1,27,68857,N,180,2022-02-15_19h15.29.749,orientation adjustment blockN,2021.2.3,Win32,59.23819679,,,,,,,
,,,,,,,,,,,,,,,,,-68.88888889,-16,20,75,-8.888888889,7.111111111,7.111111111,-0.11296294,-0.397222249,1,0,0,2.2492,submitButton,10.11333333,-0.11296294,-0.397222249,0,0,0,1,4,64,0,1,16,68857,N,180,2022-02-15_19h15.29.749,orientation adjustment blockN,2021.2.3,Win32,59.23819679,,,,,,,
,,,,,,,,,,,,,,,,,-25.55555556,62,20,75,49.44444444,12.55555556,12.55555556,-0.13425918,-0.398148175,1,0,0,1.0492,submitButton,10.16122004,-0.13425918,-0.398148175,0,0,0,1,5,65,46,1,62,68857,N,180,2022-02-15_19h15.29.749,orientation adjustment blockN,2021.2.3,Win32,59.23819679,,,,,,,
,,,,,,,,,,,,,,,,,-54.44444444,-74,20,75,-59.44444444,14.55555556,14.55555556,0.2166667,-0.301851932,1,0,0,0.0669,submitButton,10.2457265,-0.170370292,-0.390740824,0,0,0,1,6,66,58,1,74,68857,N,180,2022-02-15_19h15.29.749,orientation adjustment blockN,2021.2.3,Win32,59.23819679,,,,,,,
,,,,,,,,,,,,,,,,,48.88888889,-20,20,75,-12.11111111,7.888888889,7.888888889,0.387037075,-0.296296377,1,0,0,0.2335,submitButton,10.20125786,-0.185185164,-0.384259286,0,0,0,1,7,67,4,1,20,68857,N,180,2022-02-15_19h15.29.749,orientation adjustment blockN,2021.2.3,Win32,59.23819679,,,,,,,
,,,,,,,,,,,,,,,,,-73.88888889,-26,20,75,-27.88888889,1.888888889,1.888888889,-0.261111092,-0.414814842,1,0,0,2.3829,submitButton,10.0473251,-0.261111092,-0.414814842,0,0,0,1,8,68,10,1,26,68857,N,180,2022-02-15_19h15.29.749,orientation adjustment blockN,2021.2.3,Win32,59.23819679,,,,,,,
,,,,,,,,,,,,,,,,,-21.11111111,-25,20,75,-24.11111111,0.888888889,0.888888889,0.189814847,-0.311111135,1,0,0,0.0166,submitButton,9.880808081,-0.179629608,-0.40833336,0,0,0,1,9,69,9,1,25,68857,N,180,2022-02-15_19h15.29.749,orientation adjustment blockN,2021.2.3,Win32,59.23819679,,,,,,,
,,,,,,,,,,,,,,,,,22.77777778,-37,20,75,-27.22222222,9.777777778,9.777777778,0.463888929,-0.29166669,1,0,0,0.1832,submitButton,9.878968254,-0.218518499,-0.398148175,0,0,0,1,10,70,21,1,37,68857,N,180,2022-02-15_19h15.29.749,orientation adjustment blockN,2021.2.3,Win32,59.23819679,,,,,,,
,,,,,,,,,,,,,,,,,-32.22222222,71,20,75,83.77777778,12.77777778,12.77777778,-0.140740718,-0.404629713,1,0,0,1.4,submitButton,9.929824561,-0.140740718,-0.404629713,0,0,0,1,11,71,55,1,71,68857,N,180,2022-02-15_19h15.29.749,orientation adjustment blockN,2021.2.3,Win32,59.23819679,,,,,,,
,,,,,,,,,,,,,,,,,29.44444444,22,20,75,19.44444444,2.555555556,2.555555556,0.417592632,-0.275000023,1,0,0,0.0167,submitButton,9.802681992,-0.149074052,-0.409259286,0,0,0,1,12,72,6,1,22,68857,N,180,2022-02-15_19h15.29.749,orientation adjustment blockN,2021.2.3,Win32,59.23819679,,,,,,,
,,,,,,,,,,,,,,,,,-51.66666667,63,20,75,65.33333333,2.333333333,2.333333333,0.192592625,-0.312963044,1,0,0,1.2493,submitButton,9.676082863,-0.162962941,-0.38333336,0,0,0,1,13,73,47,1,63,68857,N,180,2022-02-15_19h15.29.749,orientation adjustment blockN,2021.2.3,Win32,59.23819679,,,,,,,
,,,,,,,,,,,,,,,,,56.11111111,-31,20,75,-29.88888889,1.111111111,1.111111111,-0.245370351,-0.39629638,1,0,0,1.8828,submitButton,9.533333333,0.25555559,-0.392592619,1,0,0,1,14,74,15,1,31,68857,N,180,2022-02-15_19h15.29.749,orientation adjustment blockN,2021.2.3,Win32,59.23819679,continueButton,,,,,,
,,,,,,,,,,,,,,,,,-54.44444444,-36,20,75,-206.4444444,9.555555556,9.555555556,-0.240740721,-0.390740824,1,0,0,3.0817,submitButton,9.533697632,-0.240740721,-0.390740824,0,0,0,1,15,75,20,1,36,68857,N,180,2022-02-15_19h15.29.749,orientation adjustment blockN,2021.2.3,Win32,59.23819679,,,,,,,
,,,,,,,,,,,,,,,,,44.44444444,-67,20,75,-59.55555556,7.444444444,7.444444444,0.362037074,-0.284259283,1,0,0,0.4621,submitButton,9.5,-0.15185183,-0.406481508,0,0,0,1,16,76,51,1,67,68857,N,180,2022-02-15_19h15.29.749,orientation adjustment blockN,2021.2.3,Win32,59.23819679,,,,,,,
,,,,,,,,,,,,,,,,,-25.55555556,-68,20,75,-80.55555556,12.55555556,12.55555556,0.165740772,-0.300000024,1,0,0,0.2333,submitButton,9.548500882,-0.152777756,-0.401851935,0,0,0,1,17,77,52,1,68,68857,N,180,2022-02-15_19h15.29.749,orientation adjustment blockN,2021.2.3,Win32,59.23819679,,,,,,,
,,,,,,,,,,,,,,,,,-43.88888889,38,20,75,27.11111111,10.88888889,10.88888889,0.203703736,-0.293518599,1,0,0,0.1006,submitButton,9.569444444,-0.156481403,-0.397222249,0,0,0,1,18,78,22,1,38,68857,N,180,2022-02-15_19h15.29.749,orientation adjustment blockN,2021.2.3,Win32,59.23819679,,,,,,,
,,,,,,,,,,,,,,,,,-31.66666667,-44,20,75,-34.66666667,9.333333333,9.333333333,0.172222254,-0.321296377,1,0,0,0.2166,submitButton,9.565811966,-0.143518496,-0.413888916,0,0,0,1,19,79,28,1,44,68857,N,180,2022-02-15_19h15.29.749,orientation adjustment blockN,2021.2.3,Win32,59.23819679,,,,,,,
,,,,,,,,,,,,,,,,,47.77777778,-33,20,75,-24.22222222,8.777777778,8.777777778,0.414814854,-0.282407487,1,0,0,0.15,submitButton,9.553872054,-0.129629607,-0.402777805,0,0,0,1,20,80,17,1,33,68857,N,180,2022-02-15_19h15.29.749,orientation adjustment blockN,2021.2.3,Win32,59.23819679,,,,,,,
,,,,,,,,,,,,,,,,,68.88888889,-72,20,75,-58.11111111,13.88888889,13.88888889,0.428703743,-0.293518599,1,0,0,0.9832,submitButton,9.618573798,-0.138888867,-0.389814841,0,0,0,1,21,81,56,1,72,68857,N,180,2022-02-15_19h15.29.749,orientation adjustment blockN,2021.2.3,Win32,59.23819679,,,,,,,
,,,,,,,,,,,,,,,,,-47.77777778,50,20,75,58.22222222,8.222222222,8.222222222,0.186111143,-0.28703706,1,0,0,0.3995,submitButton,9.598039216,-0.207407387,-0.418518602,0,0,0,1,22,82,34,1,50,68857,N,180,2022-02-15_19h15.29.749,orientation adjustment blockN,2021.2.3,Win32,59.23819679,,,,,,,
,,,,,,,,,,,,,,,,,20.55555556,-43,20,75,-32.44444444,10.55555556,10.55555556,0.437037077,-0.279629709,1,0,0,1.1329,submitButton,9.611916264,-0.124999977,-0.401851935,0,0,0,1,23,83,27,1,43,68857,N,180,2022-02-15_19h15.29.749,orientation adjustment blockN,2021.2.3,Win32,59.23819679,,,,,,,
,,,,,,,,,,,,,,,,,-20.55555556,69,20,75,49.44444444,19.55555556,19.55555556,0.375925964,-0.301851932,1,0,0,1.4615,submitButton,9.753968254,-0.127777755,-0.406481508,0,0,0,1,24,84,53,1,69,68857,N,180,2022-02-15_19h15.29.749,orientation adjustment blockN,2021.2.3,Win32,59.23819679,,,,,,,
,,,,,,,,,,,,,,,,,72.22222222,54,20,75,73.22222222,19.22222222,19.22222222,0.364814852,-0.283333357,1,0,0,0.7158,submitButton,9.887323944,-0.154629608,-0.410185269,0,0,0,1,25,85,38,1,54,68857,N,180,2022-02-15_19h15.29.749,orientation adjustment blockN,2021.2.3,Win32,59.23819679,,,,,,,
,,,,,,,,,,,,,,,,,-32.77777778,-59,20,75,-58.77777778,0.222222222,0.222222222,-0.140740718,-0.39629638,1,0,0,1.1499,submitButton,9.75308642,-0.140740718,-0.39629638,0,0,0,1,26,86,43,1,59,68857,N,180,2022-02-15_19h15.29.749,orientation adjustment blockN,2021.2.3,Win32,59.23819679,,,,,,,
,,,,,,,,,,,,,,,,,39.44444444,-40,20,75,-30.55555556,9.444444444,9.444444444,0.363888926,-0.294444468,1,0,0,0.0832,submitButton,9.748858447,-0.116666644,-0.398148175,0,0,0,1,27,87,24,1,40,68857,N,180,2022-02-15_19h15.29.749,orientation adjustment blockN,2021.2.3,Win32,59.23819679,,,,,,,
,,,,,,,,,,,,,,,,,39.44444444,-19,20,75,-19.55555556,0.555555556,0.555555556,0.391666705,-0.294444468,1,0,0,0.0333,submitButton,9.624624625,-0.130555533,-0.412037064,0,0,0,1,28,88,3,1,19,68857,N,180,2022-02-15_19h15.29.749,orientation adjustment blockN,2021.2.3,Win32,59.23819679,,,,,,,
,,,,,,,,,,,,,,,,,26.11111111,-65,20,75,-60.88888889,4.111111111,4.111111111,-0.120370291,-0.400000027,1,0,0,1.0117,submitButton,9.551111111,0.25555559,-0.412037064,1,0,0,1,29,89,49,1,65,68857,N,180,2022-02-15_19h15.29.749,orientation adjustment blockN,2021.2.3,Win32,59.23819679,continueButton,,,,,,
,,,,,,,,,,,,,,,,,-31.66666667,-64,20,75,-79.66666667,15.66666667,15.66666667,0.211111144,-0.282407487,1,0,0,0.3327,submitButton,9.631578947,-0.157407386,-0.418518602,0,0,0,1,30,90,48,1,64,68857,N,180,2022-02-15_19h15.29.749,orientation adjustment blockN,2021.2.3,Win32,59.23819679,,,,,,,
,,,,,,,,,,,,,,,,,29.44444444,-75,20,75,-77.55555556,2.555555556,2.555555556,0.373148186,-0.30462971,1,0,0,0.2163,submitButton,9.53968254,-0.133333311,-0.398148175,0,0,0,1,31,91,59,1,75,68857,N,180,2022-02-15_19h15.29.749,orientation adjustment blockN,2021.2.3,Win32,59.23819679,,,,,,,
,,,,,,,,,,,,,,,,,-46.66666667,-29,20,75,-32.66666667,3.666666667,3.666666667,0.217592626,-0.315740822,1,0,0,0.3816,submitButton,9.464387464,-0.118518496,-0.394444471,0,0,0,1,32,92,13,1,29,68857,N,180,2022-02-15_19h15.29.749,orientation adjustment blockN,2021.2.3,Win32,59.23819679,,,,,,,
,,,,,,,,,,,,,,,,,-51.11111111,-30,20,75,-26.11111111,3.888888889,3.888888889,-0.133333311,-0.400000027,1,0,0,1.7992,submitButton,9.393811533,-0.133333311,-0.400000027,0,0,0,1,33,93,14,1,30,68857,N,180,2022-02-15_19h15.29.749,orientation adjustment blockN,2021.2.3,Win32,59.23819679,,,,,,,
,,,,,,,,,,,,,,,,,41.11111111,-70,20,75,-67.88888889,2.111111111,2.111111111,0.350000037,-0.293518599,1,0,0,0.0497,submitButton,9.302777778,-0.115740718,-0.395370397,0,0,0,1,34,94,54,1,70,68857,N,180,2022-02-15_19h15.29.749,orientation adjustment blockN,2021.2.3,Win32,59.23819679,,,,,,,
,,,,,,,,,,,,,,,,,-59.44444444,17,20,75,27.55555556,10.55555556,10.55555556,0.200925958,-0.321296377,1,0,0,0.0335,submitButton,9.31824417,-0.135185163,-0.387037063,0,0,0,1,35,95,1,1,17,68857,N,180,2022-02-15_19h15.29.749,orientation adjustment blockN,2021.2.3,Win32,59.23819679,,,,,,,
,,,,,,,,,,,,,,,,,56.66666667,-61,20,75,-47.33333333,13.66666667,13.66666667,0.362037074,-0.307407488,1,0,0,0.1003,submitButton,9.371273713,-0.130555533,-0.393518602,0,0,0,1,36,96,45,1,61,68857,N,180,2022-02-15_19h15.29.749,orientation adjustment blockN,2021.2.3,Win32,59.23819679,,,,,,,
,,,,,,,,,,,,,,,,,58.88888889,18,20,75,22.88888889,4.888888889,4.888888889,0.412963002,-0.306481506,1,0,0,1.083,submitButton,9.317269076,-0.11296294,-0.411111138,0,0,0,1,37,97,2,1,18,68857,N,180,2022-02-15_19h15.29.749,orientation adjustment blockN,2021.2.3,Win32,59.23819679,,,,,,,
,,,,,,,,,,,,,,,,,-25.55555556,-52,20,75,-64.55555556,12.55555556,12.55555556,0.200925958,-0.282407487,1,0,0,12.8464,submitButton,9.355820106,-0.124074051,-0.399074157,0,0,0,1,38,98,36,1,52,68857,N,180,2022-02-15_19h15.29.749,orientation adjustment blockN,2021.2.3,Win32,59.23819679,,,,,,,
,,,,,,,,,,,,,,,,,-63.88888889,51,20,75,29.11111111,21.88888889,21.88888889,-0.137036958,-0.404629713,1,0,0,2.0617,submitButton,9.503267974,-0.137036958,-0.404629713,0,0,0,1,39,99,35,1,51,68857,N,180,2022-02-15_19h15.29.749,orientation adjustment blockN,2021.2.3,Win32,59.23819679,,,,,,,
,,,,,,,,,,,,,,,,,20,53,20,75,61,8,8,0.385185223,-0.28703706,1,0,0,0.2168,submitButton,9.485788114,-0.165740719,-0.406481508,0,0,0,1,40,100,37,1,53,68857,N,180,2022-02-15_19h15.29.749,orientation adjustment blockN,2021.2.3,Win32,59.23819679,,,,,,,
,,,,,,,,,,,,,,,,,-45.55555556,-28,20,75,-31.55555556,3.555555556,3.555555556,0.239814848,-0.306481506,1,0,0,0.0167,submitButton,9.417624521,-0.140740718,-0.410185269,0,0,0,1,41,101,12,1,28,68857,N,180,2022-02-15_19h15.29.749,orientation adjustment blockN,2021.2.3,Win32,59.23819679,,,,,,,
,,,,,,,,,,,,,,,,,58.88888889,56,20,75,68.88888889,12.88888889,12.88888889,0.36759263,-0.293518599,1,0,0,0.483,submitButton,9.457070707,-0.163888867,-0.401851935,0,0,0,1,42,102,40,1,56,68857,N,180,2022-02-15_19h15.29.749,orientation adjustment blockN,2021.2.3,Win32,59.23819679,,,,,,,
,,,,,,,,,,,,,,,,,66.11111111,34,20,75,205.1111111,8.888888889,8.888888889,-0.223148128,-0.404629713,1,0,0,2.4824,submitButton,9.450686642,-0.223148128,-0.404629713,0,0,0,1,43,103,18,1,34,68857,N,180,2022-02-15_19h15.29.749,orientation adjustment blockN,2021.2.3,Win32,59.23819679,,,,,,,
,,,,,,,,,,,,,,,,,-51.66666667,60,20,75,38.33333333,21.66666667,21.66666667,-0.144444422,-0.400000027,1,0,0,1.3994,submitButton,9.586419753,0.217592626,-0.400000027,1,0,0,1,44,104,44,1,60,68857,N,180,2022-02-15_19h15.29.749,orientation adjustment blockN,2021.2.3,Win32,59.23819679,continueButton,,,,,,
,,,,,,,,,,,,,,,,,-59.44444444,49,20,75,47.55555556,1.444444444,1.444444444,0.218518552,-0.33055558,1,0,0,0.1669,submitButton,9.496947497,-0.142592514,-0.415740825,0,0,0,1,45,105,33,1,49,68857,N,180,2022-02-15_19h15.29.749,orientation adjustment blockN,2021.2.3,Win32,59.23819679,,,,,,,
,,,,,,,,,,,,,,,,,58.88888889,45,20,75,214.8888889,10.11111111,10.11111111,0.184259291,-0.317592617,1,0,0,0.0168,submitButton,9.503623188,-0.136111089,-0.394444471,0,0,0,1,46,106,29,1,45,68857,N,180,2022-02-15_19h15.29.749,orientation adjustment blockN,2021.2.3,Win32,59.23819679,,,,,,,
,,,,,,,,,,,,,,,,,20.55555556,73,20,75,75.55555556,2.555555556,2.555555556,0.408333372,-0.307407488,1,0,0,0.5498,submitButton,9.428912784,-0.135185163,-0.387963046,0,0,0,1,47,107,57,1,73,68857,N,180,2022-02-15_19h15.29.749,orientation adjustment blockN,2021.2.3,Win32,59.23819679,,,,,,,
,,,,,,,,,,,,,,,,,28.88888889,-47,20,75,-40.11111111,6.888888889,6.888888889,0.381481519,-0.281481505,1,0,0,0.2497,submitButton,9.401891253,-0.113888866,-0.406481508,0,0,0,1,48,108,31,1,47,68857,N,180,2022-02-15_19h15.29.749,orientation adjustment blockN,2021.2.3,Win32,59.23819679,,,,,,,
,,,,,,,,,,,,,,,,,-41.66666667,39,20,75,18.33333333,20.66666667,20.66666667,-0.149074052,-0.415740825,1,0,0,1.233,submitButton,9.520467836,-0.149074052,-0.415740825,0,0,0,1,49,109,23,1,39,68857,N,180,2022-02-15_19h15.29.749,orientation adjustment blockN,2021.2.3,Win32,59.23819679,,,,,,,
,,,,,,,,,,,,,,,,,-61.66666667,-23,20,75,-105.6666667,82.66666667,82.66666667,0.403703742,-0.30462971,1,0,0,0.9663,submitButton,10.28240741,-0.112036957,-0.402777805,0,0,0,1,50,110,7,1,23,68857,N,180,2022-02-15_19h15.29.749,orientation adjustment blockN,2021.2.3,Win32,59.23819679,,,,,,,
,,,,,,,,,,,,,,,,,41.11111111,-42,20,75,-20.88888889,21.11111111,21.11111111,0.426851891,-0.298148172,1,0,0,0.0667,submitButton,10.39404353,-0.177777757,-0.402777805,0,0,0,1,51,111,26,1,42,68857,N,180,2022-02-15_19h15.29.749,orientation adjustment blockN,2021.2.3,Win32,59.23819679,,,,,,,
,,,,,,,,,,,,,,,,,25,35,20,75,47,12,12,0.397222261,-0.294444468,1,0,0,0.2996,submitButton,10.41043084,-0.204629609,-0.392592619,0,0,0,1,52,112,19,1,35,68857,N,180,2022-02-15_19h15.29.749,orientation adjustment blockN,2021.2.3,Win32,59.23819679,,,,,,,
,,,,,,,,,,,,,,,,,-25,58,20,75,46,12,12,-0.182407386,-0.399074157,1,0,0,0.9786,submitButton,10.42648709,-0.182407386,-0.399074157,0,0,0,1,53,113,42,1,58,68857,N,180,2022-02-15_19h15.29.749,orientation adjustment blockN,2021.2.3,Win32,59.23819679,,,,,,,
,,,,,,,,,,,,,,,,,-57.77777778,46,20,75,31.22222222,14.77777778,14.77777778,0.179629661,-0.33055558,1,0,0,0.0164,submitButton,10.47,-0.161111089,-0.381481508,0,0,0,1,54,114,30,1,46,68857,N,180,2022-02-15_19h15.29.749,orientation adjustment blockN,2021.2.3,Win32,59.23819679,,,,,,,
,,,,,,,,,,,,,,,,,35,24,20,75,36,12,12,0.37685189,-0.282407487,1,0,0,0.0333,submitButton,10.48514851,-0.176851831,-0.411111138,0,0,0,1,55,115,8,1,24,68857,N,180,2022-02-15_19h15.29.749,orientation adjustment blockN,2021.2.3,Win32,59.23819679,,,,,,,
,,,,,,,,,,,,,,,,,30,-66,20,75,-57,9,9,0.398148187,-0.293518599,1,0,0,0.1167,submitButton,10.47058824,-0.159259181,-0.395370397,0,0,0,1,56,116,50,1,66,68857,N,180,2022-02-15_19h15.29.749,orientation adjustment blockN,2021.2.3,Win32,59.23819679,,,,,,,
,,,,,,,,,,,,,,,,,-48.88888889,48,20,75,29.11111111,18.88888889,18.88888889,0.186111143,-0.311111135,1,0,0,0.1501,submitButton,10.55231931,-0.135185163,-0.401851935,0,0,0,1,57,117,32,1,48,68857,N,180,2022-02-15_19h15.29.749,orientation adjustment blockN,2021.2.3,Win32,59.23819679,,,,,,,
,,,,,,,,,,,,,,,,,-35.55555556,-41,20,75,-216.5555556,4.444444444,4.444444444,0.375000038,-0.307407488,1,0,0,0.3331,submitButton,10.49358974,-0.152777756,-0.42222225,0,0,0,1,58,118,25,1,41,68857,N,180,2022-02-15_19h15.29.749,orientation adjustment blockN,2021.2.3,Win32,59.23819679,,,,,,,
,,,,,,,,,,,,,,,,,-51.11111111,55,20,75,38.88888889,16.11111111,16.11111111,0.218518552,-0.298148172,1,0,0,0.15,submitButton,10.54708995,0.300925961,-0.386111138,1,0,0,1,59,119,39,1,55,68857,N,180,2022-02-15_19h15.29.749,orientation adjustment blockN,2021.2.3,Win32,59.23819679,continueButton,,,,,,
,,,,,,,,,,,,,,,,,68.33333333,45,20,75,54.33333333,9.333333333,9.333333333,0.374074112,-0.309259283,1,0,0,0.1334,submitButton,10.53563941,-0.160185163,-0.389814841,0,0,0,2,0,120,29,1,45,68857,N,180,2022-02-15_19h15.29.749,orientation adjustment blockN,2021.2.3,Win32,59.23819679,,,,,,,
,,,,,,,,,,,,,,,,,37.22222222,65,20,75,229.2222222,15.77777778,15.77777778,-0.213888869,-0.406481508,1,0,0,2.9489,submitButton,10.58463136,-0.213888869,-0.406481508,0,0,0,2,1,121,49,1,65,68857,N,180,2022-02-15_19h15.29.749,orientation adjustment blockN,2021.2.3,Win32,59.23819679,,,,,,,
,,,,,,,,,,,,,,,,,-74.44444444,-63,20,75,-223.4444444,19.55555556,19.55555556,0.374074112,-0.302777802,1,0,0,0.5003,submitButton,10.66769547,-0.170370292,-0.400000027,0,0,0,2,2,122,47,1,63,68857,N,180,2022-02-15_19h15.29.749,orientation adjustment blockN,2021.2.3,Win32,59.23819679,,,,,,,
,,,,,,,,,,,,,,,,,-35,38,20,75,25,13,13,-0.17314807,-0.409259286,1,0,0,1.0336,submitButton,10.68909276,-0.17314807,-0.409259286,0,0,0,2,3,123,22,1,38,68857,N,180,2022-02-15_19h15.29.749,orientation adjustment blockN,2021.2.3,Win32,59.23819679,,,,,,,
,,,,,,,,,,,,,,,,,-58.33333333,-20,20,75,-204.3333333,4.333333333,4.333333333,0.375925964,-0.287963043,1,0,0,0.1329,submitButton,10.63131313,-0.145370292,-0.385185268,0,0,0,2,4,124,4,1,20,68857,N,180,2022-02-15_19h15.29.749,orientation adjustment blockN,2021.2.3,Win32,59.23819679,,,,,,,
,,,,,,,,,,,,,,,,,-31.11111111,-36,20,75,-38.11111111,2.111111111,2.111111111,-0.116666644,-0.400925953,1,0,0,1.3832,submitButton,10.55455455,-0.116666644,-0.400925953,0,0,0,2,5,125,20,1,36,68857,N,180,2022-02-15_19h15.29.749,orientation adjustment blockN,2021.2.3,Win32,59.23819679,,,,,,,
,,,,,,,,,,,,,,,,,-73.88888889,49,20,75,39.11111111,9.888888889,9.888888889,-0.138888867,-0.388888915,1,0,0,1.7658,submitButton,10.54861111,-0.138888867,-0.388888915,0,0,0,2,6,126,33,1,49,68857,N,180,2022-02-15_19h15.29.749,orientation adjustment blockN,2021.2.3,Win32,59.23819679,,,,,,,
,,,,,,,,,,,,,,,,,-64.44444444,-68,20,75,-67.44444444,0.555555556,0.555555556,0.20277781,-0.318518599,1,0,0,0.3164,submitButton,10.46017699,-0.113888866,-0.395370397,0,0,0,2,7,127,52,1,68,68857,N,180,2022-02-15_19h15.29.749,orientation adjustment blockN,2021.2.3,Win32,59.23819679,,,,,,,
,,,,,,,,,,,,,,,,,26.11111111,-70,20,75,-63.88888889,6.111111111,6.111111111,0.379629667,-0.281481505,1,0,0,0.3666,submitButton,10.42202729,-0.113888866,-0.398148175,0,0,0,2,8,128,54,1,70,68857,N,180,2022-02-15_19h15.29.749,orientation adjustment blockN,2021.2.3,Win32,59.23819679,,,,,,,
,,,,,,,,,,,,,,,,,72.77777778,-50,20,75,109.7777778,20.22222222,20.22222222,-0.172222201,-0.42129638,1,0,0,2.5322,submitButton,10.50724638,-0.172222201,-0.42129638,0,0,0,2,9,129,34,1,50,68857,N,180,2022-02-15_19h15.29.749,orientation adjustment blockN,2021.2.3,Win32,59.23819679,,,,,,,
,,,,,,,,,,,,,,,,,-68.88888889,-18,20,75,-31.88888889,13.88888889,13.88888889,-0.137036958,-0.413888916,1,0,0,1.5326,submitButton,10.53639847,-0.137036958,-0.413888916,0,0,0,2,10,130,2,1,18,68857,N,180,2022-02-15_19h15.29.749,orientation adjustment blockN,2021.2.3,Win32,59.23819679,,,,,,,
,,,,,,,,,,,,,,,,,-51.66666667,28,20,75,19.33333333,8.666666667,8.666666667,-0.165740719,-0.392592619,1,0,0,1.1167,submitButton,10.52041785,0.075000029,-0.276851932,0,0,0,2,11,131,12,1,28,68857,N,180,2022-02-15_19h15.29.749,orientation adjustment blockN,2021.2.3,Win32,59.23819679,,,,,,,
,,,,,,,,,,,,,,,,,32.77777778,-56,20,75,-51.22222222,4.777777778,4.777777778,0.374074112,-0.293518599,1,0,0,0.4999,submitButton,10.47175141,-0.138888867,-0.390740824,0,0,0,2,12,132,40,1,56,68857,N,180,2022-02-15_19h15.29.749,orientation adjustment blockN,2021.2.3,Win32,59.23819679,,,,,,,
,,,,,,,,,,,,,,,,,61.11111111,22,20,75,197.1111111,4.888888889,4.888888889,0.183333365,-0.320370395,1,0,0,0.1166,submitButton,10.4248366,-0.212962943,-0.387037063,0,0,0,2,13,133,6,1,22,68857,N,180,2022-02-15_19h15.29.749,orientation adjustment blockN,2021.2.3,Win32,59.23819679,,,,,,,
,,,,,,,,,,,,,,,,,36.66666667,-21,20,75,-21.33333333,0.333333333,0.333333333,0.416666706,-0.308333357,1,0,0,0.3665,submitButton,10.34074074,0.434259299,-0.395370397,1,0,0,2,14,134,5,1,21,68857,N,180,2022-02-15_19h15.29.749,orientation adjustment blockN,2021.2.3,Win32,59.23819679,continueButton,,,,,,
,,,,,,,,,,,,,,,,,-72.77777778,-47,20,75,-68.77777778,21.77777778,21.77777778,0.223148181,-0.295370394,1,0,0,0.6487,submitButton,10.43526171,-0.1472222,-0.400000027,0,0,0,2,15,135,31,1,47,68857,N,180,2022-02-15_19h15.29.749,orientation adjustment blockN,2021.2.3,Win32,59.23819679,,,,,,,
,,,,,,,,,,,,,,,,,-34.44444444,-27,20,75,-35.44444444,8.444444444,8.444444444,-0.149999978,-0.388888915,1,0,0,1.0988,submitButton,10.41894353,-0.149999978,-0.388888915,0,0,0,2,16,136,11,1,27,68857,N,180,2022-02-15_19h15.29.749,orientation adjustment blockN,2021.2.3,Win32,59.23819679,,,,,,,
,,,,,,,,,,,,,,,,,-67.77777778,-42,20,75,-42.77777778,0.777777778,0.777777778,-0.113888866,-0.390740824,1,0,0,1.6161,submitButton,10.34056007,-0.113888866,-0.390740824,0,0,0,2,17,137,26,1,42,68857,N,180,2022-02-15_19h15.29.749,orientation adjustment blockN,2021.2.3,Win32,59.23819679,,,,,,,
,,,,,,,,,,,,,,,,,33.88888889,-51,20,75,112.8888889,16.11111111,16.11111111,-0.236111092,-0.424074158,1,0,0,3.0661,submitButton,10.38709677,-0.236111092,-0.424074158,0,0,0,2,18,138,35,1,51,68857,N,180,2022-02-15_19h15.29.749,orientation adjustment blockN,2021.2.3,Win32,59.23819679,,,,,,,
,,,,,,,,,,,,,,,,,-60.55555556,71,20,75,55.44444444,15.55555556,15.55555556,0.212962996,-0.293518599,1,0,0,0.6164,submitButton,10.42844444,-0.153703625,-0.402777805,0,0,0,2,19,139,55,1,71,68857,N,180,2022-02-15_19h15.29.749,orientation adjustment blockN,2021.2.3,Win32,59.23819679,,,,,,,
,,,,,,,,,,,,,,,,,-73.88888889,-24,20,75,-31.88888889,7.888888889,7.888888889,-0.189814794,-0.404629713,1,0,0,1.9158,submitButton,10.40828924,-0.189814794,-0.404629713,0,0,0,2,20,140,8,1,24,68857,N,180,2022-02-15_19h15.29.749,orientation adjustment blockN,2021.2.3,Win32,59.23819679,,,,,,,
,,,,,,,,,,,,,,,,,-44.44444444,25,20,75,21.55555556,3.444444444,3.444444444,-0.178703683,-0.388888915,1,0,0,1.2497,submitButton,10.35345582,-0.178703683,-0.388888915,0,0,0,2,21,141,9,1,25,68857,N,180,2022-02-15_19h15.29.749,orientation adjustment blockN,2021.2.3,Win32,59.23819679,,,,,,,
,,,,,,,,,,,,,,,,,-56.11111111,-52,20,75,-58.11111111,6.111111111,6.111111111,0.186111143,-0.293518599,1,0,0,0.7498,submitButton,10.3203125,-0.167592515,-0.394444471,0,0,0,2,22,142,36,1,52,68857,N,180,2022-02-15_19h15.29.749,orientation adjustment blockN,2021.2.3,Win32,59.23819679,,,,,,,
,,,,,,,,,,,,,,,,,-39.44444444,59,20,75,45.55555556,13.44444444,13.44444444,0.231481515,-0.302777802,1,0,0,0.0168,submitButton,10.34453058,-0.15185183,-0.401851935,0,0,0,2,23,143,43,1,59,68857,N,180,2022-02-15_19h15.29.749,orientation adjustment blockN,2021.2.3,Win32,59.23819679,,,,,,,
,,,,,,,,,,,,,,,,,-58.88888889,29,20,75,20.11111111,8.888888889,8.888888889,0.193518551,-0.301851932,1,0,0,0.2125,submitButton,10.33333333,-0.208333313,-0.390740824,0,0,0,2,24,144,13,1,29,68857,N,180,2022-02-15_19h15.29.749,orientation adjustment blockN,2021.2.3,Win32,59.23819679,,,,,,,
,,,,,,,,,,,,,,,,,30.55555556,-72,20,75,-75.44444444,3.444444444,3.444444444,0.378703741,-0.297222246,1,0,0,0.0668,submitButton,10.2807464,-0.194444424,-0.395370397,0,0,0,2,25,145,56,1,72,68857,N,180,2022-02-15_19h15.29.749,orientation adjustment blockN,2021.2.3,Win32,59.23819679,,,,,,,
,,,,,,,,,,,,,,,,,-21.11111111,-26,20,75,-34.11111111,8.111111111,8.111111111,0.197222255,-0.297222246,1,0,0,0.0836,submitButton,10.26430976,-0.210185165,-0.388888915,0,0,0,2,26,146,10,1,26,68857,N,180,2022-02-15_19h15.29.749,orientation adjustment blockN,2021.2.3,Win32,59.23819679,,,,,,,
,,,,,,,,,,,,,,,,,-51.11111111,53,20,75,28.88888889,24.11111111,24.11111111,0.186111143,-0.308333357,1,0,0,0.5001,submitButton,10.36842105,-0.187037016,-0.390740824,0,0,0,2,27,147,37,1,53,68857,N,180,2022-02-15_19h15.29.749,orientation adjustment blockN,2021.2.3,Win32,59.23819679,,,,,,,
,,,,,,,,,,,,,,,,,68.33333333,34,20,75,208.3333333,5.666666667,5.666666667,-0.14814807,-0.388888915,1,0,0,3.0946,submitButton,10.33333333,-0.14814807,-0.388888915,0,0,0,2,28,148,18,1,34,68857,N,180,2022-02-15_19h15.29.749,orientation adjustment blockN,2021.2.3,Win32,59.23819679,,,,,,,
,,,,,,,,,,,,,,,,,38.33333333,19,20,75,34.33333333,15.33333333,15.33333333,0.439814854,-0.293518599,1,0,0,0.1504,submitButton,10.37037037,-0.203703683,-0.401851935,0,0,0,2,29,149,3,1,19,68857,N,180,2022-02-15_19h15.29.749,orientation adjustment blockN,2021.2.3,Win32,59.23819679,,,,,,,
,,,,,,,,,,,,,,,,,75,-69,20,75,-27,42,42,0.360185222,-0.296296377,1,0,0,0.1169,submitButton,10.60294118,-0.120370291,-0.394444471,0,0,0,2,30,150,53,1,69,68857,N,180,2022-02-15_19h15.29.749,orientation adjustment blockN,2021.2.3,Win32,59.23819679,,,,,,,
,,,,,,,,,,,,,,,,,52.77777778,-32,20,75,-31.22222222,0.777777778,0.777777778,0.389814853,-0.298148172,1,0,0,0.1501,submitButton,10.53122466,-0.174074053,-0.405555583,0,0,0,2,31,151,16,1,32,68857,N,180,2022-02-15_19h15.29.749,orientation adjustment blockN,2021.2.3,Win32,59.23819679,,,,,,,
,,,,,,,,,,,,,,,,,-32.77777778,-23,20,75,-42.77777778,19.77777778,19.77777778,0.185185217,-0.279629709,1,0,0,0.0662,submitButton,10.59822866,-0.1472222,-0.386111138,0,0,0,2,32,152,7,1,23,68857,N,180,2022-02-15_19h15.29.749,orientation adjustment blockN,2021.2.3,Win32,59.23819679,,,,,,,
,,,,,,,,,,,,,,,,,-27.77777778,-30,20,75,-31.77777778,1.777777778,1.777777778,0.179629661,-0.301851932,1,0,0,0.1334,submitButton,10.53477218,-0.131481402,-0.399074157,0,0,0,2,33,153,14,1,30,68857,N,180,2022-02-15_19h15.29.749,orientation adjustment blockN,2021.2.3,Win32,59.23819679,,,,,,,
,,,,,,,,,,,,,,,,,46.66666667,-40,20,75,-23.33333333,16.66666667,16.66666667,0.429629669,-0.281481505,1,0,0,0.0506,submitButton,10.57857143,-0.100925846,-0.390740824,0,0,0,2,34,154,24,1,40,68857,N,180,2022-02-15_19h15.29.749,orientation adjustment blockN,2021.2.3,Win32,59.23819679,,,,,,,
,,,,,,,,,,,,,,,,,42.77777778,60,20,75,68.77777778,8.777777778,8.777777778,0.366666704,-0.300000024,1,0,0,0.2171,submitButton,10.56579984,-0.166666645,-0.400000027,0,0,0,2,35,155,44,1,60,68857,N,180,2022-02-15_19h15.29.749,orientation adjustment blockN,2021.2.3,Win32,59.23819679,,,,,,,
,,,,,,,,,,,,,,,,,-31.66666667,-44,20,75,-46.66666667,2.666666667,2.666666667,-0.127777755,-0.410185269,1,0,0,1.5166,submitButton,10.51017214,-0.127777755,-0.410185269,0,0,0,2,36,156,28,1,44,68857,N,180,2022-02-15_19h15.29.749,orientation adjustment blockN,2021.2.3,Win32,59.23819679,,,,,,,
,,,,,,,,,,,,,,,,,56.11111111,64,20,75,72.11111111,8.111111111,8.111111111,-0.185185164,-0.397222249,1,0,0,1.6495,submitButton,10.49339549,-0.185185164,-0.397222249,0,0,0,2,37,157,48,1,64,68857,N,180,2022-02-15_19h15.29.749,orientation adjustment blockN,2021.2.3,Win32,59.23819679,,,,,,,
,,,,,,,,,,,,,,,,,42.22222222,-17,20,75,-15.77777778,1.222222222,1.222222222,-0.19537035,-0.395370397,1,0,0,1.3829,submitButton,10.42901235,-0.19537035,-0.395370397,0,0,0,2,38,158,1,1,17,68857,N,180,2022-02-15_19h15.29.749,orientation adjustment blockN,2021.2.3,Win32,59.23819679,,,,,,,
,,,,,,,,,,,,,,,,,52.77777778,-62,20,75,-43.22222222,18.77777778,18.77777778,-0.156481403,-0.385185268,1,0,0,1.0119,submitButton,10.48659004,-0.156481403,-0.385185268,0,0,0,2,39,159,46,1,62,68857,N,180,2022-02-15_19h15.29.749,orientation adjustment blockN,2021.2.3,Win32,59.23819679,,,,,,,
,,,,,,,,,,,,,,,,,22.22222222,-54,20,75,-51.77777778,2.222222222,2.222222222,0.414814854,-0.311111135,1,0,0,0.0836,submitButton,10.42998478,-0.18611109,-0.397222249,0,0,0,2,40,160,38,1,54,68857,N,180,2022-02-15_19h15.29.749,orientation adjustment blockN,2021.2.3,Win32,59.23819679,,,,,,,
,,,,,,,,,,,,,,,,,42.77777778,58,20,75,66.77777778,8.777777778,8.777777778,0.366666704,-0.311111135,1,0,0,0.2333,submitButton,10.41874528,-0.121296273,-0.38240749,0,0,0,2,41,161,42,1,58,68857,N,180,2022-02-15_19h15.29.749,orientation adjustment blockN,2021.2.3,Win32,59.23819679,,,,,,,
,,,,,,,,,,,,,,,,,60.55555556,43,20,75,71.55555556,28.55555556,28.55555556,-0.132407385,-0.393518602,1,0,0,1.8497,submitButton,10.54129129,-0.132407385,-0.393518602,0,0,0,2,42,162,27,1,43,68857,N,180,2022-02-15_19h15.29.749,orientation adjustment blockN,2021.2.3,Win32,59.23819679,,,,,,,
,,,,,,,,,,,,,,,,,30,-16,20,75,-13,3,3,0.215740774,-0.312037061,1,0,0,1.2498,submitButton,10.4906786,-0.135185163,-0.377777804,0,0,0,2,43,163,0,1,16,68857,N,180,2022-02-15_19h15.29.749,orientation adjustment blockN,2021.2.3,Win32,59.23819679,,,,,,,
,,,,,,,,,,,,,,,,,35,-48,20,75,-45,3,3,-0.156481403,-0.42129638,1,0,0,1.6828,submitButton,10.44074074,-0.156481403,-0.42129638,0,0,0,2,44,164,32,1,48,68857,N,180,2022-02-15_19h15.29.749,orientation adjustment blockN,2021.2.3,Win32,59.23819679,,,,,,,
,,,,,,,,,,,,,,,,,57.22222222,39,20,75,216.2222222,2.777777778,2.777777778,0.200925958,-0.295370394,1,0,0,1.8325,submitButton,10.38999264,-0.13425918,-0.391666693,0,0,0,2,45,165,23,1,39,68857,N,180,2022-02-15_19h15.29.749,orientation adjustment blockN,2021.2.3,Win32,59.23819679,,,,,,,
,,,,,,,,,,,,,,,,,-65,-61,20,75,-62,1,1,-0.164814737,-0.37870373,1,0,0,1.8832,submitButton,10.32821637,-0.164814737,-0.37870373,0,0,0,2,46,166,45,1,61,68857,N,180,2022-02-15_19h15.29.749,orientation adjustment blockN,2021.2.3,Win32,59.23819679,,,,,,,
,,,,,,,,,,,,,,,,,63.88888889,-46,20,75,124.8888889,9.111111111,9.111111111,0.205555588,-0.309259283,1,0,0,0.1166,submitButton,10.32026144,-0.111111088,-0.398148175,0,0,0,2,47,167,30,1,46,68857,N,180,2022-02-15_19h15.29.749,orientation adjustment blockN,2021.2.3,Win32,59.23819679,,,,,,,
,,,,,,,,,,,,,,,,,61.66666667,33,20,75,48.66666667,15.66666667,15.66666667,0.385185223,-0.28703706,1,0,0,0.3828,submitButton,10.35497835,-0.140740718,-0.403703731,0,0,0,2,48,168,17,1,33,68857,N,180,2022-02-15_19h15.29.749,orientation adjustment blockN,2021.2.3,Win32,59.23819679,,,,,,,
,,,,,,,,,,,,,,,,,73.33333333,-37,20,75,-29.66666667,7.333333333,7.333333333,-0.199074054,-0.427777805,1,0,0,1.9161,submitButton,10.33548387,-0.198148128,-0.405555583,0,0,0,2,49,169,21,1,37,68857,N,180,2022-02-15_19h15.29.749,orientation adjustment blockN,2021.2.3,Win32,59.23819679,,,,,,,
,,,,,,,,,,,,,,,,,-23.33333333,-73,20,75,-257.3333333,4.333333333,4.333333333,0.369444482,-0.284259283,1,0,0,0.3335,submitButton,10.29700855,-0.161111089,-0.402777805,0,0,0,2,50,170,57,1,73,68857,N,180,2022-02-15_19h15.29.749,orientation adjustment blockN,2021.2.3,Win32,59.23819679,,,,,,,
,,,,,,,,,,,,,,,,,-41.66666667,35,20,75,34.33333333,0.666666667,0.666666667,0.189814847,-0.282407487,1,0,0,0.017,submitButton,10.23566879,-0.194444424,-0.395370397,0,0,0,2,51,171,19,1,35,68857,N,180,2022-02-15_19h15.29.749,orientation adjustment blockN,2021.2.3,Win32,59.23819679,,,,,,,
,,,,,,,,,,,,,,,,,29.44444444,-55,20,75,-48.55555556,6.444444444,6.444444444,-0.314814798,-0.427777805,1,0,0,0.6667,submitButton,10.2116737,-0.313888872,-0.402777805,0,0,0,2,52,172,39,1,55,68857,N,180,2022-02-15_19h15.29.749,orientation adjustment blockN,2021.2.3,Win32,59.23819679,,,,,,,
,,,,,,,,,,,,,,,,,30.55555556,75,20,75,60.55555556,14.44444444,14.44444444,-0.174074053,-0.412963047,1,0,0,0.983,submitButton,10.2382949,-0.174074053,-0.412963047,0,0,0,2,53,173,59,1,75,68857,N,180,2022-02-15_19h15.29.749,orientation adjustment blockN,2021.2.3,Win32,59.23819679,,,,,,,
,,,,,,,,,,,,,,,,,36.66666667,41,20,75,64.66666667,23.66666667,23.66666667,0.352777815,-0.297222246,1,0,0,0.2184,submitButton,10.32222222,-0.155555534,-0.392592619,0,0,0,2,54,174,25,1,41,68857,N,180,2022-02-15_19h15.29.749,orientation adjustment blockN,2021.2.3,Win32,59.23819679,,,,,,,
,,,,,,,,,,,,,,,,,-35.55555556,-57,20,75,-59.55555556,2.555555556,2.555555556,-0.119444422,-0.392592619,1,0,0,1.1331,submitButton,10.27398206,-0.119444422,-0.392592619,0,0,0,2,55,175,41,1,57,68857,N,180,2022-02-15_19h15.29.749,orientation adjustment blockN,2021.2.3,Win32,59.23819679,,,,,,,
,,,,,,,,,,,,,,,,,31.11111111,-67,20,75,-59.88888889,7.111111111,7.111111111,0.41111115,-0.275925949,1,0,0,0.0666,submitButton,10.25445816,-0.155555534,-0.418518602,0,0,0,2,56,176,51,1,67,68857,N,180,2022-02-15_19h15.29.749,orientation adjustment blockN,2021.2.3,Win32,59.23819679,,,,,,,
,,,,,,,,,,,,,,,,,23.88888889,-66,20,75,-63.11111111,2.888888889,2.888888889,0.387037075,-0.310185266,1,0,0,0.066,submitButton,10.20927062,-0.165740719,-0.412037064,0,0,0,2,57,177,50,1,66,68857,N,180,2022-02-15_19h15.29.749,orientation adjustment blockN,2021.2.3,Win32,59.23819679,,,,,,,
,,,,,,,,,,,,,,,,,-71.66666667,74,20,75,-102.6666667,3.333333333,3.333333333,-0.206481461,-0.388888915,1,0,0,2.3326,submitButton,10.16734417,-0.206481461,-0.388888915,0,0,0,2,58,178,58,1,74,68857,N,180,2022-02-15_19h15.29.749,orientation adjustment blockN,2021.2.3,Win32,59.23819679,,,,,,,
,,,,,,,,,,,,,,,,,-51.11111111,31,20,75,27.88888889,3.111111111,3.111111111,-0.212037017,-0.40833336,1,0,0,1.7495,submitButton,10.12457912,-0.212037017,-0.40833336,0,0,0,2,59,179,15,1,31,68857,N,180,2022-02-15_19h15.29.749,orientation adjustment blockN,2021.2.3,Win32,59.23819679,,,,,,,
,,,,,,,,,,,,,,,,,,,,,,,,,,,,,,,,,,,,,,,,,,,68857,N,180,2022-02-15_19h15.29.749,orientation adjustment blockN,2021.2.3,Win32,59.23819679,,0.405555594,-0.414814842,1,0,0,EndButtonTxt
