consentMouse1.x,consentMouse1.y,consentMouse1.leftButton,consentMouse1.midButton,consentMouse1.rightButton,consentMouse1.clicked_name,consent_Mouse.x,consent_Mouse.y,consent_Mouse.leftButton,consent_Mouse.midButton,consent_Mouse.rightButton,consent_Mouse.clicked_name,startMouse.x,startMouse.y,startMouse.leftButton,startMouse.midButton,startMouse.rightButton,start_distance,fixedOri,minimalDistance,maxOri,this_ori,accuracy,presented_accuracy,submitMouse.x,submitMouse.y,submitMouse.leftButton,submitMouse.midButton,submitMouse.rightButton,submitMouse.time,submitMouse.clicked_name,block_accuracy,continueMouse.x,continueMouse.y,continueMouse.leftButton,continueMouse.midButton,continueMouse.rightButton,trials.thisRepN,trials.thisTrialN,trials.thisN,trials.thisIndex,trials.ran,startOri,participant,condition,nTrials,date,expName,psychopyVersion,OS,frameRate,continueMouse.clicked_name,EndButtonMouse.x,EndButtonMouse.y,EndButtonMouse.leftButton,EndButtonMouse.midButton,EndButtonMouse.rightButton,EndButtonMouse.clicked_name
0.337737942,-0.402697824,1,0,0,consent_button1,0.406783625,-0.413222941,1,0,0,consent_button,0.441010898,-0.23303738,1,0,0,-46.66666667,-51,20,75,-99.66666667,48.66666667,48.66666667,0.392757294,-0.30714186,1,0,0,5.0464,submitButton,48.66666667,-0.304459457,-0.40239457,0,0,0,0,0,0,35,1,51,68929,N,180,2022-02-15_19h52.05.256,orientation adjustment blockN,2021.2.3,Linux x86_64,60.0060006,,,,,,,
,,,,,,,,,,,,,,,,,-49.44444444,21,20,75,-28.44444444,49.44444444,49.44444444,-0.20090461,-0.403544122,1,0,0,1.1007,submitButton,49.05555556,-0.20090461,-0.403544122,0,0,0,0,1,1,5,1,21,68929,N,180,2022-02-15_19h52.05.256,orientation adjustment blockN,2021.2.3,Linux x86_64,60.0060006,,,,,,,
,,,,,,,,,,,,,,,,,61.11111111,30,20,75,91.11111111,61.11111111,61.11111111,-0.278600274,-0.411736905,1,0,0,1.4481,submitButton,53.07407407,-0.278600274,-0.411736905,0,0,0,0,2,2,14,1,30,68929,N,180,2022-02-15_19h52.05.256,orientation adjustment blockN,2021.2.3,Linux x86_64,60.0060006,,,,,,,
,,,,,,,,,,,,,,,,,48.88888889,59,20,75,107.8888889,48.88888889,48.88888889,-0.278600274,-0.411736905,1,0,0,0.3998,submitButton,48.88888889,-0.278600274,-0.411736905,0,0,0,0,3,3,43,1,59,68929,N,180,2022-02-15_19h52.05.256,orientation adjustment blockN,2021.2.3,Linux x86_64,60.0060006,,,,,,,
,,,,,,,,,,,,,,,,,-68.33333333,29,20,75,-39.33333333,68.33333333,68.33333333,-0.278600274,-0.411736905,1,0,0,0.401,submitButton,58.61111111,-0.278600274,-0.411736905,0,0,0,0,4,4,13,1,29,68929,N,180,2022-02-15_19h52.05.256,orientation adjustment blockN,2021.2.3,Linux x86_64,60.0060006,,,,,,,
,,,,,,,,,,,,,,,,,-38.88888889,26,20,75,-12.88888889,38.88888889,38.88888889,-0.278600274,-0.411236303,1,0,0,0.4171,submitButton,52.03703704,-0.278600274,-0.411236303,0,0,0,0,5,5,10,1,26,68929,N,180,2022-02-15_19h52.05.256,orientation adjustment blockN,2021.2.3,Linux x86_64,60.0060006,,,,,,,
,,,,,,,,,,,,,,,,,-41.11111111,-35,20,75,-76.11111111,41.11111111,41.11111111,-0.278600274,-0.411236303,1,0,0,0.535,submitButton,41.11111111,-0.278600274,-0.411236303,0,0,0,0,6,6,19,1,35,68929,N,180,2022-02-15_19h52.05.256,orientation adjustment blockN,2021.2.3,Linux x86_64,60.0060006,,,,,,,
,,,,,,,,,,,,,,,,,-45.55555556,63,20,75,17.44444444,45.55555556,45.55555556,0.647127415,-0.427047235,1,0,0,0.6668,submitButton,43.33333333,-0.173557412,-0.414733844,0,0,0,0,7,7,47,1,63,68929,N,180,2022-02-15_19h52.05.256,orientation adjustment blockN,2021.2.3,Linux x86_64,60.0060006,,,,,,,
,,,,,,,,,,,,,,,,,-45,68,20,75,23,45,45,-0.173557412,-0.414733844,1,0,0,0.5493,submitButton,43.88888889,-0.173557412,-0.414733844,0,0,0,0,8,8,52,1,68,68929,N,180,2022-02-15_19h52.05.256,orientation adjustment blockN,2021.2.3,Linux x86_64,60.0060006,,,,,,,
,,,,,,,,,,,,,,,,,-29.44444444,50,20,75,20.55555556,29.44444444,29.44444444,-0.173557412,-0.414733844,1,0,0,0.5834,submitButton,29.44444444,-0.173557412,-0.414733844,0,0,0,0,9,9,34,1,50,68929,N,180,2022-02-15_19h52.05.256,orientation adjustment blockN,2021.2.3,Linux x86_64,60.0060006,,,,,,,
,,,,,,,,,,,,,,,,,-51.66666667,28,20,75,-23.66666667,51.66666667,51.66666667,-0.173557412,-0.414733844,1,0,0,0.3506,submitButton,40.55555556,-0.173557412,-0.414733844,0,0,0,0,10,10,12,1,28,68929,N,180,2022-02-15_19h52.05.256,orientation adjustment blockN,2021.2.3,Linux x86_64,60.0060006,,,,,,,
,,,,,,,,,,,,,,,,,-37.22222222,-38,20,75,-75.22222222,37.22222222,37.22222222,-0.173557412,-0.414733844,1,0,0,0.3823,submitButton,39.44444444,-0.173557412,-0.414733844,0,0,0,0,11,11,22,1,38,68929,N,180,2022-02-15_19h52.05.256,orientation adjustment blockN,2021.2.3,Linux x86_64,60.0060006,,,,,,,
,,,,,,,,,,,,,,,,,-51.66666667,-47,20,75,-98.66666667,51.66666667,51.66666667,-0.173557412,-0.414733844,1,0,0,0.635,submitButton,51.66666667,-0.173557412,-0.41673574,0,0,0,0,12,12,31,1,47,68929,N,180,2022-02-15_19h52.05.256,orientation adjustment blockN,2021.2.3,Linux x86_64,60.0060006,,,,,,,
,,,,,,,,,,,,,,,,,29.44444444,67,20,75,96.44444444,29.44444444,29.44444444,-0.173557412,-0.41673574,1,0,0,0.5002,submitButton,40.55555556,-0.172389606,-0.406892917,0,0,0,0,13,13,51,1,67,68929,N,180,2022-02-15_19h52.05.256,orientation adjustment blockN,2021.2.3,Linux x86_64,60.0060006,,,,,,,
,,,,,,,,,,,,,,,,,62.77777778,17,20,75,79.77777778,62.77777778,62.77777778,-0.172389606,-0.40789395,1,0,0,0.3679,submitButton,47.96296296,0.436723404,-0.400715312,1,0,0,0,14,14,1,1,17,68929,N,180,2022-02-15_19h52.05.256,orientation adjustment blockN,2021.2.3,Linux x86_64,60.0060006,continueButton,,,,,,
,,,,,,,,,,,,,,,,,31.66666667,32,20,75,63.66666667,31.66666667,31.66666667,-0.258281783,-0.401544203,1,0,0,0.7163,submitButton,31.66666667,-0.258281783,-0.401544203,0,0,0,0,15,15,16,1,32,68929,N,180,2022-02-15_19h52.05.256,orientation adjustment blockN,2021.2.3,Linux x86_64,60.0060006,,,,,,,
,,,,,,,,,,,,,,,,,-22.22222222,-66,20,75,-66.22222222,0.222222222,0.222222222,0.228321007,-0.295707093,1,0,0,0.2311,submitButton,15.94444444,0.183701821,-0.299273807,0,0,0,0,16,16,50,1,66,68929,N,180,2022-02-15_19h52.05.256,orientation adjustment blockN,2021.2.3,Linux x86_64,60.0060006,,,,,,,
,,,,,,,,,,,,,,,,,-70.55555556,56,20,75,-83.55555556,40.44444444,40.44444444,0.40369615,-0.283174258,1,0,0,0.9,submitButton,24.11111111,-0.222409782,-0.404991955,0,0,0,0,17,17,40,1,56,68929,N,180,2022-02-15_19h52.05.256,orientation adjustment blockN,2021.2.3,Linux x86_64,60.0060006,,,,,,,
,,,,,,,,,,,,,,,,,67.77777778,34,20,75,40.77777778,6.777777778,6.777777778,0.412436046,-0.281065267,1,0,0,0.6339,submitButton,19.77777778,0.059053506,-0.32450704,0,0,0,0,18,18,18,1,34,68929,N,180,2022-02-15_19h52.05.256,orientation adjustment blockN,2021.2.3,Linux x86_64,60.0060006,,,,,,,
,,,,,,,,,,,,,,,,,55.55555556,-24,20,75,-18.44444444,5.555555556,5.555555556,0.424093082,-0.280508039,1,0,0,0.1327,submitButton,16.93333333,0.121381874,-0.326268865,0,0,0,0,19,19,8,1,24,68929,N,180,2022-02-15_19h52.05.256,orientation adjustment blockN,2021.2.3,Linux x86_64,60.0060006,,,,,,,
,,,,,,,,,,,,,,,,,-59.44444444,-27,20,75,-205.4444444,1.555555556,1.555555556,0.399042898,-0.286465805,1,0,0,1.9661,submitButton,14.37037037,-0.137781259,-0.400509657,0,0,0,0,20,20,11,1,27,68929,N,180,2022-02-15_19h52.05.256,orientation adjustment blockN,2021.2.3,Linux x86_64,60.0060006,,,,,,,
,,,,,,,,,,,,,,,,,-27.77777778,72,20,75,84.22222222,12.22222222,12.22222222,0.225920178,-0.309981464,1,0,0,0.8323,submitButton,14.06349206,-0.14440979,-0.385358696,0,0,0,0,21,21,56,1,72,68929,N,180,2022-02-15_19h52.05.256,orientation adjustment blockN,2021.2.3,Linux x86_64,60.0060006,,,,,,,
,,,,,,,,,,,,,,,,,-70.55555556,-44,20,75,-60.55555556,16.55555556,16.55555556,0.226034223,-0.297888987,1,0,0,0.0159,submitButton,14.375,-0.160725788,-0.391012813,0,0,0,0,22,22,28,1,44,68929,N,180,2022-02-15_19h52.05.256,orientation adjustment blockN,2021.2.3,Linux x86_64,60.0060006,,,,,,,
,,,,,,,,,,,,,,,,,44.44444444,-39,20,75,128.4444444,12.55555556,12.55555556,-0.165735192,-0.393686322,1,0,0,3.0004,submitButton,14.17283951,-0.165735192,-0.393686322,0,0,0,0,23,23,23,1,39,68929,N,180,2022-02-15_19h52.05.256,orientation adjustment blockN,2021.2.3,Linux x86_64,60.0060006,,,,,,,
,,,,,,,,,,,,,,,,,-57.22222222,-49,20,75,-57.22222222,8.222222222,8.222222222,-0.171263281,-0.40574653,1,0,0,2.1162,submitButton,13.57777778,-0.088955337,-0.37977398,0,0,0,0,24,24,33,1,49,68929,N,180,2022-02-15_19h52.05.256,orientation adjustment blockN,2021.2.3,Linux x86_64,60.0060006,,,,,,,
,,,,,,,,,,,,,,,,,62.77777778,-19,20,75,145.7777778,15.22222222,15.22222222,-0.186423171,-0.405500863,1,0,0,2.1502,submitButton,13.72727273,-0.186423171,-0.405500863,0,0,0,0,25,25,3,1,19,68929,N,180,2022-02-15_19h52.05.256,orientation adjustment blockN,2021.2.3,Linux x86_64,60.0060006,,,,,,,
,,,,,,,,,,,,,,,,,-37.22222222,-45,20,75,-31.22222222,13.77777778,13.77777778,0.179730354,-0.28521368,1,0,0,0.1998,submitButton,13.73148148,0.20683245,-0.286111462,0,0,0,0,26,26,29,1,45,68929,N,180,2022-02-15_19h52.05.256,orientation adjustment blockN,2021.2.3,Linux x86_64,60.0060006,,,,,,,
,,,,,,,,,,,,,,,,,-21.11111111,33,20,75,36.88888889,3.888888889,3.888888889,-0.126745199,-0.392116193,1,0,0,1.5343,submitButton,12.97435897,-0.126745199,-0.392116193,0,0,0,0,27,27,17,1,33,68929,N,180,2022-02-15_19h52.05.256,orientation adjustment blockN,2021.2.3,Linux x86_64,60.0060006,,,,,,,
,,,,,,,,,,,,,,,,,-32.77777778,-53,20,75,-66.77777778,13.77777778,13.77777778,0.214863659,-0.302948632,1,0,0,0.1986,submitButton,13.03174603,-0.013059024,-0.364382382,0,0,0,0,28,28,37,1,53,68929,N,180,2022-02-15_19h52.05.256,orientation adjustment blockN,2021.2.3,Linux x86_64,60.0060006,,,,,,,
,,,,,,,,,,,,,,,,,-67.77777778,-64,20,75,-70.77777778,6.777777778,6.777777778,-0.157876915,-0.397200365,1,0,0,1.4163,submitButton,12.61481481,0.465771165,-0.390237327,1,0,0,0,29,29,48,1,64,68929,N,180,2022-02-15_19h52.05.256,orientation adjustment blockN,2021.2.3,Linux x86_64,60.0060006,continueButton,,,,,,
,,,,,,,,,,,,,,,,,-68.33333333,22,20,75,-138.3333333,19.66666667,19.66666667,0.384319183,-0.314482298,1,0,0,0.6174,submitButton,13.05555556,0.15182621,-0.319776985,0,0,0,0,30,30,6,1,22,68929,N,180,2022-02-15_19h52.05.256,orientation adjustment blockN,2021.2.3,Linux x86_64,60.0060006,,,,,,,
,,,,,,,,,,,,,,,,,-74.44444444,-36,20,75,-36.44444444,0.444444444,0.444444444,-0.16862012,-0.406318509,1,0,0,1.6653,submitButton,12.31372549,-0.16862012,-0.406318509,0,0,0,0,31,31,20,1,36,68929,N,180,2022-02-15_19h52.05.256,orientation adjustment blockN,2021.2.3,Linux x86_64,60.0060006,,,,,,,
,,,,,,,,,,,,,,,,,-30.55555556,42,20,75,29.44444444,12.55555556,12.55555556,-0.188123961,-0.404422858,1,0,0,0.731,submitButton,12.32716049,-0.188123961,-0.404422858,0,0,0,0,32,32,26,1,42,68929,N,180,2022-02-15_19h52.05.256,orientation adjustment blockN,2021.2.3,Linux x86_64,60.0060006,,,,,,,
,,,,,,,,,,,,,,,,,-50.55555556,41,20,75,40.44444444,0.555555556,0.555555556,-0.368420459,-0.406555867,1,0,0,2.8998,submitButton,11.70760234,-0.368420459,-0.406555867,0,0,0,0,33,33,25,1,41,68929,N,180,2022-02-15_19h52.05.256,orientation adjustment blockN,2021.2.3,Linux x86_64,60.0060006,,,,,,,
,,,,,,,,,,,,,,,,,-22.77777778,75,20,75,101.2222222,26.22222222,26.22222222,-0.23075747,-0.41097227,1,0,0,1.2834,submitButton,12.43333333,0.20122558,-0.250889203,0,0,0,0,34,34,59,1,75,68929,N,180,2022-02-15_19h52.05.256,orientation adjustment blockN,2021.2.3,Linux x86_64,60.0060006,,,,,,,
,,,,,,,,,,,,,,,,,21.66666667,43,20,75,107.6666667,64.66666667,64.66666667,-0.124169289,-0.411756119,1,0,0,1.2663,submitButton,14.92063492,-0.124169289,-0.411756119,0,0,0,0,35,35,27,1,43,68929,N,180,2022-02-15_19h52.05.256,orientation adjustment blockN,2021.2.3,Linux x86_64,60.0060006,,,,,,,
,,,,,,,,,,,,,,,,,-67.77777778,48,20,75,77.22222222,29.22222222,29.22222222,-0.103825197,-0.408435637,1,0,0,2.15,submitButton,15.57070707,0.193921932,-0.305118997,0,0,0,0,36,36,32,1,48,68929,N,180,2022-02-15_19h52.05.256,orientation adjustment blockN,2021.2.3,Linux x86_64,60.0060006,,,,,,,
,,,,,,,,,,,,,,,,,50,-62,20,75,-53,9,9,0.407498866,-0.297761208,1,0,0,0.5599,submitButton,15.28502415,-0.142589756,-0.410788034,0,0,0,0,37,37,46,1,62,68929,N,180,2022-02-15_19h52.05.256,orientation adjustment blockN,2021.2.3,Linux x86_64,60.0060006,,,,,,,
,,,,,,,,,,,,,,,,,40,18,20,75,30,12,12,0.416318108,-0.283183018,1,0,0,0.231,submitButton,15.14814815,0.28010267,-0.228063467,0,0,0,0,38,38,2,1,18,68929,N,180,2022-02-15_19h52.05.256,orientation adjustment blockN,2021.2.3,Linux x86_64,60.0060006,,,,,,,
,,,,,,,,,,,,,,,,,25.55555556,23,20,75,27.55555556,4.555555556,4.555555556,0.399244427,-0.276514418,1,0,0,0.1665,submitButton,14.72444444,0.201205574,-0.328894677,0,0,0,0,39,39,7,1,23,68929,N,180,2022-02-15_19h52.05.256,orientation adjustment blockN,2021.2.3,Linux x86_64,60.0060006,,,,,,,
,,,,,,,,,,,,,,,,,-68.33333333,-54,20,75,-176.3333333,57.66666667,57.66666667,-0.12336922,-0.390665082,1,0,0,1.816,submitButton,16.37606838,0.302146873,-0.239456414,0,0,0,0,40,40,38,1,54,68929,N,180,2022-02-15_19h52.05.256,orientation adjustment blockN,2021.2.3,Linux x86_64,60.0060006,,,,,,,
,,,,,,,,,,,,,,,,,-68.88888889,-57,20,75,-203.8888889,33.11111111,33.11111111,0.420182311,-0.294781732,1,0,0,0.216,submitButton,16.99588477,-0.105797707,-0.395321273,0,0,0,0,41,41,41,1,57,68929,N,180,2022-02-15_19h52.05.256,orientation adjustment blockN,2021.2.3,Linux x86_64,60.0060006,,,,,,,
,,,,,,,,,,,,,,,,,40.55555556,-60,20,75,-69.44444444,9.444444444,9.444444444,0.402436678,-0.295535968,1,0,0,0.2496,submitButton,16.72619048,-0.071370431,-0.359491206,0,0,0,0,42,42,44,1,60,68929,N,180,2022-02-15_19h52.05.256,orientation adjustment blockN,2021.2.3,Linux x86_64,60.0060006,,,,,,,
,,,,,,,,,,,,,,,,,62.22222222,-31,20,75,-17.77777778,13.22222222,13.22222222,-0.138593648,-0.391795928,1,0,0,1.6154,submitButton,16.60536398,-0.138593648,-0.391795928,0,0,0,0,43,43,15,1,31,68929,N,180,2022-02-15_19h52.05.256,orientation adjustment blockN,2021.2.3,Linux x86_64,60.0060006,,,,,,,
,,,,,,,,,,,,,,,,,-58.88888889,25,20,75,23.11111111,1.888888889,1.888888889,0.167502525,-0.325862416,1,0,0,0.0687,submitButton,16.11481481,0.423528507,-0.397036757,1,0,0,0,44,44,9,1,25,68929,N,180,2022-02-15_19h52.05.256,orientation adjustment blockN,2021.2.3,Linux x86_64,60.0060006,continueButton,,,,,,
,,,,,,,,,,,,,,,,,-70,20,20,75,14,6,6,-0.112134569,-0.388555413,1,0,0,2.4158,submitButton,15.78853047,-0.112134569,-0.388555413,0,0,0,0,45,45,4,1,20,68929,N,180,2022-02-15_19h52.05.256,orientation adjustment blockN,2021.2.3,Linux x86_64,60.0060006,,,,,,,
,,,,,,,,,,,,,,,,,-33.33333333,61,20,75,67.66666667,6.666666667,6.666666667,-0.179405937,-0.412308657,1,0,0,1.3004,submitButton,15.50347222,0.083841183,-0.286519154,0,0,0,0,46,46,45,1,61,68929,N,180,2022-02-15_19h52.05.256,orientation adjustment blockN,2021.2.3,Linux x86_64,60.0060006,,,,,,,
,,,,,,,,,,,,,,,,,-52.22222222,74,20,75,74.77777778,0.777777778,0.777777778,-0.212689199,-0.414724802,1,0,0,1.5484,submitButton,15.05723906,0.294833279,-0.336611725,0,0,0,0,47,47,58,1,74,68929,N,180,2022-02-15_19h52.05.256,orientation adjustment blockN,2021.2.3,Linux x86_64,60.0060006,,,,,,,
,,,,,,,,,,,,,,,,,40,37,20,75,56,19,19,0.404594045,-0.284066049,1,0,0,0.2157,submitButton,15.17320261,0.503581767,-0.292261771,0,0,0,0,48,48,21,1,37,68929,N,180,2022-02-15_19h52.05.256,orientation adjustment blockN,2021.2.3,Linux x86_64,60.0060006,,,,,,,
,,,,,,,,,,,,,,,,,56.11111111,-16,20,75,-12.88888889,3.111111111,3.111111111,-0.23126977,-0.396611319,1,0,0,1.7994,submitButton,14.82857143,-0.23126977,-0.396611319,0,0,0,0,49,49,0,1,16,68929,N,180,2022-02-15_19h52.05.256,orientation adjustment blockN,2021.2.3,Linux x86_64,60.0060006,,,,,,,
,,,,,,,,,,,,,,,,,-67.22222222,-69,20,75,-73.22222222,4.222222222,4.222222222,-0.188548551,-0.499074089,1,0,0,1.7512,submitButton,14.53395062,0.271533107,-0.233233088,0,0,0,0,50,50,53,1,69,68929,N,180,2022-02-15_19h52.05.256,orientation adjustment blockN,2021.2.3,Linux x86_64,60.0060006,,,,,,,
,,,,,,,,,,,,,,,,,-47.22222222,65,20,75,79.77777778,14.77777778,14.77777778,-0.157943376,-0.398714771,1,0,0,1.7001,submitButton,14.54054054,-0.157943376,-0.398714771,0,0,0,0,51,51,49,1,65,68929,N,180,2022-02-15_19h52.05.256,orientation adjustment blockN,2021.2.3,Linux x86_64,60.0060006,,,,,,,
,,,,,,,,,,,,,,,,,51.11111111,-58,20,75,94.11111111,27.88888889,27.88888889,-0.149782297,-0.387994228,1,0,0,2.3668,submitButton,14.89181287,-0.149782297,-0.387994228,0,0,0,0,52,52,42,1,58,68929,N,180,2022-02-15_19h52.05.256,orientation adjustment blockN,2021.2.3,Linux x86_64,60.0060006,,,,,,,
,,,,,,,,,,,,,,,,,-55,55,20,75,-92,33,33,0.393152779,-0.303776788,1,0,0,0.349,submitButton,15.35612536,-0.211982491,-0.402735406,0,0,0,0,53,53,39,1,55,68929,N,180,2022-02-15_19h52.05.256,orientation adjustment blockN,2021.2.3,Linux x86_64,60.0060006,,,,,,,
,,,,,,,,,,,,,,,,,71.11111111,46,20,75,65.11111111,19.11111111,19.11111111,0.387502054,-0.310405602,1,0,0,0.1834,submitButton,15.45,0.222166855,-0.379817947,0,0,0,0,54,54,30,1,46,68929,N,180,2022-02-15_19h52.05.256,orientation adjustment blockN,2021.2.3,Linux x86_64,60.0060006,,,,,,,
,,,,,,,,,,,,,,,,,-23.88888889,73,20,75,77.11111111,4.111111111,4.111111111,0.203728134,-0.331490084,1,0,0,0.0799,submitButton,15.17344173,0.165934713,-0.361364024,0,0,0,0,55,55,57,1,73,68929,N,180,2022-02-15_19h52.05.256,orientation adjustment blockN,2021.2.3,Linux x86_64,60.0060006,,,,,,,
,,,,,,,,,,,,,,,,,33.33333333,70,20,75,80.33333333,10.33333333,10.33333333,0.390556637,-0.283818688,1,0,0,0.5155,submitButton,15.05820106,-0.171457238,-0.392144902,0,0,0,0,56,56,54,1,70,68929,N,180,2022-02-15_19h52.05.256,orientation adjustment blockN,2021.2.3,Linux x86_64,60.0060006,,,,,,,
,,,,,,,,,,,,,,,,,-26.11111111,-40,20,75,-44.11111111,4.111111111,4.111111111,-0.137080485,-0.407109535,1,0,0,1.2488,submitButton,14.80361757,0.23771251,-0.279616982,0,0,0,0,57,57,24,1,40,68929,N,180,2022-02-15_19h52.05.256,orientation adjustment blockN,2021.2.3,Linux x86_64,60.0060006,,,,,,,
,,,,,,,,,,,,,,,,,-43.33333333,52,20,75,-121.3333333,6.666666667,6.666666667,-0.213354087,-0.408049986,1,0,0,3.3319,submitButton,14.61868687,-0.213354087,-0.408049986,0,0,0,0,58,58,36,1,52,68929,N,180,2022-02-15_19h52.05.256,orientation adjustment blockN,2021.2.3,Linux x86_64,60.0060006,,,,,,,
,,,,,,,,,,,,,,,,,70.55555556,71,20,75,79.55555556,8.555555556,8.555555556,-0.225793673,-0.398664474,1,0,0,1.9154,submitButton,14.48395062,0.471941481,-0.398430167,1,0,0,0,59,59,55,1,71,68929,N,180,2022-02-15_19h52.05.256,orientation adjustment blockN,2021.2.3,Linux x86_64,60.0060006,continueButton,,,,,,
,,,,,,,,,,,,,,,,,-56.11111111,19,20,75,2.888888889,16.11111111,16.11111111,-0.259469934,-0.414366277,1,0,0,3.6845,submitButton,14.51932367,-0.259469934,-0.414366277,0,0,0,1,0,60,3,1,19,68929,N,180,2022-02-15_19h52.05.256,orientation adjustment blockN,2021.2.3,Linux x86_64,60.0060006,,,,,,,
,,,,,,,,,,,,,,,,,-69.44444444,-29,20,75,-201.4444444,7.555555556,7.555555556,-0.114581287,-0.39812386,1,0,0,3.3166,submitButton,14.37115839,-0.114581287,-0.39812386,0,0,0,1,1,61,13,1,29,68929,N,180,2022-02-15_19h52.05.256,orientation adjustment blockN,2021.2.3,Linux x86_64,60.0060006,,,,,,,
,,,,,,,,,,,,,,,,,-58.33333333,-54,20,75,-206.3333333,27.66666667,27.66666667,0.349924968,-0.287285371,1,0,0,0.5488,submitButton,14.64814815,0.313684439,-0.300220869,0,0,0,1,2,62,38,1,54,68929,N,180,2022-02-15_19h52.05.256,orientation adjustment blockN,2021.2.3,Linux x86_64,60.0060006,,,,,,,
,,,,,,,,,,,,,,,,,-29.44444444,58,20,75,52.55555556,5.444444444,5.444444444,-0.195026585,-0.395608477,1,0,0,1.2316,submitButton,14.46031746,-0.195026585,-0.395608477,0,0,0,1,3,63,42,1,58,68929,N,180,2022-02-15_19h52.05.256,orientation adjustment blockN,2021.2.3,Linux x86_64,60.0060006,,,,,,,
,,,,,,,,,,,,,,,,,-69.44444444,38,20,75,25.55555556,12.44444444,12.44444444,0.206426001,-0.305513408,1,0,0,0.1998,submitButton,14.42,0.287019648,-0.327240511,0,0,0,1,4,64,22,1,38,68929,N,180,2022-02-15_19h52.05.256,orientation adjustment blockN,2021.2.3,Linux x86_64,60.0060006,,,,,,,
,,,,,,,,,,,,,,,,,-21.11111111,-41,20,75,-38.11111111,2.888888889,2.888888889,0.250507513,-0.29011825,1,0,0,0.5499,submitButton,14.19389978,-0.238559346,-0.399235152,0,0,0,1,5,65,25,1,41,68929,N,180,2022-02-15_19h52.05.256,orientation adjustment blockN,2021.2.3,Linux x86_64,60.0060006,,,,,,,
,,,,,,,,,,,,,,,,,50,-71,20,75,-65,6,6,-0.183453076,-0.388335856,1,0,0,1.5332,submitButton,14.03632479,-0.183453076,-0.388335856,0,0,0,1,6,66,55,1,71,68929,N,180,2022-02-15_19h52.05.256,orientation adjustment blockN,2021.2.3,Linux x86_64,60.0060006,,,,,,,
,,,,,,,,,,,,,,,,,45,-46,20,75,-48,2,2,0.418235742,-0.276259766,1,0,0,0.3156,submitButton,13.80922432,-0.133710723,-0.416206374,0,0,0,1,7,67,30,1,46,68929,N,180,2022-02-15_19h52.05.256,orientation adjustment blockN,2021.2.3,Linux x86_64,60.0060006,,,,,,,
,,,,,,,,,,,,,,,,,-35,64,20,75,60,4,4,-0.151045273,-0.414780581,1,0,0,1.1689,submitButton,13.62757202,-0.151045273,-0.414780581,0,0,0,1,8,68,48,1,64,68929,N,180,2022-02-15_19h52.05.256,orientation adjustment blockN,2021.2.3,Linux x86_64,60.0060006,,,,,,,
,,,,,,,,,,,,,,,,,38.33333333,-28,20,75,-29.66666667,1.666666667,1.666666667,-0.188406531,-0.404759399,1,0,0,1.2672,submitButton,13.41010101,-0.188406531,-0.404759399,0,0,0,1,9,69,12,1,28,68929,N,180,2022-02-15_19h52.05.256,orientation adjustment blockN,2021.2.3,Linux x86_64,60.0060006,,,,,,,
,,,,,,,,,,,,,,,,,36.66666667,-34,20,75,-31.33333333,2.666666667,2.666666667,0.359246054,-0.290933635,1,0,0,0.0503,submitButton,13.21825397,-0.212743113,-0.415900859,0,0,0,1,10,70,18,1,34,68929,N,180,2022-02-15_19h52.05.256,orientation adjustment blockN,2021.2.3,Linux x86_64,60.0060006,,,,,,,
,,,,,,,,,,,,,,,,,-22.22222222,31,20,75,30.77777778,0.222222222,0.222222222,-0.143557728,-0.401008563,1,0,0,1.4498,submitButton,12.99025341,0.212262431,-0.333041677,0,0,0,1,11,71,15,1,31,68929,N,180,2022-02-15_19h52.05.256,orientation adjustment blockN,2021.2.3,Linux x86_64,60.0060006,,,,,,,
,,,,,,,,,,,,,,,,,-30,-62,20,75,-66,4,4,0.196507223,-0.318179333,1,0,0,0.2814,submitButton,12.83524904,-0.21870054,-0.394299556,0,0,0,1,12,72,46,1,62,68929,N,180,2022-02-15_19h52.05.256,orientation adjustment blockN,2021.2.3,Linux x86_64,60.0060006,,,,,,,
,,,,,,,,,,,,,,,,,-52.77777778,75,20,75,64.22222222,10.77777778,10.77777778,-0.143778189,-0.407038328,1,0,0,1.3336,submitButton,12.80037665,-0.143778189,-0.407038328,0,0,0,1,13,73,59,1,75,68929,N,180,2022-02-15_19h52.05.256,orientation adjustment blockN,2021.2.3,Linux x86_64,60.0060006,,,,,,,
,,,,,,,,,,,,,,,,,31.66666667,57,20,75,65.66666667,8.666666667,8.666666667,0.375831227,-0.279004935,1,0,0,0.5511,submitButton,12.73148148,0.287444295,-0.40334344,1,0,0,1,14,74,41,1,57,68929,N,180,2022-02-15_19h52.05.256,orientation adjustment blockN,2021.2.3,Linux x86_64,60.0060006,continueButton,,,,,,
,,,,,,,,,,,,,,,,,21.11111111,40,20,75,41.11111111,1.111111111,1.111111111,-0.323569,-0.41016881,1,0,0,1.0331,submitButton,12.54098361,0.267021253,-0.328301562,0,0,0,1,15,75,24,1,40,68929,N,180,2022-02-15_19h52.05.256,orientation adjustment blockN,2021.2.3,Linux x86_64,60.0060006,,,,,,,
,,,,,,,,,,,,,,,,,42.77777778,-55,20,75,-47.22222222,7.777777778,7.777777778,0.34395912,-0.30443382,1,0,0,0.2833,submitButton,12.46415771,0.373340993,-0.314574586,0,0,0,1,16,76,39,1,55,68929,N,180,2022-02-15_19h52.05.256,orientation adjustment blockN,2021.2.3,Linux x86_64,60.0060006,,,,,,,
,,,,,,,,,,,,,,,,,-39.44444444,-21,20,75,-35.44444444,14.44444444,14.44444444,0.14154269,-0.307763571,1,0,0,0.034,submitButton,12.49559083,-0.227784945,-0.410284494,0,0,0,1,17,77,5,1,21,68929,N,180,2022-02-15_19h52.05.256,orientation adjustment blockN,2021.2.3,Linux x86_64,60.0060006,,,,,,,
,,,,,,,,,,,,,,,,,39.44444444,-56,20,75,-40.55555556,15.44444444,15.44444444,0.368695539,-0.282917458,1,0,0,0.1506,submitButton,12.54166667,-0.137634323,-0.399173439,0,0,0,1,18,78,40,1,56,68929,N,180,2022-02-15_19h52.05.256,orientation adjustment blockN,2021.2.3,Linux x86_64,60.0060006,,,,,,,
,,,,,,,,,,,,,,,,,-40,49,20,75,43,6,6,0.171891518,-0.28126917,1,0,0,0.1334,submitButton,12.44102564,-0.19018435,-0.395975706,0,0,0,1,19,79,33,1,49,68929,N,180,2022-02-15_19h52.05.256,orientation adjustment blockN,2021.2.3,Linux x86_64,60.0060006,,,,,,,
,,,,,,,,,,,,,,,,,-34.44444444,-63,20,75,-65.44444444,2.444444444,2.444444444,-0.204343319,-0.402589826,1,0,0,1.2331,submitButton,12.28956229,-0.204343319,-0.402589826,0,0,0,1,20,80,47,1,63,68929,N,180,2022-02-15_19h52.05.256,orientation adjustment blockN,2021.2.3,Linux x86_64,60.0060006,,,,,,,
,,,,,,,,,,,,,,,,,63.33333333,-25,20,75,121.3333333,33.66666667,33.66666667,-0.181458978,-0.422596359,1,0,0,2.4168,submitButton,12.60862355,-0.181458978,-0.422596359,0,0,0,1,21,81,9,1,25,68929,N,180,2022-02-15_19h52.05.256,orientation adjustment blockN,2021.2.3,Linux x86_64,60.0060006,,,,,,,
,,,,,,,,,,,,,,,,,-28.33333333,-67,20,75,-56.33333333,10.66666667,10.66666667,-0.175002532,-0.411302312,1,0,0,1.3164,submitButton,12.58006536,-0.175002532,-0.411302312,0,0,0,1,22,82,51,1,67,68929,N,180,2022-02-15_19h52.05.256,orientation adjustment blockN,2021.2.3,Linux x86_64,60.0060006,,,,,,,
,,,,,,,,,,,,,,,,,56.11111111,-47,20,75,32.11111111,79.11111111,79.11111111,0.243132658,-0.305301876,1,0,0,0.1499,submitButton,13.54428341,-0.153059094,-0.387274974,0,0,0,1,23,83,31,1,47,68929,N,180,2022-02-15_19h52.05.256,orientation adjustment blockN,2021.2.3,Linux x86_64,60.0060006,,,,,,,
,,,,,,,,,,,,,,,,,-26.11111111,48,20,75,103.8888889,55.88888889,55.88888889,0.187398065,-0.305153696,1,0,0,0.182,submitButton,14.14920635,-0.133537055,-0.401835081,0,0,0,1,24,84,32,1,48,68929,N,180,2022-02-15_19h52.05.256,orientation adjustment blockN,2021.2.3,Linux x86_64,60.0060006,,,,,,,
,,,,,,,,,,,,,,,,,55,37,20,75,56,19,19,0.182537632,-0.303381416,1,0,0,0.0833,submitButton,14.21752739,-0.159934987,-0.393173175,0,0,0,1,25,85,21,1,37,68929,N,180,2022-02-15_19h52.05.256,orientation adjustment blockN,2021.2.3,Linux x86_64,60.0060006,,,,,,,
,,,,,,,,,,,,,,,,,21.11111111,-66,20,75,39.11111111,74.88888889,74.88888889,0.218061789,-0.298990445,1,0,0,0.2982,submitButton,15.06018519,-0.254210343,-0.408533124,0,0,0,1,26,86,50,1,66,68929,N,180,2022-02-15_19h52.05.256,orientation adjustment blockN,2021.2.3,Linux x86_64,60.0060006,,,,,,,
,,,,,,,,,,,,,,,,,-30,39,20,75,43,4,4,-0.136807127,-0.394826267,1,0,0,1.3158,submitButton,14.9086758,-0.136807127,-0.394826267,0,0,0,1,27,87,23,1,39,68929,N,180,2022-02-15_19h52.05.256,orientation adjustment blockN,2021.2.3,Linux x86_64,60.0060006,,,,,,,
,,,,,,,,,,,,,,,,,-47.22222222,-33,20,75,-22.22222222,10.77777778,10.77777778,-0.284270723,-0.40459144,1,0,0,2.4328,submitButton,14.85285285,0.287153926,-0.330134086,0,0,0,1,28,88,17,1,33,68929,N,180,2022-02-15_19h52.05.256,orientation adjustment blockN,2021.2.3,Linux x86_64,60.0060006,,,,,,,
,,,,,,,,,,,,,,,,,-23.33333333,-44,20,75,-51.33333333,7.333333333,7.333333333,0.213653242,-0.302023497,1,0,0,0.7654,submitButton,14.75259259,0.366841879,-0.407851678,1,0,0,1,29,89,28,1,44,68929,N,180,2022-02-15_19h52.05.256,orientation adjustment blockN,2021.2.3,Linux x86_64,60.0060006,continueButton,,,,,,
,,,,,,,,,,,,,,,,,-21.11111111,22,20,75,26.88888889,4.888888889,4.888888889,-0.116276539,-0.387041402,1,0,0,1.331,submitButton,14.62280702,-0.116276539,-0.387041402,0,0,0,1,30,90,6,1,22,68929,N,180,2022-02-15_19h52.05.256,orientation adjustment blockN,2021.2.3,Linux x86_64,60.0060006,,,,,,,
,,,,,,,,,,,,,,,,,-26.11111111,-27,20,75,3.888888889,30.88888889,30.88888889,0.169412699,-0.304784377,1,0,0,0.2162,submitButton,14.83405483,-0.157400954,-0.416169074,0,0,0,1,31,91,11,1,27,68929,N,180,2022-02-15_19h52.05.256,orientation adjustment blockN,2021.2.3,Linux x86_64,60.0060006,,,,,,,
,,,,,,,,,,,,,,,,,-51.11111111,-23,20,75,-36.11111111,13.11111111,13.11111111,0.149625667,-0.310659293,1,0,0,1.0673,submitButton,14.81196581,-0.159034096,-0.393161363,0,0,0,1,32,92,7,1,23,68929,N,180,2022-02-15_19h52.05.256,orientation adjustment blockN,2021.2.3,Linux x86_64,60.0060006,,,,,,,
,,,,,,,,,,,,,,,,,-25,32,20,75,21,11,11,0.239867955,-0.298359296,1,0,0,0.0986,submitButton,14.76371308,-0.141882087,-0.403004752,0,0,0,1,33,93,16,1,32,68929,N,180,2022-02-15_19h52.05.256,orientation adjustment blockN,2021.2.3,Linux x86_64,60.0060006,,,,,,,
,,,,,,,,,,,,,,,,,71.66666667,74,20,75,82.66666667,8.666666667,8.666666667,0.424665004,-0.287909852,1,0,0,1.9317,submitButton,14.6875,-0.158234705,-0.407832915,0,0,0,1,34,94,58,1,74,68929,N,180,2022-02-15_19h52.05.256,orientation adjustment blockN,2021.2.3,Linux x86_64,60.0060006,,,,,,,
,,,,,,,,,,,,,,,,,43.88888889,17,20,75,192.8888889,4.111111111,4.111111111,0.226328662,-0.300286708,1,0,0,0.6491,submitButton,14.5569273,-0.140057588,-0.418071054,0,0,0,1,35,95,1,1,17,68929,N,180,2022-02-15_19h52.05.256,orientation adjustment blockN,2021.2.3,Linux x86_64,60.0060006,,,,,,,
,,,,,,,,,,,,,,,,,60,51,20,75,204,27,27,-0.140174063,-0.3912322,1,0,0,2.356,submitButton,14.70867209,-0.140174063,-0.3912322,0,0,0,1,36,96,35,1,51,68929,N,180,2022-02-15_19h52.05.256,orientation adjustment blockN,2021.2.3,Linux x86_64,60.0060006,,,,,,,
,,,,,,,,,,,,,,,,,57.77777778,-73,20,75,-71.22222222,1.777777778,1.777777778,0.42978122,-0.314346269,1,0,0,0.2977,submitButton,14.55287818,-0.199050045,-0.39530494,0,0,0,1,37,97,57,1,73,68929,N,180,2022-02-15_19h52.05.256,orientation adjustment blockN,2021.2.3,Linux x86_64,60.0060006,,,,,,,
,,,,,,,,,,,,,,,,,32.77777778,-70,20,75,-72.22222222,2.222222222,2.222222222,0.40256813,-0.287258075,1,0,0,0.1159,submitButton,14.40608466,-0.130276591,-0.396382324,0,0,0,1,38,98,54,1,70,68929,N,180,2022-02-15_19h52.05.256,orientation adjustment blockN,2021.2.3,Linux x86_64,60.0060006,,,,,,,
,,,,,,,,,,,,,,,,,59.44444444,-35,20,75,177.4444444,32.44444444,32.44444444,0.143098183,-0.309696294,1,0,0,0.3494,submitButton,14.61830065,-0.160133068,-0.403342027,0,0,0,1,39,99,19,1,35,68929,N,180,2022-02-15_19h52.05.256,orientation adjustment blockN,2021.2.3,Linux x86_64,60.0060006,,,,,,,
,,,,,,,,,,,,,,,,,-48.33333333,-69,20,75,-117.3333333,48.33333333,48.33333333,-0.134914754,-0.401598287,1,0,0,0.8998,submitButton,15.01033592,-0.134914754,-0.401598287,0,0,0,1,40,100,53,1,69,68929,N,180,2022-02-15_19h52.05.256,orientation adjustment blockN,2021.2.3,Linux x86_64,60.0060006,,,,,,,
,,,,,,,,,,,,,,,,,-55.55555556,42,20,75,46.44444444,4.444444444,4.444444444,0.233570144,-0.300296089,1,0,0,0.217,submitButton,14.88888889,-0.160076328,-0.406412435,0,0,0,1,41,101,26,1,42,68929,N,180,2022-02-15_19h52.05.256,orientation adjustment blockN,2021.2.3,Linux x86_64,60.0060006,,,,,,,
,,,,,,,,,,,,,,,,,-60,-59,20,75,-119,60,60,-0.167021055,-0.385052843,1,0,0,0.6668,submitButton,15.40151515,-0.167021055,-0.385052843,0,0,0,1,42,102,43,1,59,68929,N,180,2022-02-15_19h52.05.256,orientation adjustment blockN,2021.2.3,Linux x86_64,60.0060006,,,,,,,
,,,,,,,,,,,,,,,,,43.88888889,36,20,75,43.88888889,7.888888889,7.888888889,0.409835722,-0.303365762,1,0,0,1.0832,submitButton,15.31710362,-0.197082001,-0.438200901,0,0,0,1,43,103,20,1,36,68929,N,180,2022-02-15_19h52.05.256,orientation adjustment blockN,2021.2.3,Linux x86_64,60.0060006,,,,,,,
,,,,,,,,,,,,,,,,,58.88888889,-65,20,75,-105.1111111,40.11111111,40.11111111,0.401888944,-0.299087819,1,0,0,1.3651,submitButton,15.59259259,0.388108562,-0.396799398,1,0,0,1,44,104,49,1,65,68929,N,180,2022-02-15_19h52.05.256,orientation adjustment blockN,2021.2.3,Linux x86_64,60.0060006,continueButton,,,,,,
,,,,,,,,,,,,,,,,,73.88888889,20,20,75,26.88888889,6.888888889,6.888888889,0.374657996,-0.293881407,1,0,0,0.4659,submitButton,15.4969475,-0.240779782,-0.407950464,0,0,0,1,45,105,4,1,20,68929,N,180,2022-02-15_19h52.05.256,orientation adjustment blockN,2021.2.3,Linux x86_64,60.0060006,,,,,,,
,,,,,,,,,,,,,,,,,67.77777778,-61,20,75,-44.22222222,16.77777778,16.77777778,0.426707196,-0.307850716,1,0,0,0.4016,submitButton,15.51086957,-0.09977331,-0.409725401,0,0,0,1,46,106,45,1,61,68929,N,180,2022-02-15_19h52.05.256,orientation adjustment blockN,2021.2.3,Linux x86_64,60.0060006,,,,,,,
,,,,,,,,,,,,,,,,,-44.44444444,45,20,75,46.55555556,1.555555556,1.555555556,0.219531267,-0.298687926,1,0,0,0.0867,submitButton,15.36081243,-0.149720414,-0.423845997,0,0,0,1,47,107,29,1,45,68929,N,180,2022-02-15_19h52.05.256,orientation adjustment blockN,2021.2.3,Linux x86_64,60.0060006,,,,,,,
,,,,,,,,,,,,,,,,,33.33333333,-43,20,75,-81.66666667,38.66666667,38.66666667,0.419237962,-0.287708549,1,0,0,0.3143,submitButton,15.60874704,-0.151493824,-0.399755986,0,0,0,1,48,108,27,1,43,68929,N,180,2022-02-15_19h52.05.256,orientation adjustment blockN,2021.2.3,Linux x86_64,60.0060006,,,,,,,
,,,,,,,,,,,,,,,,,-63.33333333,72,20,75,69.66666667,2.333333333,2.333333333,0.225366228,-0.300768772,1,0,0,0.4496,submitButton,15.46900585,-0.125134266,-0.404507799,0,0,0,1,49,109,56,1,72,68929,N,180,2022-02-15_19h52.05.256,orientation adjustment blockN,2021.2.3,Linux x86_64,60.0060006,,,,,,,
,,,,,,,,,,,,,,,,,-43.33333333,68,20,75,68.66666667,0.666666667,0.666666667,-0.115895352,-0.401374887,1,0,0,1.5184,submitButton,15.31481481,-0.115895352,-0.401374887,0,0,0,1,50,110,52,1,68,68929,N,180,2022-02-15_19h52.05.256,orientation adjustment blockN,2021.2.3,Linux x86_64,60.0060006,,,,,,,
,,,,,,,,,,,,,,,,,-63.88888889,-30,20,75,-209.8888889,0.111111111,0.111111111,-0.116901584,-0.385619226,1,0,0,3.0335,submitButton,15.1580756,-0.116901584,-0.385619226,0,0,0,1,51,111,14,1,30,68929,N,180,2022-02-15_19h52.05.256,orientation adjustment blockN,2021.2.3,Linux x86_64,60.0060006,,,,,,,
,,,,,,,,,,,,,,,,,48.33333333,-26,20,75,-28.66666667,2.666666667,2.666666667,0.42719412,-0.314834663,1,0,0,0.0167,submitButton,15.03061224,-0.138364654,-0.397880228,0,0,0,1,52,112,10,1,26,68929,N,180,2022-02-15_19h52.05.256,orientation adjustment blockN,2021.2.3,Linux x86_64,60.0060006,,,,,,,
,,,,,,,,,,,,,,,,,-38.88888889,52,20,75,57.11111111,5.111111111,5.111111111,-0.19160093,-0.406770282,1,0,0,1.1836,submitButton,14.93041526,-0.19160093,-0.406770282,0,0,0,1,53,113,36,1,52,68929,N,180,2022-02-15_19h52.05.256,orientation adjustment blockN,2021.2.3,Linux x86_64,60.0060006,,,,,,,
,,,,,,,,,,,,,,,,,-36.66666667,-53,20,75,-65.66666667,12.66666667,12.66666667,0.236772681,-0.301473785,1,0,0,0.9986,submitButton,14.90777778,-0.162982845,-0.392922252,0,0,0,1,54,114,37,1,53,68929,N,180,2022-02-15_19h52.05.256,orientation adjustment blockN,2021.2.3,Linux x86_64,60.0060006,,,,,,,
,,,,,,,,,,,,,,,,,23.88888889,-50,20,75,-47.11111111,2.888888889,2.888888889,0.356179263,-0.301439029,1,0,0,0.134,submitButton,14.78877888,-0.2392465,-0.4009629,0,0,0,1,55,115,34,1,50,68929,N,180,2022-02-15_19h52.05.256,orientation adjustment blockN,2021.2.3,Linux x86_64,60.0060006,,,,,,,
,,,,,,,,,,,,,,,,,-23.88888889,-18,20,75,-16.88888889,1.111111111,1.111111111,-0.21442531,-0.394267456,1,0,0,2.3208,submitButton,14.6546841,-0.21442531,-0.394267456,0,0,0,1,56,116,2,1,18,68929,N,180,2022-02-15_19h52.05.256,orientation adjustment blockN,2021.2.3,Linux x86_64,60.0060006,,,,,,,
,,,,,,,,,,,,,,,,,33.88888889,60,20,75,70.88888889,10.88888889,10.88888889,0.423192927,-0.312614114,1,0,0,1.0822,submitButton,14.61812298,-0.178954841,-0.405676509,0,0,0,1,57,117,44,1,60,68929,N,180,2022-02-15_19h52.05.256,orientation adjustment blockN,2021.2.3,Linux x86_64,60.0060006,,,,,,,
,,,,,,,,,,,,,,,,,67.22222222,24,20,75,202.2222222,1.777777778,1.777777778,-0.147188868,-0.394270282,1,0,0,2.8988,submitButton,14.49465812,-0.147188868,-0.394270282,0,0,0,1,58,118,8,1,24,68929,N,180,2022-02-15_19h52.05.256,orientation adjustment blockN,2021.2.3,Linux x86_64,60.0060006,,,,,,,
,,,,,,,,,,,,,,,,,-58.88888889,-16,20,75,-51.88888889,35.88888889,35.88888889,0.209478324,-0.309506125,1,0,0,0.2319,submitButton,14.6984127,0.358508545,-0.398039033,1,0,0,1,59,119,0,1,16,68929,N,180,2022-02-15_19h52.05.256,orientation adjustment blockN,2021.2.3,Linux x86_64,60.0060006,continueButton,,,,,,
,,,,,,,,,,,,,,,,,33.33333333,47,20,75,43.33333333,3.666666667,3.666666667,0.385491849,-0.297601161,1,0,0,0.1669,submitButton,14.59433962,-0.182470014,-0.413493361,0,0,0,2,0,120,31,1,47,68929,N,180,2022-02-15_19h52.05.256,orientation adjustment blockN,2021.2.3,Linux x86_64,60.0060006,,,,,,,
,,,,,,,,,,,,,,,,,-60,-18,20,75,-47,29,29,0.235469807,-0.313453517,1,0,0,0.3664,submitButton,14.72897196,0.280582474,-0.265690568,0,0,0,2,1,121,2,1,18,68929,N,180,2022-02-15_19h52.05.256,orientation adjustment blockN,2021.2.3,Linux x86_64,60.0060006,,,,,,,
,,,,,,,,,,,,,,,,,-38.88888889,58,20,75,53.11111111,4.888888889,4.888888889,-0.293973617,-0.414181193,1,0,0,1.617,submitButton,14.63786008,-0.293973617,-0.414181193,0,0,0,2,2,122,42,1,58,68929,N,180,2022-02-15_19h52.05.256,orientation adjustment blockN,2021.2.3,Linux x86_64,60.0060006,,,,,,,
,,,,,,,,,,,,,,,,,-55,22,20,75,43,21,21,-0.17589958,-0.409549246,1,0,0,3.5331,submitButton,14.69622834,-0.17589958,-0.409549246,0,0,0,2,3,123,6,1,22,68929,N,180,2022-02-15_19h52.05.256,orientation adjustment blockN,2021.2.3,Linux x86_64,60.0060006,,,,,,,
,,,,,,,,,,,,,,,,,67.77777778,28,20,75,95.77777778,67.77777778,67.77777778,-0.13322425,-0.418453767,1,0,0,0.8677,submitButton,15.17878788,-0.13322425,-0.418453767,0,0,0,2,4,124,12,1,28,68929,N,180,2022-02-15_19h52.05.256,orientation adjustment blockN,2021.2.3,Linux x86_64,60.0060006,,,,,,,
,,,,,,,,,,,,,,,,,34.44444444,45,20,75,197.4444444,27.55555556,27.55555556,-0.212711465,-0.420813793,1,0,0,2.1999,submitButton,15.29029029,-0.212711465,-0.420813793,0,0,0,2,5,125,29,1,45,68929,N,180,2022-02-15_19h52.05.256,orientation adjustment blockN,2021.2.3,Linux x86_64,60.0060006,,,,,,,
,,,,,,,,,,,,,,,,,73.88888889,-51,20,75,-39.11111111,11.88888889,11.88888889,0.362473231,-0.299846859,1,0,0,0.5168,submitButton,15.25992063,-0.151851558,-0.404469482,0,0,0,2,6,126,35,1,51,68929,N,180,2022-02-15_19h52.05.256,orientation adjustment blockN,2021.2.3,Linux x86_64,60.0060006,,,,,,,
,,,,,,,,,,,,,,,,,-65.55555556,26,20,75,27.44444444,1.444444444,1.444444444,0.198106118,-0.294315209,1,0,0,0.0341,submitButton,15.13765978,-0.14144789,-0.418333788,0,0,0,2,7,127,10,1,26,68929,N,180,2022-02-15_19h52.05.256,orientation adjustment blockN,2021.2.3,Linux x86_64,60.0060006,,,,,,,
,,,,,,,,,,,,,,,,,-36.11111111,-74,20,75,-68.11111111,5.888888889,5.888888889,-0.141494231,-0.409109059,1,0,0,1.5319,submitButton,15.05653021,-0.141494231,-0.409109059,0,0,0,2,8,128,58,1,74,68929,N,180,2022-02-15_19h52.05.256,orientation adjustment blockN,2021.2.3,Linux x86_64,60.0060006,,,,,,,
,,,,,,,,,,,,,,,,,35,-19,20,75,-38,19,19,0.389538254,-0.265475758,1,0,0,0.615,submitButton,15.09082126,-0.186528005,-0.415635582,0,0,0,2,9,129,3,1,19,68929,N,180,2022-02-15_19h52.05.256,orientation adjustment blockN,2021.2.3,Linux x86_64,60.0060006,,,,,,,
,,,,,,,,,,,,,,,,,-29.44444444,-68,20,75,-71.44444444,3.444444444,3.444444444,-0.188839711,-0.397597658,1,0,0,1.132,submitButton,14.99042146,-0.188839711,-0.397597658,0,0,0,2,10,130,52,1,68,68929,N,180,2022-02-15_19h52.05.256,orientation adjustment blockN,2021.2.3,Linux x86_64,60.0060006,,,,,,,
,,,,,,,,,,,,,,,,,-33.33333333,-46,20,75,-114.3333333,68.33333333,68.33333333,0.373626954,-0.303443921,1,0,0,0.2656,submitButton,15.44634378,-0.110358333,-0.397389404,0,0,0,2,11,131,30,1,46,68929,N,180,2022-02-15_19h52.05.256,orientation adjustment blockN,2021.2.3,Linux x86_64,60.0060006,,,,,,,
,,,,,,,,,,,,,,,,,45.55555556,37,20,75,233.5555556,16.55555556,16.55555556,-0.200536704,-0.398996211,1,0,0,3.166,submitButton,15.45574388,-0.200536704,-0.398996211,0,0,0,2,12,132,21,1,37,68929,N,180,2022-02-15_19h52.05.256,orientation adjustment blockN,2021.2.3,Linux x86_64,60.0060006,,,,,,,
,,,,,,,,,,,,,,,,,45,27,20,75,56,29,29,0.380981351,-0.304937869,1,0,0,0.1651,submitButton,15.56956116,-0.110416881,-0.405302217,0,0,0,2,13,133,11,1,27,68929,N,180,2022-02-15_19h52.05.256,orientation adjustment blockN,2021.2.3,Linux x86_64,60.0060006,,,,,,,
,,,,,,,,,,,,,,,,,26.66666667,50,20,75,76.66666667,26.66666667,26.66666667,-0.110416881,-0.405302217,1,0,0,0.8834,submitButton,15.66203704,0.365144536,-0.403369606,1,0,0,2,14,134,34,1,50,68929,N,180,2022-02-15_19h52.05.256,orientation adjustment blockN,2021.2.3,Linux x86_64,60.0060006,continueButton,,,,,,
,,,,,,,,,,,,,,,,,-41.11111111,53,20,75,62.88888889,9.888888889,9.888888889,0.236271967,-0.290281746,1,0,0,0.6687,submitButton,15.61432507,0.266350996,-0.192748243,0,0,0,2,15,135,37,1,53,68929,N,180,2022-02-15_19h52.05.256,orientation adjustment blockN,2021.2.3,Linux x86_64,60.0060006,,,,,,,
,,,,,,,,,,,,,,,,,56.11111111,-24,20,75,-33.88888889,9.888888889,9.888888889,-0.108172144,-0.399942143,1,0,0,2.0495,submitButton,15.56739526,-0.108172144,-0.399942143,0,0,0,2,16,136,8,1,24,68929,N,180,2022-02-15_19h52.05.256,orientation adjustment blockN,2021.2.3,Linux x86_64,60.0060006,,,,,,,
,,,,,,,,,,,,,,,,,60,73,20,75,244,9,9,-0.149474974,-0.388557504,1,0,0,2.7992,submitButton,15.51400181,0.120782486,-0.328701964,0,0,0,2,17,137,57,1,73,68929,N,180,2022-02-15_19h52.05.256,orientation adjustment blockN,2021.2.3,Linux x86_64,60.0060006,,,,,,,
,,,,,,,,,,,,,,,,,-70.55555556,-48,20,75,-118.5555556,70.55555556,70.55555556,-0.1609545,-0.410724795,1,0,0,0.5506,submitButton,15.9578853,-0.1609545,-0.410724795,0,0,0,2,18,138,32,1,48,68929,N,180,2022-02-15_19h52.05.256,orientation adjustment blockN,2021.2.3,Linux x86_64,60.0060006,,,,,,,
,,,,,,,,,,,,,,,,,67.77777778,71,20,75,60.77777778,10.22222222,10.22222222,0.378779112,-0.290571945,1,0,0,0.1821,submitButton,15.912,-0.328944219,-0.382283655,0,0,0,2,19,139,55,1,71,68929,N,180,2022-02-15_19h52.05.256,orientation adjustment blockN,2021.2.3,Linux x86_64,60.0060006,,,,,,,
,,,,,,,,,,,,,,,,,35.55555556,54,20,75,56.55555556,2.555555556,2.555555556,-0.1358903,-0.397002566,1,0,0,1.6843,submitButton,15.80599647,-0.1358903,-0.397002566,0,0,0,2,20,140,38,1,54,68929,N,180,2022-02-15_19h52.05.256,orientation adjustment blockN,2021.2.3,Linux x86_64,60.0060006,,,,,,,
,,,,,,,,,,,,,,,,,58.88888889,-49,20,75,130.8888889,0.111111111,0.111111111,0.248544328,-0.319806373,1,0,0,0.0657,submitButton,15.6824147,-0.298202958,-0.414927122,0,0,0,2,21,141,33,1,49,68929,N,180,2022-02-15_19h52.05.256,orientation adjustment blockN,2021.2.3,Linux x86_64,60.0060006,,,,,,,
,,,,,,,,,,,,,,,,,-38.33333333,33,20,75,42.66666667,9.666666667,9.666666667,0.233076663,-0.304364252,1,0,0,1.0161,submitButton,15.63541667,-0.318946886,-0.417280988,0,0,0,2,22,142,17,1,33,68929,N,180,2022-02-15_19h52.05.256,orientation adjustment blockN,2021.2.3,Linux x86_64,60.0060006,,,,,,,
,,,,,,,,,,,,,,,,,60,35,20,75,176,39,39,0.227445944,-0.285224361,1,0,0,0.0997,submitButton,15.81653747,-0.248326892,-0.412257173,0,0,0,2,23,143,19,1,35,68929,N,180,2022-02-15_19h52.05.256,orientation adjustment blockN,2021.2.3,Linux x86_64,60.0060006,,,,,,,
,,,,,,,,,,,,,,,,,23.33333333,-41,20,75,-17.66666667,23.33333333,23.33333333,-0.220623374,-0.412493345,1,0,0,0.532,submitButton,15.87435897,-0.220623374,-0.412493345,0,0,0,2,24,144,25,1,41,68929,N,180,2022-02-15_19h52.05.256,orientation adjustment blockN,2021.2.3,Linux x86_64,60.0060006,,,,,,,
,,,,,,,,,,,,,,,,,60.55555556,-59,20,75,-69.44444444,10.44444444,10.44444444,0.41232347,-0.298794511,1,0,0,0.2656,submitButton,15.83290925,-0.243722751,-0.405942125,0,0,0,2,25,145,43,1,59,68929,N,180,2022-02-15_19h52.05.256,orientation adjustment blockN,2021.2.3,Linux x86_64,60.0060006,,,,,,,
,,,,,,,,,,,,,,,,,-67.77777778,29,20,75,7.222222222,21.77777778,21.77777778,-0.162905929,-0.395799382,1,0,0,1.6028,submitButton,15.87794613,-0.162905929,-0.395799382,0,0,0,2,26,146,13,1,29,68929,N,180,2022-02-15_19h52.05.256,orientation adjustment blockN,2021.2.3,Linux x86_64,60.0060006,,,,,,,
,,,,,,,,,,,,,,,,,-25,21,20,75,18,3,3,-0.166215165,-0.422438685,1,0,0,1.1335,submitButton,15.78111947,-0.166215165,-0.422438685,0,0,0,2,27,147,5,1,21,68929,N,180,2022-02-15_19h52.05.256,orientation adjustment blockN,2021.2.3,Linux x86_64,60.0060006,,,,,,,
,,,,,,,,,,,,,,,,,51.66666667,-66,20,75,-58.33333333,7.666666667,7.666666667,0.414473263,-0.278953564,1,0,0,0.2662,submitButton,15.72056385,-0.135213714,-0.394813381,0,0,0,2,28,148,50,1,66,68929,N,180,2022-02-15_19h52.05.256,orientation adjustment blockN,2021.2.3,Linux x86_64,60.0060006,,,,,,,
,,,,,,,,,,,,,,,,,58.88888889,72,20,75,77.88888889,5.888888889,5.888888889,-0.180058504,-0.395523989,1,0,0,1.8189,submitButton,15.64773663,-0.180058504,-0.395523989,0,0,0,2,29,149,56,1,72,68929,N,180,2022-02-15_19h52.05.256,orientation adjustment blockN,2021.2.3,Linux x86_64,60.0060006,,,,,,,
,,,,,,,,,,,,,,,,,-63.33333333,-63,20,75,-96.33333333,33.33333333,33.33333333,0.222734482,-0.289554749,1,0,0,0.1846,submitButton,15.77777778,-0.144787304,-0.388357331,0,0,0,2,30,150,47,1,63,68929,N,180,2022-02-15_19h52.05.256,orientation adjustment blockN,2021.2.3,Linux x86_64,60.0060006,,,,,,,
,,,,,,,,,,,,,,,,,-24.44444444,-32,20,75,-53.44444444,21.44444444,21.44444444,-0.184392904,-0.374521,1,0,0,0.4831,submitButton,15.81914031,-0.272129078,-0.381538461,0,0,0,2,31,151,16,1,32,68929,N,180,2022-02-15_19h52.05.256,orientation adjustment blockN,2021.2.3,Linux x86_64,60.0060006,,,,,,,
,,,,,,,,,,,,,,,,,23.33333333,43,20,75,66.33333333,23.33333333,23.33333333,-0.132802373,-0.392073468,1,0,0,0.4489,submitButton,15.87359098,-0.132802373,-0.392073468,0,0,0,2,32,152,27,1,43,68929,N,180,2022-02-15_19h52.05.256,orientation adjustment blockN,2021.2.3,Linux x86_64,60.0060006,,,,,,,
,,,,,,,,,,,,,,,,,-32.22222222,55,20,75,40.77777778,14.22222222,14.22222222,0.169231741,-0.295085156,1,0,0,1.7704,submitButton,15.86171063,-0.227610599,-0.409773664,0,0,0,2,33,153,39,1,55,68929,N,180,2022-02-15_19h52.05.256,orientation adjustment blockN,2021.2.3,Linux x86_64,60.0060006,,,,,,,
,,,,,,,,,,,,,,,,,-33.88888889,-23,20,75,-56.88888889,33.88888889,33.88888889,-0.117462147,-0.393775332,1,0,0,1.1826,submitButton,15.99047619,-0.117462147,-0.393775332,0,0,0,2,34,154,7,1,23,68929,N,180,2022-02-15_19h52.05.256,orientation adjustment blockN,2021.2.3,Linux x86_64,60.0060006,,,,,,,
,,,,,,,,,,,,,,,,,-73.88888889,42,20,75,-31.88888889,73.88888889,73.88888889,-0.123801665,-0.392440753,1,0,0,0.3658,submitButton,16.40110323,-0.123801665,-0.392440753,0,0,0,2,35,155,26,1,42,68929,N,180,2022-02-15_19h52.05.256,orientation adjustment blockN,2021.2.3,Linux x86_64,60.0060006,,,,,,,
,,,,,,,,,,,,,,,,,-59.44444444,-61,20,75,-64.44444444,3.444444444,3.444444444,0.220877883,-0.311339835,1,0,0,0.8146,submitButton,16.30985915,-0.131404781,-0.404504578,0,0,0,2,36,156,45,1,61,68929,N,180,2022-02-15_19h52.05.256,orientation adjustment blockN,2021.2.3,Linux x86_64,60.0060006,,,,,,,
,,,,,,,,,,,,,,,,,-22.77777778,56,20,75,33.22222222,22.77777778,22.77777778,-0.178657013,-0.395364563,1,0,0,0.4316,submitButton,16.35508936,-0.178657013,-0.395364563,0,0,0,2,37,157,40,1,56,68929,N,180,2022-02-15_19h52.05.256,orientation adjustment blockN,2021.2.3,Linux x86_64,60.0060006,,,,,,,
,,,,,,,,,,,,,,,,,27.77777778,17,20,75,16.77777778,0.222222222,0.222222222,-0.130987877,-0.413099514,1,0,0,1.0987,submitButton,16.24305556,-0.130987877,-0.413099514,0,0,0,2,38,158,1,1,17,68929,N,180,2022-02-15_19h52.05.256,orientation adjustment blockN,2021.2.3,Linux x86_64,60.0060006,,,,,,,
,,,,,,,,,,,,,,,,,67.77777778,62,20,75,129.7777778,67.77777778,67.77777778,-0.167094919,-0.38746277,1,0,0,0.5003,submitButton,16.59846743,-0.167094919,-0.38746277,0,0,0,2,39,159,46,1,62,68929,N,180,2022-02-15_19h52.05.256,orientation adjustment blockN,2021.2.3,Linux x86_64,60.0060006,,,,,,,
,,,,,,,,,,,,,,,,,69.44444444,64,20,75,133.4444444,69.44444444,69.44444444,-0.135884253,-0.390778675,1,0,0,0.6801,submitButton,16.96042618,-0.135884253,-0.390778675,0,0,0,2,40,160,48,1,64,68929,N,180,2022-02-15_19h52.05.256,orientation adjustment blockN,2021.2.3,Linux x86_64,60.0060006,,,,,,,
,,,,,,,,,,,,,,,,,24.44444444,-38,20,75,-13.55555556,24.44444444,24.44444444,-0.135884253,-0.390778675,1,0,0,0.4484,submitButton,17.01133787,-0.135884253,-0.390778675,0,0,0,2,41,161,22,1,38,68929,N,180,2022-02-15_19h52.05.256,orientation adjustment blockN,2021.2.3,Linux x86_64,60.0060006,,,,,,,
,,,,,,,,,,,,,,,,,31.11111111,16,20,75,24.11111111,8.111111111,8.111111111,0.415644912,-0.296606231,1,0,0,0.9337,submitButton,16.9512012,-0.17277814,-0.391438759,0,0,0,2,42,162,0,1,16,68929,N,180,2022-02-15_19h52.05.256,orientation adjustment blockN,2021.2.3,Linux x86_64,60.0060006,,,,,,,
,,,,,,,,,,,,,,,,,51.11111111,69,20,75,120.1111111,51.11111111,51.11111111,-0.17277814,-0.391438759,1,0,0,0.8831,submitButton,17.18046234,-0.17277814,-0.391438759,0,0,0,2,43,163,53,1,69,68929,N,180,2022-02-15_19h52.05.256,orientation adjustment blockN,2021.2.3,Linux x86_64,60.0060006,,,,,,,
,,,,,,,,,,,,,,,,,20.55555556,-36,20,75,-15.44444444,20.55555556,20.55555556,-0.17277814,-0.391438759,1,0,0,0.4486,submitButton,17.20296296,-0.17277814,-0.391438759,0,0,0,2,44,164,20,1,36,68929,N,180,2022-02-15_19h52.05.256,orientation adjustment blockN,2021.2.3,Linux x86_64,60.0060006,,,,,,,
,,,,,,,,,,,,,,,,,63.88888889,60,20,75,123.8888889,63.88888889,63.88888889,-0.17277814,-0.391438759,1,0,0,0.5668,submitButton,17.51214128,-0.17277814,-0.391438759,0,0,0,2,45,165,44,1,60,68929,N,180,2022-02-15_19h52.05.256,orientation adjustment blockN,2021.2.3,Linux x86_64,60.0060006,,,,,,,
,,,,,,,,,,,,,,,,,-57.22222222,75,20,75,68.77777778,6.222222222,6.222222222,0.186694239,-0.289800529,1,0,0,0.4156,submitButton,17.4378655,-0.148917915,-0.410134449,0,0,0,2,46,166,59,1,75,68929,N,180,2022-02-15_19h52.05.256,orientation adjustment blockN,2021.2.3,Linux x86_64,60.0060006,,,,,,,
,,,,,,,,,,,,,,,,,-23.88888889,-31,20,75,65.11111111,83.88888889,83.88888889,0.222199181,-0.308121248,1,0,0,0.0647,submitButton,17.87218591,-0.152174762,-0.3975451,0,0,0,2,47,167,15,1,31,68929,N,180,2022-02-15_19h52.05.256,orientation adjustment blockN,2021.2.3,Linux x86_64,60.0060006,,,,,,,
,,,,,,,,,,,,,,,,,30.55555556,34,20,75,64.55555556,30.55555556,30.55555556,-0.313932283,-0.424406503,1,0,0,1.0153,submitButton,17.95454545,-0.313932283,-0.424406503,0,0,0,2,48,168,18,1,34,68929,N,180,2022-02-15_19h52.05.256,orientation adjustment blockN,2021.2.3,Linux x86_64,60.0060006,,,,,,,
,,,,,,,,,,,,,,,,,25.55555556,39,20,75,36.55555556,2.444444444,2.444444444,0.368236419,-0.301252589,1,0,0,0.067,submitButton,17.85448029,-0.227117514,-0.404050996,0,0,0,2,49,169,23,1,39,68929,N,180,2022-02-15_19h52.05.256,orientation adjustment blockN,2021.2.3,Linux x86_64,60.0060006,,,,,,,
,,,,,,,,,,,,,,,,,55.55555556,-52,20,75,65.55555556,62.44444444,62.44444444,0.203674559,-0.324169821,1,0,0,0.3667,submitButton,18.14031339,-0.108259458,-0.40201197,0,0,0,2,50,170,36,1,52,68929,N,180,2022-02-15_19h52.05.256,orientation adjustment blockN,2021.2.3,Linux x86_64,60.0060006,,,,,,,
,,,,,,,,,,,,,,,,,-70,-57,20,75,-70,13,13,-0.280836365,-0.407006115,1,0,0,2.3514,submitButton,18.10757254,-0.280836365,-0.407006115,0,0,0,2,51,171,41,1,57,68929,N,180,2022-02-15_19h52.05.256,orientation adjustment blockN,2021.2.3,Linux x86_64,60.0060006,,,,,,,
,,,,,,,,,,,,,,,,,-42.77777778,20,20,75,-22.77777778,42.77777778,42.77777778,-0.110282378,-0.389427424,1,0,0,0.6671,submitButton,18.26371308,-0.110282378,-0.389427424,0,0,0,2,52,172,4,1,20,68929,N,180,2022-02-15_19h52.05.256,orientation adjustment blockN,2021.2.3,Linux x86_64,60.0060006,,,,,,,
,,,,,,,,,,,,,,,,,20.55555556,30,20,75,50.55555556,20.55555556,20.55555556,-0.162244094,-0.409656114,1,0,0,0.9175,submitButton,18.27812718,-0.162244094,-0.409656114,0,0,0,2,53,173,14,1,30,68929,N,180,2022-02-15_19h52.05.256,orientation adjustment blockN,2021.2.3,Linux x86_64,60.0060006,,,,,,,
,,,,,,,,,,,,,,,,,75,67,20,75,226,21,21,0.202526646,-0.32041079,1,0,0,0.55,submitButton,18.29513889,-0.119952494,-0.408258635,0,0,0,2,54,174,51,1,67,68929,N,180,2022-02-15_19h52.05.256,orientation adjustment blockN,2021.2.3,Linux x86_64,60.0060006,,,,,,,
,,,,,,,,,,,,,,,,,-25.55555556,44,20,75,57.44444444,13.44444444,13.44444444,0.186423876,-0.30208391,1,0,0,0.503,submitButton,18.26501035,-0.114313976,-0.405967952,0,0,0,2,55,175,28,1,44,68929,N,180,2022-02-15_19h52.05.256,orientation adjustment blockN,2021.2.3,Linux x86_64,60.0060006,,,,,,,
,,,,,,,,,,,,,,,,,74.44444444,-40,20,75,128.4444444,11.55555556,11.55555556,-0.122765424,-0.401578789,1,0,0,2.9813,submitButton,18.22359396,-0.122765424,-0.401578789,0,0,0,2,56,176,24,1,40,68929,N,180,2022-02-15_19h52.05.256,orientation adjustment blockN,2021.2.3,Linux x86_64,60.0060006,,,,,,,
,,,,,,,,,,,,,,,,,-36.66666667,-25,20,75,-61.66666667,36.66666667,36.66666667,-0.145307177,-0.402247464,1,0,0,0.6488,submitButton,18.33674165,-0.145307177,-0.402247464,0,0,0,2,57,177,9,1,25,68929,N,180,2022-02-15_19h52.05.256,orientation adjustment blockN,2021.2.3,Linux x86_64,60.0060006,,,,,,,
,,,,,,,,,,,,,,,,,51.66666667,70,20,75,254.6666667,4.666666667,4.666666667,0.177737556,-0.303422389,1,0,0,0.649,submitButton,18.25338753,-0.229608088,-0.40827039,0,0,0,2,58,178,54,1,70,68929,N,180,2022-02-15_19h52.05.256,orientation adjustment blockN,2021.2.3,Linux x86_64,60.0060006,,,,,,,
,,,,,,,,,,,,,,,,,-58.88888889,65,20,75,58.11111111,6.888888889,6.888888889,0.22085313,-0.309975304,1,0,0,0.4499,submitButton,18.18451178,-0.186305339,-0.407037932,0,0,0,2,59,179,49,1,65,68929,N,180,2022-02-15_19h52.05.256,orientation adjustment blockN,2021.2.3,Linux x86_64,60.0060006,,,,,,,
,,,,,,,,,,,,,,,,,,,,,,,,,,,,,,,,,,,,,,,,,,,68929,N,180,2022-02-15_19h52.05.256,orientation adjustment blockN,2021.2.3,Linux x86_64,60.0060006,,0.421842694,-0.400786576,1,0,0,EndButtonTxt
