consentMouse1.x,consentMouse1.y,consentMouse1.leftButton,consentMouse1.midButton,consentMouse1.rightButton,consentMouse1.clicked_name,consent_Mouse.x,consent_Mouse.y,consent_Mouse.leftButton,consent_Mouse.midButton,consent_Mouse.rightButton,consent_Mouse.clicked_name,startMouse.x,startMouse.y,startMouse.leftButton,startMouse.midButton,startMouse.rightButton,start_distance,fixedOri,minimalDistance,maxOri,this_ori,accuracy,presented_accuracy,submitMouse.x,submitMouse.y,submitMouse.leftButton,submitMouse.midButton,submitMouse.rightButton,submitMouse.time,submitMouse.clicked_name,block_accuracy,continueMouse.x,continueMouse.y,continueMouse.leftButton,continueMouse.midButton,continueMouse.rightButton,trials.thisRepN,trials.thisTrialN,trials.thisN,trials.thisIndex,trials.ran,startOri,participant,condition,nTrials,date,expName,psychopyVersion,OS,frameRate,continueMouse.clicked_name,EndButtonMouse.x,EndButtonMouse.y,EndButtonMouse.leftButton,EndButtonMouse.midButton,EndButtonMouse.rightButton,EndButtonMouse.clicked_name
0.350926104,-0.394444491,1,0,0,consent_button1,0.393518585,-0.405555659,1,0,0,consent_button,0.050000162,-0.114814903,1,0,0,41.11111111,17,20,75,58.11111111,41.11111111,41.11111111,-0.519444397,-0.387963066,1,0,0,5.2792,submitButton,41.11111111,-0.351851824,-0.358333491,0,0,0,0,0,0,1,1,17,68998,N,180,2022-02-24_16h43.38.011,orientation adjustment blockN,2021.2.3,Win32,61.65228113,,,,,,,
,,,,,,,,,,,,,,,,,-50,-65,20,75,-107,42,42,0.171296352,-0.286111209,1,0,0,2.8823,submitButton,41.55555556,-0.511111091,-0.394444491,0,0,0,0,1,1,49,1,65,68998,N,180,2022-02-24_16h43.38.011,orientation adjustment blockN,2021.2.3,Win32,61.65228113,,,,,,,
,,,,,,,,,,,,,,,,,57.22222222,75,20,75,132.2222222,57.22222222,57.22222222,-0.517592517,-0.406481585,1,0,0,3.432,submitButton,46.77777778,-0.517592517,-0.406481585,0,0,0,0,2,2,59,1,75,68998,N,180,2022-02-24_16h43.38.011,orientation adjustment blockN,2021.2.3,Win32,61.65228113,,,,,,,
,,,,,,,,,,,,,,,,,-41.66666667,-24,20,75,-65.66666667,41.66666667,41.66666667,-0.482407358,-0.39166677,1,0,0,1.2987,submitButton,41.66666667,-0.482407358,-0.39166677,0,0,0,0,3,3,8,1,24,68998,N,180,2022-02-24_16h43.38.011,orientation adjustment blockN,2021.2.3,Win32,61.65228113,,,,,,,
,,,,,,,,,,,,,,,,,-22.77777778,-59,20,75,-131.7777778,72.77777778,72.77777778,0.393518585,-0.291666764,1,0,0,6.5465,submitButton,57.22222222,-0.531481406,-0.412963067,0,0,0,0,4,4,43,1,59,68998,N,180,2022-02-24_16h43.38.011,orientation adjustment blockN,2021.2.3,Win32,61.65228113,,,,,,,
,,,,,,,,,,,,,,,,,-20.55555556,-71,20,75,-91.55555556,20.55555556,20.55555556,-0.587962919,-0.38240751,1,0,0,19.2732,submitButton,45,-0.587962919,-0.38240751,0,0,0,0,5,5,55,1,71,68998,N,180,2022-02-24_16h43.38.011,orientation adjustment blockN,2021.2.3,Win32,61.65228113,,,,,,,
,,,,,,,,,,,,,,,,,-48.33333333,-70,20,75,-118.3333333,48.33333333,48.33333333,-0.547222204,-0.426851957,1,0,0,6.3791,submitButton,48.33333333,-0.547222204,-0.426851957,0,0,0,0,6,6,54,1,70,68998,N,180,2022-02-24_16h43.38.011,orientation adjustment blockN,2021.2.3,Win32,61.65228113,,,,,,,
,,,,,,,,,,,,,,,,,-71.11111111,21,20,75,-50.11111111,71.11111111,71.11111111,-0.539814768,-0.405555659,1,0,0,1.5191,submitButton,59.72222222,-0.539814768,-0.405555659,0,0,0,0,7,7,5,1,21,68998,N,180,2022-02-24_16h43.38.011,orientation adjustment blockN,2021.2.3,Win32,61.65228113,,,,,,,
,,,,,,,,,,,,,,,,,-60.55555556,-52,20,75,-112.5555556,60.55555556,60.55555556,-0.539814768,-0.405555659,1,0,0,1.1154,submitButton,60,-0.2583333,-0.238888984,0,0,0,0,8,8,36,1,52,68998,N,180,2022-02-24_16h43.38.011,orientation adjustment blockN,2021.2.3,Win32,61.65228113,,,,,,,
,,,,,,,,,,,,,,,,,55.55555556,-72,20,75,-64.44444444,7.555555556,7.555555556,0.398148328,-0.280555653,1,0,0,6.6794,submitButton,7.555555556,-0.238888742,-0.336111211,0,0,0,0,9,9,56,1,72,68998,N,180,2022-02-24_16h43.38.011,orientation adjustment blockN,2021.2.3,Win32,61.65228113,,,,,,,
,,,,,,,,,,,,,,,,,-46.66666667,-23,20,75,-19.66666667,3.333333333,3.333333333,0.19537054,-0.288889043,1,0,0,0.7781,submitButton,5.444444444,-0.522222147,-0.42222227,0,0,0,0,10,10,7,1,23,68998,N,180,2022-02-24_16h43.38.011,orientation adjustment blockN,2021.2.3,Win32,61.65228113,,,,,,,
,,,,,,,,,,,,,,,,,-68.88888889,-39,20,75,-30.88888889,8.111111111,8.111111111,0.206481539,-0.29259269,1,0,0,0.0709,submitButton,6.333333333,-0.454629579,-0.408333381,0,0,0,0,11,11,23,1,39,68998,N,180,2022-02-24_16h43.38.011,orientation adjustment blockN,2021.2.3,Win32,61.65228113,,,,,,,
,,,,,,,,,,,,,,,,,60.55555556,-22,20,75,36.55555556,58.55555556,58.55555556,0.400000067,-0.283333374,1,0,0,0.7828,submitButton,58.55555556,-0.582407363,-0.417592753,0,0,0,0,12,12,6,1,22,68998,N,180,2022-02-24_16h43.38.011,orientation adjustment blockN,2021.2.3,Win32,61.65228113,,,,,,,
,,,,,,,,,,,,,,,,,-57.22222222,-55,20,75,-65.22222222,10.22222222,10.22222222,0.183333502,-0.276851892,1,0,0,0.8951,submitButton,34.38888889,-0.544444398,-0.39537053,0,0,0,0,13,13,39,1,55,68998,N,180,2022-02-24_16h43.38.011,orientation adjustment blockN,2021.2.3,Win32,61.65228113,,,,,,,
,,,,,,,,,,,,,,,,,-71.11111111,47,20,75,-119.1111111,13.88888889,13.88888889,0.386111178,-0.288889043,1,0,0,0.4481,submitButton,27.55555556,0.337037214,-0.389814974,1,0,0,0,14,14,31,1,47,68998,N,180,2022-02-24_16h43.38.011,orientation adjustment blockN,2021.2.3,Win32,61.65228113,continueButton,,,,,,
,,,,,,,,,,,,,,,,,48.33333333,43,20,75,45.33333333,2.333333333,2.333333333,0.399074141,-0.287037078,1,0,0,1.1984,submitButton,2.333333333,-0.523148129,-0.396296456,0,0,0,0,15,15,27,1,43,68998,N,180,2022-02-24_16h43.38.011,orientation adjustment blockN,2021.2.3,Win32,61.65228113,,,,,,,
,,,,,,,,,,,,,,,,,-54.44444444,63,20,75,-130.4444444,13.44444444,13.44444444,0.387963256,-0.288889043,1,0,0,1.9283,submitButton,7.888888889,-0.568518474,-0.40925942,0,0,0,0,16,16,47,1,63,68998,N,180,2022-02-24_16h43.38.011,orientation adjustment blockN,2021.2.3,Win32,61.65228113,,,,,,,
,,,,,,,,,,,,,,,,,52.22222222,33,20,75,118.2222222,85.22222222,85.22222222,0.207407465,-0.294444542,1,0,0,1.1282,submitButton,33.66666667,-0.537962916,-0.392592696,0,0,0,0,17,17,17,1,33,68998,N,180,2022-02-24_16h43.38.011,orientation adjustment blockN,2021.2.3,Win32,61.65228113,,,,,,,
,,,,,,,,,,,,,,,,,68.33333333,-61,20,75,68.33333333,50.66666667,50.66666667,0.213888946,-0.295370468,1,0,0,5.3803,submitButton,37.91666667,0.060185235,-0.325000043,0,0,0,0,18,18,45,1,61,68998,N,180,2022-02-24_16h43.38.011,orientation adjustment blockN,2021.2.3,Win32,61.65228113,,,,,,,
,,,,,,,,,,,,,,,,,73.88888889,54,20,75,59.88888889,5.888888889,5.888888889,-0.533333287,-0.405555659,1,0,0,2.2153,submitButton,31.51111111,0.157407462,-0.221296334,0,0,0,0,19,19,38,1,54,68998,N,180,2022-02-24_16h43.38.011,orientation adjustment blockN,2021.2.3,Win32,61.65228113,,,,,,,
,,,,,,,,,,,,,,,,,53.88888889,28,20,75,39.88888889,11.88888889,11.88888889,0.39537055,-0.294444542,1,0,0,0.0838,submitButton,28.24074074,0.39537055,-0.234259298,0,0,0,0,20,20,12,1,28,68998,N,180,2022-02-24_16h43.38.011,orientation adjustment blockN,2021.2.3,Win32,61.65228113,,,,,,,
,,,,,,,,,,,,,,,,,-65.55555556,-30,20,75,-55.55555556,25.55555556,25.55555556,0.206481539,-0.318518618,1,0,0,0.216,submitButton,27.85714286,0.350926104,-0.24444454,0,0,0,0,21,21,14,1,30,68998,N,180,2022-02-24_16h43.38.011,orientation adjustment blockN,2021.2.3,Win32,61.65228113,,,,,,,
,,,,,,,,,,,,,,,,,21.11111111,60,20,75,55.11111111,4.888888889,4.888888889,-0.512036989,-0.397222382,1,0,0,1.282,submitButton,24.98611111,0.278703878,-0.252777874,0,0,0,0,22,22,44,1,60,68998,N,180,2022-02-24_16h43.38.011,orientation adjustment blockN,2021.2.3,Win32,61.65228113,,,,,,,
,,,,,,,,,,,,,,,,,53.88888889,62,20,75,55.88888889,6.111111111,6.111111111,0.380555622,-0.296296394,1,0,0,0.0826,submitButton,22.88888889,0.235185244,-0.194444537,0,0,0,0,23,23,46,1,62,68998,N,180,2022-02-24_16h43.38.011,orientation adjustment blockN,2021.2.3,Win32,61.65228113,,,,,,,
,,,,,,,,,,,,,,,,,47.22222222,-29,20,75,129.2222222,21.77777778,21.77777778,0.199074131,-0.309259358,1,0,0,1.7819,submitButton,22.77777778,-0.243518372,-0.299074172,0,0,0,0,24,24,13,1,29,68998,N,180,2022-02-24_16h43.38.011,orientation adjustment blockN,2021.2.3,Win32,61.65228113,,,,,,,
,,,,,,,,,,,,,,,,,20,-20,20,75,-33,13,13,0.374074366,-0.289814856,1,0,0,0.1375,submitButton,21.88888889,0.021296457,-0.205555705,0,0,0,0,25,25,4,1,20,68998,N,180,2022-02-24_16h43.38.011,orientation adjustment blockN,2021.2.3,Win32,61.65228113,,,,,,,
,,,,,,,,,,,,,,,,,64.44444444,45,20,75,47.44444444,2.444444444,2.444444444,-0.533333287,-0.399074177,1,0,0,1.8106,submitButton,20.26851852,0.020370531,-0.328703747,0,0,0,0,26,26,29,1,45,68998,N,180,2022-02-24_16h43.38.011,orientation adjustment blockN,2021.2.3,Win32,61.65228113,,,,,,,
,,,,,,,,,,,,,,,,,46.66666667,-64,20,75,-43.33333333,20.66666667,20.66666667,-0.487962914,-0.405555659,1,0,0,1.4823,submitButton,20.2991453,0.166666835,-0.237037132,0,0,0,0,27,27,48,1,64,68998,N,180,2022-02-24_16h43.38.011,orientation adjustment blockN,2021.2.3,Win32,61.65228113,,,,,,,
,,,,,,,,,,,,,,,,,-52.77777778,68,20,75,-125.7777778,13.77777778,13.77777778,0.374074366,-0.286111209,1,0,0,1.6616,submitButton,19.83333333,-0.527777731,-0.394444491,0,0,0,0,28,28,52,1,68,68998,N,180,2022-02-24_16h43.38.011,orientation adjustment blockN,2021.2.3,Win32,61.65228113,,,,,,,
,,,,,,,,,,,,,,,,,-71.66666667,-16,20,75,-36.66666667,20.66666667,20.66666667,0.246296356,-0.330555712,1,0,0,0.3497,submitButton,19.88888889,0.275000061,-0.399074177,1,0,0,0,29,29,0,1,16,68998,N,180,2022-02-24_16h43.38.011,orientation adjustment blockN,2021.2.3,Win32,61.65228113,continueButton,,,,,,
,,,,,,,,,,,,,,,,,63.88888889,-49,20,75,12.88888889,61.88888889,61.88888889,0.215740911,-0.300000098,1,0,0,1.9658,submitButton,22.51388889,-0.537037019,-0.408333381,0,0,0,0,30,30,33,1,49,68998,N,180,2022-02-24_16h43.38.011,orientation adjustment blockN,2021.2.3,Win32,61.65228113,,,,,,,
,,,,,,,,,,,,,,,,,38.88888889,38,20,75,31.88888889,6.111111111,6.111111111,0.366666732,-0.307407506,1,0,0,22.7046,submitButton,21.54901961,-0.497222202,-0.406481585,0,0,0,0,31,31,22,1,38,68998,N,180,2022-02-24_16h43.38.011,orientation adjustment blockN,2021.2.3,Win32,61.65228113,,,,,,,
,,,,,,,,,,,,,,,,,-20.55555556,18,20,75,15.44444444,2.555555556,2.555555556,0.422222291,-0.300000098,1,0,0,0.8651,submitButton,20.49382716,-0.534259213,-0.40925942,0,0,0,0,32,32,2,1,18,68998,N,180,2022-02-24_16h43.38.011,orientation adjustment blockN,2021.2.3,Win32,61.65228113,,,,,,,
,,,,,,,,,,,,,,,,,-62.22222222,56,20,75,-20.22222222,76.22222222,76.22222222,0.400000067,-0.277777875,1,0,0,2.198,submitButton,23.42690058,-0.524074027,-0.394444491,0,0,0,0,33,33,40,1,56,68998,N,180,2022-02-24_16h43.38.011,orientation adjustment blockN,2021.2.3,Win32,61.65228113,,,,,,,
,,,,,,,,,,,,,,,,,72.22222222,25,20,75,24.22222222,0.777777778,0.777777778,0.378703883,-0.303703746,1,0,0,1.2498,submitButton,22.29444444,-0.416666642,-0.401851899,0,0,0,0,34,34,9,1,25,68998,N,180,2022-02-24_16h43.38.011,orientation adjustment blockN,2021.2.3,Win32,61.65228113,,,,,,,
,,,,,,,,,,,,,,,,,71.11111111,-35,20,75,-32.88888889,2.111111111,2.111111111,-0.507407388,-0.400000216,1,0,0,1.8983,submitButton,21.33333333,-0.507407388,-0.400000216,0,0,0,0,35,35,19,1,35,68998,N,180,2022-02-24_16h43.38.011,orientation adjustment blockN,2021.2.3,Win32,61.65228113,,,,,,,
,,,,,,,,,,,,,,,,,-57.77777778,-50,20,75,-227.7777778,2.222222222,2.222222222,-0.530555509,-0.396296456,1,0,0,3.1478,submitButton,20.46464646,-0.117592496,-0.137962996,0,0,0,0,36,36,34,1,50,68998,N,180,2022-02-24_16h43.38.011,orientation adjustment blockN,2021.2.3,Win32,61.65228113,,,,,,,
,,,,,,,,,,,,,,,,,-43.33333333,51,20,75,51.66666667,0.666666667,0.666666667,0.145370424,-0.313888988,1,0,0,0.2503,submitButton,19.60386473,-0.209259224,-0.345370414,0,0,0,0,37,37,35,1,51,68998,N,180,2022-02-24_16h43.38.011,orientation adjustment blockN,2021.2.3,Win32,61.65228113,,,,,,,
,,,,,,,,,,,,,,,,,68.88888889,57,20,75,53.88888889,3.111111111,3.111111111,0.4185187,-0.300925968,1,0,0,1.1658,submitButton,18.91666667,-0.534259213,-0.412037141,0,0,0,0,38,38,41,1,57,68998,N,180,2022-02-24_16h43.38.011,orientation adjustment blockN,2021.2.3,Win32,61.65228113,,,,,,,
,,,,,,,,,,,,,,,,,27.22222222,31,20,75,50.22222222,19.22222222,19.22222222,0.370370549,-0.276851892,1,0,0,0.6155,submitButton,18.92888889,-0.538888871,-0.380555601,0,0,0,0,39,39,15,1,31,68998,N,180,2022-02-24_16h43.38.011,orientation adjustment blockN,2021.2.3,Win32,61.65228113,,,,,,,
,,,,,,,,,,,,,,,,,56.11111111,48,20,75,46.11111111,1.888888889,1.888888889,0.412037218,-0.312037192,1,0,0,0.4164,submitButton,18.27350427,-0.525925879,-0.396296456,0,0,0,0,40,40,32,1,48,68998,N,180,2022-02-24_16h43.38.011,orientation adjustment blockN,2021.2.3,Win32,61.65228113,,,,,,,
,,,,,,,,,,,,,,,,,-57.77777778,-53,20,75,-49.77777778,3.222222222,3.222222222,0.254629689,-0.312963062,1,0,0,0.0829,submitButton,17.71604938,-0.506481433,-0.400000216,0,0,0,0,41,41,37,1,53,68998,N,180,2022-02-24_16h43.38.011,orientation adjustment blockN,2021.2.3,Win32,61.65228113,,,,,,,
,,,,,,,,,,,,,,,,,-36.11111111,-19,20,75,-41.11111111,22.11111111,22.11111111,0.450926109,-0.309259358,1,0,0,0.2325,submitButton,17.87301587,-0.517592517,-0.388888935,0,0,0,0,42,42,3,1,19,68998,N,180,2022-02-24_16h43.38.011,orientation adjustment blockN,2021.2.3,Win32,61.65228113,,,,,,,
,,,,,,,,,,,,,,,,,70.55555556,-74,20,75,-58.44444444,15.55555556,15.55555556,0.414814883,-0.284259413,1,0,0,1.0323,submitButton,17.79310345,-0.517592517,-0.39166677,0,0,0,0,43,43,58,1,74,68998,N,180,2022-02-24_16h43.38.011,orientation adjustment blockN,2021.2.3,Win32,61.65228113,,,,,,,
,,,,,,,,,,,,,,,,,-30.55555556,-66,20,75,-125.5555556,59.55555556,59.55555556,0.406481662,-0.279629727,1,0,0,0.8827,submitButton,19.18518519,0.337963027,-0.38240751,1,0,0,0,44,44,50,1,66,68998,N,180,2022-02-24_16h43.38.011,orientation adjustment blockN,2021.2.3,Win32,61.65228113,continueButton,,,,,,
,,,,,,,,,,,,,,,,,20.55555556,-67,20,75,-123.4444444,56.44444444,56.44444444,0.402777958,-0.333333433,1,0,0,0.9496,submitButton,20.38709677,-0.250925893,-0.365740842,0,0,0,0,45,45,51,1,67,68998,N,180,2022-02-24_16h43.38.011,orientation adjustment blockN,2021.2.3,Win32,61.65228113,,,,,,,
,,,,,,,,,,,,,,,,,38.88888889,-69,20,75,-30.11111111,38.88888889,38.88888889,0.378703883,-0.281481579,1,0,0,0.4995,submitButton,20.96527778,-0.077777735,-0.281481579,0,0,0,0,46,46,53,1,69,68998,N,180,2022-02-24_16h43.38.011,orientation adjustment blockN,2021.2.3,Win32,61.65228113,,,,,,,
,,,,,,,,,,,,,,,,,70.55555556,-44,20,75,142.5555556,6.555555556,6.555555556,0.186111167,-0.302777933,1,0,0,1.8983,submitButton,20.52861953,-0.039814714,-0.257407503,0,0,0,0,47,47,28,1,44,68998,N,180,2022-02-24_16h43.38.011,orientation adjustment blockN,2021.2.3,Win32,61.65228113,,,,,,,
,,,,,,,,,,,,,,,,,37.22222222,36,20,75,30.22222222,5.777777778,5.777777778,0.349074252,-0.280555653,1,0,0,1.1652,submitButton,20.09477124,-0.002777619,-0.30648158,0,0,0,0,48,48,20,1,36,68998,N,180,2022-02-24_16h43.38.011,orientation adjustment blockN,2021.2.3,Win32,61.65228113,,,,,,,
,,,,,,,,,,,,,,,,,-72.22222222,-27,20,75,-28.22222222,1.222222222,1.222222222,-0.537962916,-0.404629733,1,0,0,1.9975,submitButton,19.55555556,-0.537962916,-0.404629733,0,0,0,0,49,49,11,1,27,68998,N,180,2022-02-24_16h43.38.011,orientation adjustment blockN,2021.2.3,Win32,61.65228113,,,,,,,
,,,,,,,,,,,,,,,,,56.11111111,32,20,75,37.11111111,5.111111111,5.111111111,-0.538888871,-0.392592696,1,0,0,1.6147,submitButton,19.15432099,-0.538888871,-0.392592696,0,0,0,0,50,50,16,1,32,68998,N,180,2022-02-24_16h43.38.011,orientation adjustment blockN,2021.2.3,Win32,61.65228113,,,,,,,
,,,,,,,,,,,,,,,,,-65.55555556,-37,20,75,-41.55555556,4.555555556,4.555555556,0.2407408,-0.297222264,1,0,0,0.9003,submitButton,18.75975976,-0.509259239,-0.410185346,0,0,0,0,51,51,21,1,37,68998,N,180,2022-02-24_16h43.38.011,orientation adjustment blockN,2021.2.3,Win32,61.65228113,,,,,,,
,,,,,,,,,,,,,,,,,67.77777778,46,20,75,50.77777778,4.777777778,4.777777778,0.416666848,-0.325000043,1,0,0,0.0165,submitButton,18.39181287,-0.513888841,-0.396296456,0,0,0,0,52,52,30,1,46,68998,N,180,2022-02-24_16h43.38.011,orientation adjustment blockN,2021.2.3,Win32,61.65228113,,,,,,,
,,,,,,,,,,,,,,,,,-35.55555556,73,20,75,61.44444444,11.55555556,11.55555556,0.179629685,-0.314814857,1,0,0,0.0989,submitButton,18.21652422,-0.080555457,-0.319444544,0,0,0,0,53,53,57,1,73,68998,N,180,2022-02-24_16h43.38.011,orientation adjustment blockN,2021.2.3,Win32,61.65228113,,,,,,,
,,,,,,,,,,,,,,,,,-68.88888889,-58,20,75,-242.8888889,4.888888889,4.888888889,0.396296476,-0.312037192,1,0,0,1.6327,submitButton,17.88333333,-0.529629583,-0.40925942,0,0,0,0,54,54,42,1,58,68998,N,180,2022-02-24_16h43.38.011,orientation adjustment blockN,2021.2.3,Win32,61.65228113,,,,,,,
,,,,,,,,,,,,,,,,,37.77777778,-40,20,75,-67.22222222,27.22222222,27.22222222,0.405555736,-0.325926082,1,0,0,1.5152,submitButton,18.11111111,-0.256481392,-0.247222374,0,0,0,0,55,55,24,1,40,68998,N,180,2022-02-24_16h43.38.011,orientation adjustment blockN,2021.2.3,Win32,61.65228113,,,,,,,
,,,,,,,,,,,,,,,,,-21.11111111,-41,20,75,-40.11111111,0.888888889,0.888888889,0.218518576,-0.254629726,1,0,0,0.1832,submitButton,17.7010582,0.212037094,-0.185185277,0,0,0,0,56,56,25,1,41,68998,N,180,2022-02-24_16h43.38.011,orientation adjustment blockN,2021.2.3,Win32,61.65228113,,,,,,,
,,,,,,,,,,,,,,,,,20,-26,20,75,-23,3,3,0.39537055,-0.276851892,1,0,0,0.2164,submitButton,17.35917313,-0.221296205,-0.228703855,0,0,0,0,57,57,10,1,26,68998,N,180,2022-02-24_16h43.38.011,orientation adjustment blockN,2021.2.3,Win32,61.65228113,,,,,,,
,,,,,,,,,,,,,,,,,-73.88888889,42,20,75,-146.8888889,8.888888889,8.888888889,0.388889069,-0.298148303,1,0,0,1.8491,submitButton,17.16666667,-0.562036992,-0.416666714,0,0,0,0,58,58,26,1,42,68998,N,180,2022-02-24_16h43.38.011,orientation adjustment blockN,2021.2.3,Win32,61.65228113,,,,,,,
,,,,,,,,,,,,,,,,,-62.22222222,34,20,75,-153.2222222,7.222222222,7.222222222,0.407407475,-0.304629728,1,0,0,1.8161,submitButton,16.94567901,0.320370546,-0.388888935,1,0,0,0,59,59,18,1,34,68998,N,180,2022-02-24_16h43.38.011,orientation adjustment blockN,2021.2.3,Win32,61.65228113,continueButton,,,,,,
,,,,,,,,,,,,,,,,,-28.88888889,49,20,75,17.11111111,31.88888889,31.88888889,0.375926105,-0.293518616,1,0,0,0.8989,submitButton,17.2705314,-0.296296265,-0.343518619,0,0,0,1,0,60,33,1,49,68998,N,180,2022-02-24_16h43.38.011,orientation adjustment blockN,2021.2.3,Win32,61.65228113,,,,,,,
,,,,,,,,,,,,,,,,,61.66666667,-27,20,75,-29.33333333,2.333333333,2.333333333,0.40925944,-0.305555654,1,0,0,0.4997,submitButton,16.95271868,-0.237037003,-0.380555601,0,0,0,1,1,61,11,1,27,68998,N,180,2022-02-24_16h43.38.011,orientation adjustment blockN,2021.2.3,Win32,61.65228113,,,,,,,
,,,,,,,,,,,,,,,,,37.77777778,69,20,75,65.77777778,3.222222222,3.222222222,-0.513888841,-0.411111272,1,0,0,1.6482,submitButton,16.66666667,-0.093518421,-0.345370414,0,0,0,1,2,62,53,1,69,68998,N,180,2022-02-24_16h43.38.011,orientation adjustment blockN,2021.2.3,Win32,61.65228113,,,,,,,
,,,,,,,,,,,,,,,,,36.11111111,23,20,75,29.11111111,6.111111111,6.111111111,-0.544444398,-0.421296401,1,0,0,1.465,submitButton,16.45124717,-0.111111014,-0.183333369,0,0,0,1,3,63,7,1,23,68998,N,180,2022-02-24_16h43.38.011,orientation adjustment blockN,2021.2.3,Win32,61.65228113,,,,,,,
,,,,,,,,,,,,,,,,,-70.55555556,-44,20,75,-44.55555556,0.555555556,0.555555556,-0.497222202,-0.402777825,1,0,0,1.8313,submitButton,16.13333333,0.27129647,-0.338888933,0,0,0,1,4,64,28,1,44,68998,N,180,2022-02-24_16h43.38.011,orientation adjustment blockN,2021.2.3,Win32,61.65228113,,,,,,,
,,,,,,,,,,,,,,,,,50.55555556,59,20,75,67.55555556,8.555555556,8.555555556,0.422222291,-0.333333433,1,0,0,0.2331,submitButton,15.98474946,0.115740793,-0.145370517,0,0,0,1,5,65,43,1,59,68998,N,180,2022-02-24_16h43.38.011,orientation adjustment blockN,2021.2.3,Win32,61.65228113,,,,,,,
,,,,,,,,,,,,,,,,,-20.55555556,24,20,75,29.44444444,5.444444444,5.444444444,0.392592772,-0.312963062,1,0,0,0.4489,submitButton,15.78205128,-0.125925886,-0.142592683,0,0,0,1,6,66,8,1,24,68998,N,180,2022-02-24_16h43.38.011,orientation adjustment blockN,2021.2.3,Win32,61.65228113,,,,,,,
,,,,,,,,,,,,,,,,,-31.11111111,74,20,75,57.88888889,16.11111111,16.11111111,0.223148319,-0.305555654,1,0,0,0.6493,submitButton,15.78825996,-0.535185167,-0.414814863,0,0,0,1,7,67,58,1,74,68998,N,180,2022-02-24_16h43.38.011,orientation adjustment blockN,2021.2.3,Win32,61.65228113,,,,,,,
,,,,,,,,,,,,,,,,,-24.44444444,29,20,75,26.55555556,2.444444444,2.444444444,0.223148319,-0.30648158,1,0,0,0.0821,submitButton,15.54115226,0.107407459,-0.212963057,0,0,0,1,8,68,13,1,29,68998,N,180,2022-02-24_16h43.38.011,orientation adjustment blockN,2021.2.3,Win32,61.65228113,,,,,,,
,,,,,,,,,,,,,,,,,-57.77777778,-31,20,75,-52.77777778,21.77777778,21.77777778,0.204629687,-0.304629728,1,0,0,0.733,submitButton,15.65454545,0.074074124,-0.090740828,0,0,0,1,9,69,15,1,31,68998,N,180,2022-02-24_16h43.38.011,orientation adjustment blockN,2021.2.3,Win32,61.65228113,,,,,,,
,,,,,,,,,,,,,,,,,-32.77777778,35,20,75,32.22222222,2.777777778,2.777777778,0.225000171,-0.338888933,1,0,0,0.0505,submitButton,15.42460317,-0.009259157,-0.375000102,0,0,0,1,10,70,19,1,35,68998,N,180,2022-02-24_16h43.38.011,orientation adjustment blockN,2021.2.3,Win32,61.65228113,,,,,,,
,,,,,,,,,,,,,,,,,-31.66666667,37,20,75,42.33333333,5.333333333,5.333333333,0.190740797,-0.295370468,1,0,0,0.3005,submitButton,15.24756335,0.157407462,0.080555534,0,0,0,1,11,71,21,1,37,68998,N,180,2022-02-24_16h43.38.011,orientation adjustment blockN,2021.2.3,Win32,61.65228113,,,,,,,
,,,,,,,,,,,,,,,,,72.22222222,41,20,75,58.22222222,17.22222222,17.22222222,0.215740911,-0.324074174,1,0,0,0.1323,submitButton,15.2816092,-0.113888735,-0.326851951,0,0,0,1,12,72,25,1,41,68998,N,180,2022-02-24_16h43.38.011,orientation adjustment blockN,2021.2.3,Win32,61.65228113,,,,,,,
,,,,,,,,,,,,,,,,,40,51,20,75,48,3,3,0.375926105,-0.304629728,1,0,0,0.8649,submitButton,15.07344633,-0.665740715,-0.42222227,0,0,0,1,13,73,35,1,51,68998,N,180,2022-02-24_16h43.38.011,orientation adjustment blockN,2021.2.3,Win32,61.65228113,,,,,,,
,,,,,,,,,,,,,,,,,-27.77777778,43,20,75,39.22222222,3.777777778,3.777777778,0.200000057,-0.300925968,1,0,0,0.5658,submitButton,14.88518519,0.305555731,-0.412963067,1,0,0,1,14,74,27,1,43,68998,N,180,2022-02-24_16h43.38.011,orientation adjustment blockN,2021.2.3,Win32,61.65228113,continueButton,,,,,,
,,,,,,,,,,,,,,,,,73.88888889,-53,20,75,126.8888889,0.111111111,0.111111111,-0.320370341,-0.388888935,1,0,0,2.2652,submitButton,14.64298725,0.300926101,-0.322222322,0,0,0,1,15,75,37,1,53,68998,N,180,2022-02-24_16h43.38.011,orientation adjustment blockN,2021.2.3,Win32,61.65228113,,,,,,,
,,,,,,,,,,,,,,,,,30,63,20,75,55,8,8,0.444444627,-0.290740838,1,0,0,0.1996,submitButton,14.53584229,0.320370546,-0.250926022,0,0,0,1,16,76,47,1,63,68998,N,180,2022-02-24_16h43.38.011,orientation adjustment blockN,2021.2.3,Win32,61.65228113,,,,,,,
,,,,,,,,,,,,,,,,,-71.11111111,-45,20,75,-222.1111111,2.888888889,2.888888889,-0.315740654,-0.420370475,1,0,0,2.8154,submitButton,14.35097002,-0.068518419,-0.407407511,0,0,0,1,17,77,29,1,45,68998,N,180,2022-02-24_16h43.38.011,orientation adjustment blockN,2021.2.3,Win32,61.65228113,,,,,,,
,,,,,,,,,,,,,,,,,-36.66666667,26,20,75,-144.6666667,9.333333333,9.333333333,0.369444736,-0.284259413,1,0,0,3.2655,submitButton,14.27256944,0.230555727,-0.238888984,0,0,0,1,18,78,10,1,26,68998,N,180,2022-02-24_16h43.38.011,orientation adjustment blockN,2021.2.3,Win32,61.65228113,,,,,,,
,,,,,,,,,,,,,,,,,71.11111111,20,20,75,52.11111111,32.11111111,32.11111111,0.381481661,-0.293518616,1,0,0,0.3327,submitButton,14.54700855,-0.275925837,-0.247222374,0,0,0,1,19,79,4,1,20,68998,N,180,2022-02-24_16h43.38.011,orientation adjustment blockN,2021.2.3,Win32,61.65228113,,,,,,,
,,,,,,,,,,,,,,,,,41.66666667,61,20,75,53.66666667,7.333333333,7.333333333,-0.447222171,-0.441666885,1,0,0,1.4152,submitButton,14.43771044,0.070370533,-0.272222319,0,0,0,1,20,80,45,1,61,68998,N,180,2022-02-24_16h43.38.011,orientation adjustment blockN,2021.2.3,Win32,61.65228113,,,,,,,
,,,,,,,,,,,,,,,,,-39.44444444,18,20,75,-153.4444444,8.555555556,8.555555556,0.420370552,-0.296296394,1,0,0,1.9317,submitButton,14.34991708,-0.207407315,-0.350000101,0,0,0,1,21,81,2,1,18,68998,N,180,2022-02-24_16h43.38.011,orientation adjustment blockN,2021.2.3,Win32,61.65228113,,,,,,,
,,,,,,,,,,,,,,,,,-43.33333333,-67,20,75,-57.33333333,9.666666667,9.666666667,0.200000057,-0.330555712,1,0,0,0.167,submitButton,14.28104575,0.131481535,-0.266666763,0,0,0,1,22,82,51,1,67,68998,N,180,2022-02-24_16h43.38.011,orientation adjustment blockN,2021.2.3,Win32,61.65228113,,,,,,,
,,,,,,,,,,,,,,,,,-47.77777778,-57,20,75,-228.7777778,8.222222222,8.222222222,-0.214814723,-0.411111272,1,0,0,2.8143,submitButton,14.19323671,0.040740789,-0.332407507,0,0,0,1,23,83,41,1,57,68998,N,180,2022-02-24_16h43.38.011,orientation adjustment blockN,2021.2.3,Win32,61.65228113,,,,,,,
,,,,,,,,,,,,,,,,,30,62,20,75,49,13,13,0.372222288,-0.309259358,1,0,0,0.9679,submitButton,14.17619048,-0.372222195,-0.39166677,0,0,0,1,24,84,46,1,62,68998,N,180,2022-02-24_16h43.38.011,orientation adjustment blockN,2021.2.3,Win32,61.65228113,,,,,,,
,,,,,,,,,,,,,,,,,-70.55555556,-58,20,75,-71.55555556,13.55555556,13.55555556,0.185185241,-0.343518619,1,0,0,0.2499,submitButton,14.16744914,0.168518687,-0.15555559,0,0,0,1,25,85,42,1,58,68998,N,180,2022-02-24_16h43.38.011,orientation adjustment blockN,2021.2.3,Win32,61.65228113,,,,,,,
,,,,,,,,,,,,,,,,,34.44444444,19,20,75,31.44444444,12.44444444,12.44444444,0.224074245,-0.312037192,1,0,0,0.2996,submitButton,14.14351852,-0.320370341,-0.399074177,0,0,0,1,26,86,3,1,19,68998,N,180,2022-02-24_16h43.38.011,orientation adjustment blockN,2021.2.3,Win32,61.65228113,,,,,,,
,,,,,,,,,,,,,,,,,-50.55555556,28,20,75,-153.5555556,1.555555556,1.555555556,0.375000179,-0.314814857,1,0,0,0.599,submitButton,13.97108067,-0.537037019,-0.396296456,0,0,0,1,27,87,12,1,28,68998,N,180,2022-02-24_16h43.38.011,orientation adjustment blockN,2021.2.3,Win32,61.65228113,,,,,,,
,,,,,,,,,,,,,,,,,-53.33333333,16,20,75,33.66666667,17.66666667,17.66666667,0.235185244,-0.305555654,1,0,0,2.0491,submitButton,14.02102102,-0.168518481,-0.403703864,0,0,0,1,28,88,0,1,16,68998,N,180,2022-02-24_16h43.38.011,orientation adjustment blockN,2021.2.3,Win32,61.65228113,,,,,,,
,,,,,,,,,,,,,,,,,56.66666667,-38,20,75,39.66666667,77.66666667,77.66666667,0.138889056,-0.30648158,1,0,0,0.9159,submitButton,14.86962963,0.303703766,-0.390740844,1,0,0,1,29,89,22,1,38,68998,N,180,2022-02-24_16h43.38.011,orientation adjustment blockN,2021.2.3,Win32,61.65228113,continueButton,,,,,,
,,,,,,,,,,,,,,,,,-31.11111111,-17,20,75,-28.11111111,11.11111111,11.11111111,0.373148214,-0.302777933,1,0,0,1.6489,submitButton,14.82017544,-0.013888787,-0.393518622,0,0,0,1,30,90,1,1,17,68998,N,180,2022-02-24_16h43.38.011,orientation adjustment blockN,2021.2.3,Win32,61.65228113,,,,,,,
,,,,,,,,,,,,,,,,,-25.55555556,52,20,75,52.44444444,0.444444444,0.444444444,0.175000169,-0.297222264,1,0,0,0.5208,submitButton,14.63347763,-0.2944443,-0.393518622,0,0,0,1,31,91,36,1,52,68998,N,180,2022-02-24_16h43.38.011,orientation adjustment blockN,2021.2.3,Win32,61.65228113,,,,,,,
,,,,,,,,,,,,,,,,,60,21,20,75,38,17,17,0.372222288,-0.290740838,1,0,0,0.4777,submitButton,14.66381766,-0.33425923,-0.393518622,0,0,0,1,32,92,5,1,21,68998,N,180,2022-02-24_16h43.38.011,orientation adjustment blockN,2021.2.3,Win32,61.65228113,,,,,,,
,,,,,,,,,,,,,,,,,-63.88888889,-32,20,75,-126.8888889,85.11111111,85.11111111,0.365740806,-0.32037047,1,0,0,8.3998,submitButton,15.55555556,-0.097222124,-0.207407444,0,0,0,1,33,93,16,1,32,68998,N,180,2022-02-24_16h43.38.011,orientation adjustment blockN,2021.2.3,Win32,61.65228113,,,,,,,
,,,,,,,,,,,,,,,,,53.88888889,60,20,75,54.88888889,5.111111111,5.111111111,-0.231481391,-0.402777825,1,0,0,1.8667,submitButton,15.425,0.038889107,-0.178703739,0,0,0,1,34,94,44,1,60,68998,N,180,2022-02-24_16h43.38.011,orientation adjustment blockN,2021.2.3,Win32,61.65228113,,,,,,,
,,,,,,,,,,,,,,,,,-48.33333333,68,20,75,55.66666667,12.33333333,12.33333333,0.190740797,-0.326851951,1,0,0,0.1709,submitButton,15.38683128,-0.155555404,-0.401851899,0,0,0,1,35,95,52,1,68,68998,N,180,2022-02-24_16h43.38.011,orientation adjustment blockN,2021.2.3,Win32,61.65228113,,,,,,,
,,,,,,,,,,,,,,,,,53.88888889,66,20,75,45.88888889,20.11111111,20.11111111,-0.299999969,-0.412963067,1,0,0,2.378,submitButton,15.44444444,-0.522222147,-0.345370414,0,0,0,1,36,96,50,1,66,68998,N,180,2022-02-24_16h43.38.011,orientation adjustment blockN,2021.2.3,Win32,61.65228113,,,,,,,
,,,,,,,,,,,,,,,,,50,71,20,75,44,27,27,-0.299999969,-0.472222273,1,0,0,1.8114,submitButton,15.58366801,-0.266666521,-0.423148309,0,0,0,1,37,97,55,1,71,68998,N,180,2022-02-24_16h43.38.011,orientation adjustment blockN,2021.2.3,Win32,61.65228113,,,,,,,
,,,,,,,,,,,,,,,,,-35.55555556,40,20,75,32.44444444,7.555555556,7.555555556,0.231481653,-0.298148303,1,0,0,0.5285,submitButton,15.48809524,-0.331481452,-0.390740844,0,0,0,1,38,98,24,1,40,68998,N,180,2022-02-24_16h43.38.011,orientation adjustment blockN,2021.2.3,Win32,61.65228113,,,,,,,
,,,,,,,,,,,,,,,,,-67.77777778,-56,20,75,-57.77777778,1.777777778,1.777777778,0.263889062,-0.308333432,1,0,0,0.5711,submitButton,15.32679739,-0.122222126,-0.339814972,0,0,0,1,39,99,40,1,56,68998,N,180,2022-02-24_16h43.38.011,orientation adjustment blockN,2021.2.3,Win32,61.65228113,,,,,,,
,,,,,,,,,,,,,,,,,56.66666667,46,20,75,50.66666667,4.666666667,4.666666667,-0.104629476,-0.406481585,1,0,0,4.1936,submitButton,15.20284238,0.081481532,-0.148148182,0,0,0,1,40,100,30,1,46,68998,N,180,2022-02-24_16h43.38.011,orientation adjustment blockN,2021.2.3,Win32,61.65228113,,,,,,,
,,,,,,,,,,,,,,,,,-62.77777778,-42,20,75,-50.77777778,8.777777778,8.777777778,-0.223148113,-0.40925942,1,0,0,1.7111,submitButton,15.12899106,0.343518583,-0.30185195,0,0,0,1,41,101,26,1,42,68998,N,180,2022-02-24_16h43.38.011,orientation adjustment blockN,2021.2.3,Win32,61.65228113,,,,,,,
,,,,,,,,,,,,,,,,,49.44444444,54,20,75,46.44444444,7.555555556,7.555555556,0.380555622,-0.282407505,1,0,0,0.2333,submitButton,15.04292929,-0.148148053,-0.341666767,0,0,0,1,42,102,38,1,54,68998,N,180,2022-02-24_16h43.38.011,orientation adjustment blockN,2021.2.3,Win32,61.65228113,,,,,,,
,,,,,,,,,,,,,,,,,48.33333333,-72,20,75,-126.6666667,54.66666667,54.66666667,-0.238888742,-0.399074177,1,0,0,2.5151,submitButton,15.48813983,-0.238888742,-0.399074177,0,0,0,1,43,103,56,1,72,68998,N,180,2022-02-24_16h43.38.011,orientation adjustment blockN,2021.2.3,Win32,61.65228113,,,,,,,
,,,,,,,,,,,,,,,,,-22.22222222,-33,20,75,-32.22222222,0.777777778,0.777777778,-0.244444411,-0.399074177,1,0,0,1.219,submitButton,15.32469136,0.352777843,-0.38611127,1,0,0,1,44,104,17,1,33,68998,N,180,2022-02-24_16h43.38.011,orientation adjustment blockN,2021.2.3,Win32,61.65228113,continueButton,,,,,,
,,,,,,,,,,,,,,,,,-62.77777778,-75,20,75,-60.77777778,14.22222222,14.22222222,0.22685191,-0.288889043,1,0,0,0.1796,submitButton,15.31257631,-0.209259224,-0.398148252,0,0,0,1,45,105,59,1,75,68998,N,180,2022-02-24_16h43.38.011,orientation adjustment blockN,2021.2.3,Win32,61.65228113,,,,,,,
,,,,,,,,,,,,,,,,,-23.33333333,-73,20,75,-59.33333333,13.66666667,13.66666667,0.203703874,-0.311111153,1,0,0,0.0169,submitButton,15.29468599,0.362963141,-0.220370408,0,0,0,1,46,106,57,1,73,68998,N,180,2022-02-24_16h43.38.011,orientation adjustment blockN,2021.2.3,Win32,61.65228113,,,,,,,
,,,,,,,,,,,,,,,,,32.77777778,36,20,75,119.7777778,83.77777778,83.77777778,0.175000169,-0.307407506,1,0,0,0.2456,submitButton,16.03106332,-0.224999852,-0.401851899,0,0,0,1,47,107,20,1,36,68998,N,180,2022-02-24_16h43.38.011,orientation adjustment blockN,2021.2.3,Win32,61.65228113,,,,,,,
,,,,,,,,,,,,,,,,,-52.22222222,47,20,75,-132.2222222,0.777777778,0.777777778,0.369444736,-0.269444485,1,0,0,0.2823,submitButton,15.86879433,-0.212036945,-0.414814863,0,0,0,1,48,108,31,1,47,68998,N,180,2022-02-24_16h43.38.011,orientation adjustment blockN,2021.2.3,Win32,61.65228113,,,,,,,
,,,,,,,,,,,,,,,,,-51.66666667,-30,20,75,-45.66666667,15.66666667,15.66666667,0.227777836,-0.317592635,1,0,0,1.0164,submitButton,15.86666667,-0.187962813,-0.407407511,0,0,0,1,49,109,14,1,30,68998,N,180,2022-02-24_16h43.38.011,orientation adjustment blockN,2021.2.3,Win32,61.65228113,,,,,,,
,,,,,,,,,,,,,,,,,31.11111111,25,20,75,29.11111111,4.111111111,4.111111111,-0.168518481,-0.388888935,1,0,0,1.1611,submitButton,15.74421296,0.125926092,-0.171296388,0,0,0,1,50,110,9,1,25,68998,N,180,2022-02-24_16h43.38.011,orientation adjustment blockN,2021.2.3,Win32,61.65228113,,,,,,,
,,,,,,,,,,,,,,,,,61.66666667,-34,20,75,154.6666667,8.666666667,8.666666667,0.217592763,-0.311111153,1,0,0,0.179,submitButton,15.67124857,-0.010185083,-0.338888933,0,0,0,1,51,111,18,1,34,68998,N,180,2022-02-24_16h43.38.011,orientation adjustment blockN,2021.2.3,Win32,61.65228113,,,,,,,
,,,,,,,,,,,,,,,,,48.33333333,-55,20,75,-29.66666667,25.33333333,25.33333333,0.416666848,-0.289814856,1,0,0,0.3161,submitButton,15.76984127,-0.112962922,-0.400000216,0,0,0,1,52,112,39,1,55,68998,N,180,2022-02-24_16h43.38.011,orientation adjustment blockN,2021.2.3,Win32,61.65228113,,,,,,,
,,,,,,,,,,,,,,,,,65.55555556,-48,20,75,-28.44444444,19.55555556,19.55555556,0.420370552,-0.272222319,1,0,0,0.017,submitButton,15.80808081,-0.018518417,-0.437963125,0,0,0,1,53,113,32,1,48,68998,N,180,2022-02-24_16h43.38.011,orientation adjustment blockN,2021.2.3,Win32,61.65228113,,,,,,,
,,,,,,,,,,,,,,,,,-50,64,20,75,-38,78,78,0.391666846,-0.284259413,1,0,0,0.3996,submitButton,16.43,-0.139814776,-0.396296456,0,0,0,1,54,114,48,1,64,68998,N,180,2022-02-24_16h43.38.011,orientation adjustment blockN,2021.2.3,Win32,61.65228113,,,,,,,
,,,,,,,,,,,,,,,,,-22.77777778,22,20,75,37.22222222,15.22222222,15.22222222,0.224074245,-0.32037047,1,0,0,0.849,submitButton,16.4180418,-0.224999852,-0.405555659,0,0,0,1,55,115,6,1,22,68998,N,180,2022-02-24_16h43.38.011,orientation adjustment blockN,2021.2.3,Win32,61.65228113,,,,,,,
,,,,,,,,,,,,,,,,,55.55555556,-70,20,75,-147.4444444,77.44444444,77.44444444,0.398148328,-0.29259269,1,0,0,0.1994,submitButton,17.01633987,0.197222392,-0.06111114,0,0,0,1,56,116,54,1,70,68998,N,180,2022-02-24_16h43.38.011,orientation adjustment blockN,2021.2.3,Win32,61.65228113,,,,,,,
,,,,,,,,,,,,,,,,,48.88888889,50,20,75,32.88888889,17.11111111,17.11111111,0.421296365,-0.299074172,1,0,0,0.9175,submitButton,17.01725998,-0.199074038,-0.384259362,0,0,0,1,57,117,34,1,50,68998,N,180,2022-02-24_16h43.38.011,orientation adjustment blockN,2021.2.3,Win32,61.65228113,,,,,,,
,,,,,,,,,,,,,,,,,-23.88888889,-65,20,75,-139.8888889,74.88888889,74.88888889,0.462037221,-0.30185195,1,0,0,1.3779,submitButton,17.57371795,-0.005555453,-0.106481513,0,0,0,1,58,118,49,1,65,68998,N,180,2022-02-24_16h43.38.011,orientation adjustment blockN,2021.2.3,Win32,61.65228113,,,,,,,
,,,,,,,,,,,,,,,,,59.44444444,-39,20,75,-28.55555556,10.44444444,10.44444444,0.407407475,-0.286111209,1,0,0,0.5453,submitButton,17.50582011,0.332407697,-0.392592696,1,0,0,1,59,119,23,1,39,68998,N,180,2022-02-24_16h43.38.011,orientation adjustment blockN,2021.2.3,Win32,61.65228113,continueButton,,,,,,
,,,,,,,,,,,,,,,,,73.33333333,46,20,75,25.33333333,20.66666667,20.66666667,0.364814993,-0.308333432,1,0,0,1.6369,submitButton,17.53563941,-0.117592496,-0.328703747,0,0,0,2,0,120,30,1,46,68998,N,180,2022-02-24_16h43.38.011,orientation adjustment blockN,2021.2.3,Win32,61.65228113,,,,,,,
,,,,,,,,,,,,,,,,,-46.11111111,19,20,75,37.88888889,18.88888889,18.88888889,0.237963135,-0.307407506,1,0,0,0.3866,submitButton,17.5482866,0.064814978,-0.348148249,0,0,0,2,1,121,3,1,19,68998,N,180,2022-02-24_16h43.38.011,orientation adjustment blockN,2021.2.3,Win32,61.65228113,,,,,,,
,,,,,,,,,,,,,,,,,-46.11111111,-53,20,75,-217.1111111,15.88888889,15.88888889,0.378703883,-0.288889043,1,0,0,0.7619,submitButton,17.53292181,0.04814831,-0.148148182,0,0,0,2,2,122,37,1,53,68998,N,180,2022-02-24_16h43.38.011,orientation adjustment blockN,2021.2.3,Win32,61.65228113,,,,,,,
,,,,,,,,,,,,,,,,,51.11111111,-52,20,75,-144.8888889,87.11111111,87.11111111,0.369444736,-0.295370468,1,0,0,2.483,submitButton,18.17125382,-0.186111018,-0.417592753,0,0,0,2,3,123,36,1,52,68998,N,180,2022-02-24_16h43.38.011,orientation adjustment blockN,2021.2.3,Win32,61.65228113,,,,,,,
,,,,,,,,,,,,,,,,,-31.66666667,39,20,75,33.33333333,5.666666667,5.666666667,0.179629685,-0.332407507,1,0,0,0.1329,submitButton,18.05757576,-0.187962813,-0.401851899,0,0,0,2,4,124,23,1,39,68998,N,180,2022-02-24_16h43.38.011,orientation adjustment blockN,2021.2.3,Win32,61.65228113,,,,,,,
,,,,,,,,,,,,,,,,,-52.77777778,-41,20,75,-138.7777778,82.22222222,82.22222222,0.366666732,-0.279629727,1,0,0,0.1311,submitButton,18.63563564,-0.10277768,-0.371296398,0,0,0,2,5,125,25,1,41,68998,N,180,2022-02-24_16h43.38.011,orientation adjustment blockN,2021.2.3,Win32,61.65228113,,,,,,,
,,,,,,,,,,,,,,,,,50.55555556,-25,20,75,-24.44444444,0.555555556,0.555555556,0.470370441,-0.258333429,1,0,0,0.9983,submitButton,18.47420635,-0.103703606,-0.410185346,0,0,0,2,6,126,9,1,25,68998,N,180,2022-02-24_16h43.38.011,orientation adjustment blockN,2021.2.3,Win32,61.65228113,,,,,,,
,,,,,,,,,,,,,,,,,58.88888889,-20,20,75,-21.11111111,1.111111111,1.111111111,0.371296362,-0.293518616,1,0,0,0.9955,submitButton,18.32055064,-0.12962959,-0.393518622,0,0,0,2,7,127,4,1,20,68998,N,180,2022-02-24_16h43.38.011,orientation adjustment blockN,2021.2.3,Win32,61.65228113,,,,,,,
,,,,,,,,,,,,,,,,,-37.77777778,56,20,75,-28.77777778,84.77777778,84.77777778,0.394444511,-0.312963062,1,0,0,0.1159,submitButton,18.90350877,0.083333384,-0.308333432,0,0,0,2,8,128,40,1,56,68998,N,180,2022-02-24_16h43.38.011,orientation adjustment blockN,2021.2.3,Win32,61.65228113,,,,,,,
,,,,,,,,,,,,,,,,,-38.33333333,67,20,75,36.66666667,30.33333333,30.33333333,0.224074245,-0.299074172,1,0,0,0.5992,submitButton,19.00289855,0.011111328,-0.262037077,0,0,0,2,9,129,51,1,67,68998,N,180,2022-02-24_16h43.38.011,orientation adjustment blockN,2021.2.3,Win32,61.65228113,,,,,,,
,,,,,,,,,,,,,,,,,67.22222222,-59,20,75,-30.77777778,28.22222222,28.22222222,-0.167592555,-0.410185346,1,0,0,1.3947,submitButton,19.08237548,0.168518687,-0.229629724,0,0,0,2,10,130,43,1,59,68998,N,180,2022-02-24_16h43.38.011,orientation adjustment blockN,2021.2.3,Win32,61.65228113,,,,,,,
,,,,,,,,,,,,,,,,,-60.55555556,-29,20,75,-215.5555556,6.555555556,6.555555556,-0.190740648,-0.431481643,1,0,0,2.5124,submitButton,18.97530864,-0.066666567,-0.343518619,0,0,0,2,11,131,13,1,29,68998,N,180,2022-02-24_16h43.38.011,orientation adjustment blockN,2021.2.3,Win32,61.65228113,,,,,,,
,,,,,,,,,,,,,,,,,71.66666667,51,20,75,230.6666667,0.333333333,0.333333333,0.187037093,-0.303703746,1,0,0,0.5823,submitButton,18.8173258,0.128703757,-0.224074168,0,0,0,2,12,132,35,1,51,68998,N,180,2022-02-24_16h43.38.011,orientation adjustment blockN,2021.2.3,Win32,61.65228113,,,,,,,
,,,,,,,,,,,,,,,,,21.66666667,-54,20,75,-144.3333333,89.66666667,89.66666667,0.399074141,-0.308333432,1,0,0,1.9621,submitButton,19.41269841,0.01296301,-0.024074101,0,0,0,2,13,133,38,1,54,68998,N,180,2022-02-24_16h43.38.011,orientation adjustment blockN,2021.2.3,Win32,61.65228113,,,,,,,
,,,,,,,,,,,,,,,,,-59.44444444,-57,20,75,-232.4444444,4.555555556,4.555555556,0.432407589,-0.285185283,1,0,0,1.8284,submitButton,19.28888889,0.305555731,-0.404629733,1,0,0,2,14,134,41,1,57,68998,N,180,2022-02-24_16h43.38.011,orientation adjustment blockN,2021.2.3,Win32,61.65228113,continueButton,,,,,,
,,,,,,,,,,,,,,,,,35,-60,20,75,-30,30,30,0.20925943,-0.30185195,1,0,0,2.7466,submitButton,19.37741047,0.072222385,-0.38148164,0,0,0,2,15,135,44,1,60,68998,N,180,2022-02-24_16h43.38.011,orientation adjustment blockN,2021.2.3,Win32,61.65228113,,,,,,,
,,,,,,,,,,,,,,,,,47.77777778,-73,20,75,-56.22222222,16.77777778,16.77777778,0.388889069,-0.296296394,1,0,0,0.083,submitButton,19.356102,-0.185185148,-0.420370475,0,0,0,2,16,136,57,1,73,68998,N,180,2022-02-24_16h43.38.011,orientation adjustment blockN,2021.2.3,Win32,61.65228113,,,,,,,
,,,,,,,,,,,,,,,,,59.44444444,-32,20,75,-31.55555556,0.444444444,0.444444444,0.442592662,-0.287037078,1,0,0,0.0954,submitButton,19.20234869,-0.290740653,-0.401851899,0,0,0,2,17,137,16,1,32,68998,N,180,2022-02-24_16h43.38.011,orientation adjustment blockN,2021.2.3,Win32,61.65228113,,,,,,,
,,,,,,,,,,,,,,,,,-51.11111111,-34,20,75,-219.1111111,5.111111111,5.111111111,0.391666846,-0.282407505,1,0,0,0.3667,submitButton,19.08870968,0.157407462,-0.291666764,0,0,0,2,18,138,18,1,34,68998,N,180,2022-02-24_16h43.38.011,orientation adjustment blockN,2021.2.3,Win32,61.65228113,,,,,,,
,,,,,,,,,,,,,,,,,20,-66,20,75,-60,6,6,0.405555736,-0.287963061,1,0,0,0.195,submitButton,18.984,-0.130555459,-0.396296456,0,0,0,2,19,139,50,1,66,68998,N,180,2022-02-24_16h43.38.011,orientation adjustment blockN,2021.2.3,Win32,61.65228113,,,,,,,
,,,,,,,,,,,,,,,,,61.66666667,75,20,75,60.66666667,14.33333333,14.33333333,0.413888957,-0.310185284,1,0,0,1.3613,submitButton,18.94708995,0.086111275,-0.15092596,0,0,0,2,20,140,59,1,75,68998,N,180,2022-02-24_16h43.38.011,orientation adjustment blockN,2021.2.3,Win32,61.65228113,,,,,,,
,,,,,,,,,,,,,,,,,72.77777778,62,20,75,47.77777778,14.22222222,14.22222222,0.381481661,-0.283333374,1,0,0,1.1616,submitButton,18.90988626,-0.149073979,-0.115740829,0,0,0,2,21,141,46,1,62,68998,N,180,2022-02-24_16h43.38.011,orientation adjustment blockN,2021.2.3,Win32,61.65228113,,,,,,,
,,,,,,,,,,,,,,,,,-53.33333333,-33,20,75,-48.33333333,15.33333333,15.33333333,0.159259314,-0.272222319,1,0,0,0.2287,submitButton,18.88194444,-0.254629597,-0.348148249,0,0,0,2,22,142,17,1,33,68998,N,180,2022-02-24_16h43.38.011,orientation adjustment blockN,2021.2.3,Win32,61.65228113,,,,,,,
,,,,,,,,,,,,,,,,,49.44444444,70,20,75,54.44444444,15.55555556,15.55555556,0.412037218,-0.29259269,1,0,0,0.7288,submitButton,18.85615848,-0.157407369,-0.423148309,0,0,0,2,23,143,54,1,70,68998,N,180,2022-02-24_16h43.38.011,orientation adjustment blockN,2021.2.3,Win32,61.65228113,,,,,,,
,,,,,,,,,,,,,,,,,52.77777778,-36,20,75,146.7777778,2.777777778,2.777777778,0.188889058,-0.30648158,1,0,0,2.1952,submitButton,18.73247863,0.137963017,-0.112037125,0,0,0,2,24,144,20,1,36,68998,N,180,2022-02-24_16h43.38.011,orientation adjustment blockN,2021.2.3,Win32,61.65228113,,,,,,,
,,,,,,,,,,,,,,,,,23.33333333,-40,20,75,-29.66666667,10.33333333,10.33333333,0.422222291,-0.265740837,1,0,0,0.3217,submitButton,18.66836302,-0.249073984,-0.418518623,0,0,0,2,25,145,24,1,40,68998,N,180,2022-02-24_16h43.38.011,orientation adjustment blockN,2021.2.3,Win32,61.65228113,,,,,,,
,,,,,,,,,,,,,,,,,62.77777778,18,20,75,47.77777778,29.77777778,29.77777778,-0.242592502,-0.406481585,1,0,0,1.1162,submitButton,18.75252525,-0.242592502,-0.406481585,0,0,0,2,26,146,2,1,18,68998,N,180,2022-02-24_16h43.38.011,orientation adjustment blockN,2021.2.3,Win32,61.65228113,,,,,,,
,,,,,,,,,,,,,,,,,-69.44444444,-21,20,75,-221.4444444,20.44444444,20.44444444,0.382407587,-0.322222322,1,0,0,2.149,submitButton,18.76524645,-0.163888795,-0.399074177,0,0,0,2,27,147,5,1,21,68998,N,180,2022-02-24_16h43.38.011,orientation adjustment blockN,2021.2.3,Win32,61.65228113,,,,,,,
,,,,,,,,,,,,,,,,,75,74,20,75,52,22,22,-0.153703665,-0.39166677,1,0,0,2.0485,submitButton,18.7893864,0.416666848,-0.199074167,0,0,0,2,28,148,58,1,74,68998,N,180,2022-02-24_16h43.38.011,orientation adjustment blockN,2021.2.3,Win32,61.65228113,,,,,,,
,,,,,,,,,,,,,,,,,57.22222222,-35,20,75,-27.77777778,7.222222222,7.222222222,-0.268518486,-0.426851957,1,0,0,1.3821,submitButton,18.7037037,-0.268518486,-0.426851957,0,0,0,2,29,149,19,1,35,68998,N,180,2022-02-24_16h43.38.011,orientation adjustment blockN,2021.2.3,Win32,61.65228113,,,,,,,
,,,,,,,,,,,,,,,,,45,43,20,75,51,8,8,0.411111405,-0.296296394,1,0,0,0.0332,submitButton,18.625,-0.092592495,-0.336111211,0,0,0,2,30,150,27,1,43,68998,N,180,2022-02-24_16h43.38.011,orientation adjustment blockN,2021.2.3,Win32,61.65228113,,,,,,,
,,,,,,,,,,,,,,,,,35,68,20,75,46,22,22,0.419444626,-0.285185283,1,0,0,0.7884,submitButton,18.64963504,-0.167592555,-0.394444491,0,0,0,2,31,151,52,1,68,68998,N,180,2022-02-24_16h43.38.011,orientation adjustment blockN,2021.2.3,Win32,61.65228113,,,,,,,
,,,,,,,,,,,,,,,,,39.44444444,-64,20,75,-135.5555556,71.55555556,71.55555556,-0.214814723,-0.402777825,1,0,0,3.1317,submitButton,19.03301127,-0.214814723,-0.402777825,0,0,0,2,32,152,48,1,64,68998,N,180,2022-02-24_16h43.38.011,orientation adjustment blockN,2021.2.3,Win32,61.65228113,,,,,,,
,,,,,,,,,,,,,,,,,40.55555556,65,20,75,61.55555556,3.444444444,3.444444444,-0.187962813,-0.418518623,1,0,0,1.2814,submitButton,18.92086331,-0.187962813,-0.418518623,0,0,0,2,33,153,49,1,65,68998,N,180,2022-02-24_16h43.38.011,orientation adjustment blockN,2021.2.3,Win32,61.65228113,,,,,,,
,,,,,,,,,,,,,,,,,-27.77777778,-48,20,75,-132.7777778,84.77777778,84.77777778,-0.130555459,-0.396296456,1,0,0,1.3487,submitButton,19.39126984,0.059259309,-0.124074107,0,0,0,2,34,154,32,1,48,68998,N,180,2022-02-24_16h43.38.011,orientation adjustment blockN,2021.2.3,Win32,61.65228113,,,,,,,
,,,,,,,,,,,,,,,,,-63.88888889,22,20,75,-154.8888889,3.111111111,3.111111111,0.424074256,-0.286111209,1,0,0,1.3663,submitButton,19.27580772,0.166666835,-0.251851948,0,0,0,2,35,155,6,1,22,68998,N,180,2022-02-24_16h43.38.011,orientation adjustment blockN,2021.2.3,Win32,61.65228113,,,,,,,
,,,,,,,,,,,,,,,,,53.88888889,-26,20,75,-38.11111111,12.11111111,12.11111111,-0.226851817,-0.384259362,1,0,0,1.715,submitButton,19.22535211,0.024074178,-0.275925966,0,0,0,2,36,156,10,1,26,68998,N,180,2022-02-24_16h43.38.011,orientation adjustment blockN,2021.2.3,Win32,61.65228113,,,,,,,
,,,,,,,,,,,,,,,,,63.33333333,-47,20,75,-31.66666667,15.33333333,15.33333333,0.400000067,-0.294444542,1,0,0,0.551,submitButton,19.1981352,0.375000179,-0.174074166,0,0,0,2,37,157,31,1,47,68998,N,180,2022-02-24_16h43.38.011,orientation adjustment blockN,2021.2.3,Win32,61.65228113,,,,,,,
,,,,,,,,,,,,,,,,,48.88888889,-63,20,75,-41.11111111,21.88888889,21.88888889,-0.144444349,-0.393518622,1,0,0,0.7483,submitButton,19.21682099,-0.144444349,-0.393518622,0,0,0,2,38,158,47,1,63,68998,N,180,2022-02-24_16h43.38.011,orientation adjustment blockN,2021.2.3,Win32,61.65228113,,,,,,,
,,,,,,,,,,,,,,,,,55,58,20,75,150,88,88,0.21296302,-0.305555654,1,0,0,0.0659,submitButton,19.69118774,-0.221296205,-0.396296456,0,0,0,2,39,159,42,1,58,68998,N,180,2022-02-24_16h43.38.011,orientation adjustment blockN,2021.2.3,Win32,61.65228113,,,,,,,
,,,,,,,,,,,,,,,,,-73.88888889,-49,20,75,-220.8888889,8.111111111,8.111111111,-0.149073979,-0.401851899,1,0,0,2.5144,submitButton,19.61187215,-0.149073979,-0.401851899,0,0,0,2,40,160,33,1,49,68998,N,180,2022-02-24_16h43.38.011,orientation adjustment blockN,2021.2.3,Win32,61.65228113,,,,,,,
,,,,,,,,,,,,,,,,,65.55555556,-16,20,75,-38.44444444,22.44444444,22.44444444,-0.123148052,-0.413889106,1,0,0,2.9654,submitButton,19.63114135,0.258333506,-0.234259298,0,0,0,2,41,161,0,1,16,68998,N,180,2022-02-24_16h43.38.011,orientation adjustment blockN,2021.2.3,Win32,61.65228113,,,,,,,
,,,,,,,,,,,,,,,,,-61.11111111,44,20,75,33.88888889,10.11111111,10.11111111,0.220370428,-0.290740838,1,0,0,0.3318,submitButton,19.56681682,0.346296587,-0.235185224,0,0,0,2,42,162,28,1,44,68998,N,180,2022-02-24_16h43.38.011,orientation adjustment blockN,2021.2.3,Win32,61.65228113,,,,,,,
,,,,,,,,,,,,,,,,,73.33333333,-27,20,75,27.33333333,54.33333333,54.33333333,-0.135185089,-0.396296456,1,0,0,1.0328,submitButton,19.80014914,-0.135185089,-0.396296456,0,0,0,2,43,163,11,1,27,68998,N,180,2022-02-24_16h43.38.011,orientation adjustment blockN,2021.2.3,Win32,61.65228113,,,,,,,
,,,,,,,,,,,,,,,,,22.22222222,-69,20,75,-56.77777778,12.22222222,12.22222222,0.268518579,-0.29259269,1,0,0,0.6157,submitButton,19.74962963,-0.118518365,-0.413889106,0,0,0,2,44,164,53,1,69,68998,N,180,2022-02-24_16h43.38.011,orientation adjustment blockN,2021.2.3,Win32,61.65228113,,,,,,,
,,,,,,,,,,,,,,,,,-28.33333333,-28,20,75,-34.33333333,6.333333333,6.333333333,-0.152777683,-0.417592753,1,0,0,0.7822,submitButton,19.66077999,-0.152777683,-0.417592753,0,0,0,2,45,165,12,1,28,68998,N,180,2022-02-24_16h43.38.011,orientation adjustment blockN,2021.2.3,Win32,61.65228113,,,,,,,
,,,,,,,,,,,,,,,,,44.44444444,-23,20,75,-28.55555556,5.555555556,5.555555556,-0.157407369,-0.393518622,1,0,0,1.4489,submitButton,19.56798246,-0.157407369,-0.393518622,0,0,0,2,46,166,7,1,23,68998,N,180,2022-02-24_16h43.38.011,orientation adjustment blockN,2021.2.3,Win32,61.65228113,,,,,,,
,,,,,,,,,,,,,,,,,-63.33333333,-71,20,75,-250.3333333,0.666666667,0.666666667,0.385185252,-0.296296394,1,0,0,1.7477,submitButton,19.44444444,-0.150925831,-0.36851862,0,0,0,2,47,167,55,1,71,68998,N,180,2022-02-24_16h43.38.011,orientation adjustment blockN,2021.2.3,Win32,61.65228113,,,,,,,
,,,,,,,,,,,,,,,,,30.55555556,72,20,75,60.55555556,11.44444444,11.44444444,-0.202777742,-0.400925973,1,0,0,1.3322,submitButton,19.39249639,-0.202777742,-0.400925973,0,0,0,2,48,168,56,1,72,68998,N,180,2022-02-24_16h43.38.011,orientation adjustment blockN,2021.2.3,Win32,61.65228113,,,,,,,
,,,,,,,,,,,,,,,,,-51.66666667,50,20,75,-142.6666667,12.66666667,12.66666667,-0.241666576,-0.393518622,1,0,0,3.1994,submitButton,19.34910394,-0.241666576,-0.393518622,0,0,0,2,49,169,34,1,50,68998,N,180,2022-02-24_16h43.38.011,orientation adjustment blockN,2021.2.3,Win32,61.65228113,,,,,,,
,,,,,,,,,,,,,,,,,42.22222222,-45,20,75,-30.77777778,14.22222222,14.22222222,-0.203703611,-0.375000102,1,0,0,0.6828,submitButton,19.31623932,-0.094444346,-0.383333436,0,0,0,2,50,170,29,1,45,68998,N,180,2022-02-24_16h43.38.011,orientation adjustment blockN,2021.2.3,Win32,61.65228113,,,,,,,
,,,,,,,,,,,,,,,,,39.44444444,31,20,75,228.4444444,17.44444444,17.44444444,0.217592763,-0.325926082,1,0,0,3.0827,submitButton,19.30431706,-0.179629536,-0.400000216,0,0,0,2,51,171,15,1,31,68998,N,180,2022-02-24_16h43.38.011,orientation adjustment blockN,2021.2.3,Win32,61.65228113,,,,,,,
,,,,,,,,,,,,,,,,,62.22222222,17,20,75,26.22222222,9.222222222,9.222222222,0.398148328,-0.30648158,1,0,0,1.0326,submitButton,19.24050633,-0.173148054,-0.383333436,0,0,0,2,52,172,1,1,17,68998,N,180,2022-02-24_16h43.38.011,orientation adjustment blockN,2021.2.3,Win32,61.65228113,,,,,,,
,,,,,,,,,,,,,,,,,-23.33333333,42,20,75,32.66666667,9.333333333,9.333333333,0.194444614,-0.334259359,1,0,0,0.2177,submitButton,19.17819706,0.128703757,-0.175925961,0,0,0,2,53,173,26,1,42,68998,N,180,2022-02-24_16h43.38.011,orientation adjustment blockN,2021.2.3,Win32,61.65228113,,,,,,,
,,,,,,,,,,,,,,,,,37.22222222,-30,20,75,-29.77777778,0.222222222,0.222222222,0.197222392,-0.291666764,1,0,0,1.2816,submitButton,19.05972222,0.098148313,-0.373148194,0,0,0,2,54,174,14,1,30,68998,N,180,2022-02-24_16h43.38.011,orientation adjustment blockN,2021.2.3,Win32,61.65228113,,,,,,,
,,,,,,,,,,,,,,,,,-31.11111111,24,20,75,22.88888889,1.111111111,1.111111111,0.420370552,-0.305555654,1,0,0,0.0326,submitButton,18.94824017,-0.097222124,-0.408333381,0,0,0,2,55,175,8,1,24,68998,N,180,2022-02-24_16h43.38.011,orientation adjustment blockN,2021.2.3,Win32,61.65228113,,,,,,,
,,,,,,,,,,,,,,,,,-69.44444444,-61,20,75,-233.4444444,7.555555556,7.555555556,-0.150925831,-0.40925942,1,0,0,2.0984,submitButton,18.87791495,-0.108333236,-0.250000096,0,0,0,2,56,176,45,1,61,68998,N,180,2022-02-24_16h43.38.011,orientation adjustment blockN,2021.2.3,Win32,61.65228113,,,,,,,
,,,,,,,,,,,,,,,,,33.33333333,-38,20,75,-36.66666667,1.333333333,1.333333333,-0.153703665,-0.404629733,1,0,0,1.0158,submitButton,18.77027948,0.330555619,-0.139814905,0,0,0,2,57,177,22,1,38,68998,N,180,2022-02-24_16h43.38.011,orientation adjustment blockN,2021.2.3,Win32,61.65228113,,,,,,,
,,,,,,,,,,,,,,,,,42.77777778,-55,20,75,-47.22222222,7.777777778,7.777777778,-0.133333294,-0.404629733,1,0,0,0.9151,submitButton,18.70325203,0.035185346,-0.151851886,0,0,0,2,58,178,39,1,55,68998,N,180,2022-02-24_16h43.38.011,orientation adjustment blockN,2021.2.3,Win32,61.65228113,,,,,,,
,,,,,,,,,,,,,,,,,-62.22222222,37,20,75,-151.2222222,8.222222222,8.222222222,0.417592774,-0.30185195,1,0,0,1.5491,submitButton,18.63973064,-0.153703665,-0.400925973,0,0,0,2,59,179,21,1,37,68998,N,180,2022-02-24_16h43.38.011,orientation adjustment blockN,2021.2.3,Win32,61.65228113,,,,,,,
,,,,,,,,,,,,,,,,,,,,,,,,,,,,,,,,,,,,,,,,,,,68998,N,180,2022-02-24_16h43.38.011,orientation adjustment blockN,2021.2.3,Win32,61.65228113,,0.357407472,-0.408333381,1,0,0,EndButtonTxt
