consentMouse1.x,consentMouse1.y,consentMouse1.leftButton,consentMouse1.midButton,consentMouse1.rightButton,consentMouse1.clicked_name,consent_Mouse.x,consent_Mouse.y,consent_Mouse.leftButton,consent_Mouse.midButton,consent_Mouse.rightButton,consent_Mouse.clicked_name,startMouse.x,startMouse.y,startMouse.leftButton,startMouse.midButton,startMouse.rightButton,start_distance,fixedOri,minimalDistance,maxOri,this_ori,accuracy,presented_accuracy,submitMouse.x,submitMouse.y,submitMouse.leftButton,submitMouse.midButton,submitMouse.rightButton,submitMouse.time,submitMouse.clicked_name,block_accuracy,continueMouse.x,continueMouse.y,continueMouse.leftButton,continueMouse.midButton,continueMouse.rightButton,trials.thisRepN,trials.thisTrialN,trials.thisN,trials.thisIndex,trials.ran,startOri,participant,condition,nTrials,date,expName,psychopyVersion,OS,frameRate,continueMouse.clicked_name,EndButtonMouse.x,EndButtonMouse.y,EndButtonMouse.leftButton,EndButtonMouse.midButton,EndButtonMouse.rightButton,EndButtonMouse.clicked_name
0.362578125,-0.403663194,1,0,0,consent_button1,0.392513021,-0.404618056,1,0,0,consent_button,0.3084375,-0.366284722,1,0,0,-36.66666667,-55,20,75,-85.66666667,30.66666667,30.66666667,0.199804687,-0.308832465,1,0,0,1.9304,submitButton,30.66666667,-0.520898437,-0.407556424,0,0,0,0,0,0,39,1,55,69190,N,180,2022-02-15_20h46.32.762,orientation adjustment blockN,2021.2.3,MacIntel,59.99880002,,,,,,,
,,,,,,,,,,,,,,,,,-48.88888889,-40,20,75,-55.88888889,15.88888889,15.88888889,0.368919271,-0.294852431,1,0,0,0.7162,submitButton,23.27777778,-0.602573785,-0.387673611,0,0,0,0,1,1,24,1,40,69190,N,180,2022-02-15_20h46.32.762,orientation adjustment blockN,2021.2.3,MacIntel,59.99880002,,,,,,,
,,,,,,,,,,,,,,,,,-50.55555556,-60,20,75,-56.55555556,3.444444444,3.444444444,0.380985243,-0.312296007,1,0,0,0.5851,submitButton,16.66666667,0.090494792,-0.37687066,0,0,0,0,2,2,44,1,60,69190,N,180,2022-02-15_20h46.32.762,orientation adjustment blockN,2021.2.3,MacIntel,59.99880002,,,,,,,
,,,,,,,,,,,,,,,,,-27.77777778,27,20,75,28.22222222,1.222222222,1.222222222,0.189739583,-0.293841146,1,0,0,0.3669,submitButton,1.222222222,0.157352431,-0.287890625,0,0,0,0,3,3,11,1,27,69190,N,180,2022-02-15_20h46.32.762,orientation adjustment blockN,2021.2.3,MacIntel,59.99880002,,,,,,,
,,,,,,,,,,,,,,,,,-20.55555556,-49,20,75,-46.55555556,2.444444444,2.444444444,0.194435764,-0.289249132,1,0,0,0.0161,submitButton,1.833333333,-0.579036458,-0.413146701,0,0,0,0,4,4,33,1,49,69190,N,180,2022-02-15_20h46.32.762,orientation adjustment blockN,2021.2.3,MacIntel,59.99880002,,,,,,,
,,,,,,,,,,,,,,,,,-37.22222222,23,20,75,14.77777778,8.222222222,8.222222222,0.173802083,-0.278615451,1,0,0,0.016,submitButton,3.962962963,0.188519965,-0.289726563,0,0,0,0,5,5,7,1,23,69190,N,180,2022-02-15_20h46.32.762,orientation adjustment blockN,2021.2.3,MacIntel,59.99880002,,,,,,,
,,,,,,,,,,,,,,,,,50.55555556,30,20,75,201.5555556,8.444444444,8.444444444,0.188259549,-0.286996528,1,0,0,0.484,submitButton,8.444444444,0.186336806,-0.29171441,0,0,0,0,6,6,14,1,30,69190,N,180,2022-02-15_20h46.32.762,orientation adjustment blockN,2021.2.3,MacIntel,59.99880002,,,,,,,
,,,,,,,,,,,,,,,,,45,-75,20,75,106,1,1,0.186336806,-0.29171441,1,0,0,2.099,submitButton,4.722222222,0.17578125,-0.292530382,0,0,0,0,7,7,59,1,75,69190,N,180,2022-02-15_20h46.32.762,orientation adjustment blockN,2021.2.3,MacIntel,59.99880002,,,,,,,
,,,,,,,,,,,,,,,,,60.55555556,34,20,75,214.5555556,0.555555556,0.555555556,-0.472326389,-0.437265625,1,0,0,2.4993,submitButton,3.333333333,0.226519097,-0.278962674,0,0,0,0,8,8,18,1,34,69190,N,180,2022-02-15_20h46.32.762,orientation adjustment blockN,2021.2.3,MacIntel,59.99880002,,,,,,,
,,,,,,,,,,,,,,,,,-47.77777778,-44,20,75,-50.77777778,6.777777778,6.777777778,-0.500863715,-0.404887153,1,0,0,1.5166,submitButton,6.777777778,0.21671875,-0.343880208,0,0,0,0,9,9,28,1,44,69190,N,180,2022-02-15_20h46.32.762,orientation adjustment blockN,2021.2.3,MacIntel,59.99880002,,,,,,,
,,,,,,,,,,,,,,,,,-66.66666667,63,20,75,40.33333333,22.66666667,22.66666667,-0.528802083,-0.401019965,1,0,0,1.0339,submitButton,14.72222222,0.180811632,-0.345477431,0,0,0,0,10,10,47,1,63,69190,N,180,2022-02-15_20h46.32.762,orientation adjustment blockN,2021.2.3,MacIntel,59.99880002,,,,,,,
,,,,,,,,,,,,,,,,,-24.44444444,42,20,75,31.55555556,10.44444444,10.44444444,0.382469618,-0.310299479,1,0,0,0.8493,submitButton,13.2962963,0.140481771,-0.286840278,0,0,0,0,11,11,26,1,42,69190,N,180,2022-02-15_20h46.32.762,orientation adjustment blockN,2021.2.3,MacIntel,59.99880002,,,,,,,
,,,,,,,,,,,,,,,,,-32.22222222,-58,20,75,-60.22222222,2.222222222,2.222222222,0.190533854,-0.296523437,1,0,0,0.3831,submitButton,2.222222222,-0.507569444,-0.421380208,0,0,0,0,12,12,42,1,58,69190,N,180,2022-02-15_20h46.32.762,orientation adjustment blockN,2021.2.3,MacIntel,59.99880002,,,,,,,
,,,,,,,,,,,,,,,,,-38.33333333,45,20,75,30.66666667,14.33333333,14.33333333,-0.553368056,-0.428094618,1,0,0,1.1829,submitButton,8.277777778,0.190078125,-0.211848958,0,0,0,0,13,13,29,1,45,69190,N,180,2022-02-15_20h46.32.762,orientation adjustment blockN,2021.2.3,MacIntel,59.99880002,,,,,,,
,,,,,,,,,,,,,,,,,31.11111111,-47,20,75,-38.88888889,8.111111111,8.111111111,-0.530690104,-0.412122396,1,0,0,1.1495,submitButton,8.222222222,0.338489583,-0.396727431,1,0,0,0,14,14,31,1,47,69190,N,180,2022-02-15_20h46.32.762,orientation adjustment blockN,2021.2.3,MacIntel,59.99880002,continueButton,,,,,,
,,,,,,,,,,,,,,,,,20.55555556,17,20,75,17.55555556,0.555555556,0.555555556,0.396458333,-0.273498264,1,0,0,0.2172,submitButton,0.555555556,0.401150174,-0.299587674,0,0,0,0,15,15,1,1,17,69190,N,180,2022-02-15_20h46.32.762,orientation adjustment blockN,2021.2.3,MacIntel,59.99880002,,,,,,,
,,,,,,,,,,,,,,,,,44.44444444,-67,20,75,-70.55555556,3.555555556,3.555555556,0.405008681,-0.317278646,1,0,0,0.4171,submitButton,2.055555556,0.376909722,-0.418311632,0,0,0,0,16,16,51,1,67,69190,N,180,2022-02-15_20h46.32.762,orientation adjustment blockN,2021.2.3,MacIntel,59.99880002,,,,,,,
,,,,,,,,,,,,,,,,,-29.44444444,57,20,75,47.55555556,9.444444444,9.444444444,0.207469618,-0.297269965,1,0,0,0.1846,submitButton,4.518518519,0.182022569,-0.344548611,0,0,0,0,17,17,41,1,57,69190,N,180,2022-02-15_20h46.32.762,orientation adjustment blockN,2021.2.3,MacIntel,59.99880002,,,,,,,
,,,,,,,,,,,,,,,,,-69.44444444,28,20,75,21.55555556,6.444444444,6.444444444,0.239014757,-0.29141059,1,0,0,1.1499,submitButton,5,0.147013889,-0.307803819,0,0,0,0,18,18,12,1,28,69190,N,180,2022-02-15_20h46.32.762,orientation adjustment blockN,2021.2.3,MacIntel,59.99880002,,,,,,,
,,,,,,,,,,,,,,,,,-67.77777778,-26,20,75,-211.7777778,5.777777778,5.777777778,0.400668403,-0.291601563,1,0,0,0.4828,submitButton,5.155555556,0.207417535,-0.328953993,0,0,0,0,19,19,10,1,26,69190,N,180,2022-02-15_20h46.32.762,orientation adjustment blockN,2021.2.3,MacIntel,59.99880002,,,,,,,
,,,,,,,,,,,,,,,,,36.66666667,-53,20,75,-34.33333333,18.66666667,18.66666667,0.182955729,-0.31046441,1,0,0,0.933,submitButton,7.407407407,0.320243056,-0.266644965,0,0,0,0,20,20,37,1,53,69190,N,180,2022-02-15_20h46.32.762,orientation adjustment blockN,2021.2.3,MacIntel,59.99880002,,,,,,,
,,,,,,,,,,,,,,,,,-61.11111111,21,20,75,28.88888889,7.888888889,7.888888889,0.239444444,-0.308077257,1,0,0,1.1166,submitButton,7.476190476,0.211011285,-0.292105035,0,0,0,0,21,21,5,1,21,69190,N,180,2022-02-15_20h46.32.762,orientation adjustment blockN,2021.2.3,MacIntel,59.99880002,,,,,,,
,,,,,,,,,,,,,,,,,65,-59,20,75,-51,8,8,-0.544596354,-0.407929688,1,0,0,2.1011,submitButton,7.541666667,0.139513889,-0.328819444,0,0,0,0,22,22,43,1,59,69190,N,180,2022-02-15_20h46.32.762,orientation adjustment blockN,2021.2.3,MacIntel,59.99880002,,,,,,,
,,,,,,,,,,,,,,,,,-74.44444444,38,20,75,35.55555556,2.444444444,2.444444444,0.226679688,-0.29359809,1,0,0,0.6669,submitButton,6.975308642,0.046992187,-0.355065104,0,0,0,0,23,23,22,1,38,69190,N,180,2022-02-15_20h46.32.762,orientation adjustment blockN,2021.2.3,MacIntel,59.99880002,,,,,,,
,,,,,,,,,,,,,,,,,-67.77777778,-39,20,75,-211.7777778,7.222222222,7.222222222,0.365946181,-0.30609809,1,0,0,1.6989,submitButton,7,-0.526280382,-0.397300347,0,0,0,0,24,24,23,1,39,69190,N,180,2022-02-15_20h46.32.762,orientation adjustment blockN,2021.2.3,MacIntel,59.99880002,,,,,,,
,,,,,,,,,,,,,,,,,-30.55555556,-24,20,75,-29.55555556,5.555555556,5.555555556,0.159240451,-0.329231771,1,0,0,0.0333,submitButton,6.868686869,-0.540811632,-0.411419271,0,0,0,0,25,25,8,1,24,69190,N,180,2022-02-15_20h46.32.762,orientation adjustment blockN,2021.2.3,MacIntel,59.99880002,,,,,,,
,,,,,,,,,,,,,,,,,26.66666667,71,20,75,67.66666667,3.333333333,3.333333333,0.182100694,-0.304257813,1,0,0,1.066,submitButton,6.574074074,0.24593316,-0.316614583,0,0,0,0,26,26,55,1,71,69190,N,180,2022-02-15_20h46.32.762,orientation adjustment blockN,2021.2.3,MacIntel,59.99880002,,,,,,,
,,,,,,,,,,,,,,,,,-38.88888889,36,20,75,38.11111111,2.111111111,2.111111111,-0.472039931,-0.400811632,1,0,0,1.0173,submitButton,6.230769231,-0.029518229,-0.392144097,0,0,0,0,27,27,20,1,36,69190,N,180,2022-02-15_20h46.32.762,orientation adjustment blockN,2021.2.3,MacIntel,59.99880002,,,,,,,
,,,,,,,,,,,,,,,,,-33.33333333,19,20,75,17.66666667,1.333333333,1.333333333,-0.323407118,-0.397565104,1,0,0,1.667,submitButton,5.880952381,0.252335069,-0.320863715,0,0,0,0,28,28,3,1,19,69190,N,180,2022-02-15_20h46.32.762,orientation adjustment blockN,2021.2.3,MacIntel,59.99880002,,,,,,,
,,,,,,,,,,,,,,,,,-41.66666667,68,20,75,67.33333333,0.666666667,0.666666667,-0.405729167,-0.406050347,1,0,0,1.317,submitButton,5.533333333,0.263085937,-0.397565104,1,0,0,0,29,29,52,1,68,69190,N,180,2022-02-15_20h46.32.762,orientation adjustment blockN,2021.2.3,MacIntel,59.99880002,continueButton,,,,,,
,,,,,,,,,,,,,,,,,-40,-35,20,75,-58,23,23,0.188828125,-0.300238715,1,0,0,0.2832,submitButton,6.625,0.183172743,-0.28421875,0,0,0,0,30,30,19,1,35,69190,N,180,2022-02-15_20h46.32.762,orientation adjustment blockN,2021.2.3,MacIntel,59.99880002,,,,,,,
,,,,,,,,,,,,,,,,,-50.55555556,-29,20,75,-29.55555556,0.555555556,0.555555556,-0.143875868,-0.401423611,1,0,0,1.718,submitButton,6.267973856,0.209943576,-0.252382812,0,0,0,0,31,31,13,1,29,69190,N,180,2022-02-15_20h46.32.762,orientation adjustment blockN,2021.2.3,MacIntel,59.99880002,,,,,,,
,,,,,,,,,,,,,,,,,-26.66666667,48,20,75,57.33333333,9.333333333,9.333333333,-0.203459201,-0.383602431,1,0,0,0.6664,submitButton,6.438271605,0.244791667,-0.281866319,0,0,0,0,32,32,32,1,48,69190,N,180,2022-02-15_20h46.32.762,orientation adjustment blockN,2021.2.3,MacIntel,59.99880002,,,,,,,
,,,,,,,,,,,,,,,,,-67.22222222,51,20,75,45.77777778,5.222222222,5.222222222,-0.191054687,-0.383693576,1,0,0,1.3494,submitButton,6.374269006,0.223914931,-0.286124132,0,0,0,0,33,33,35,1,51,69190,N,180,2022-02-15_20h46.32.762,orientation adjustment blockN,2021.2.3,MacIntel,59.99880002,,,,,,,
,,,,,,,,,,,,,,,,,22.22222222,16,20,75,17.22222222,1.222222222,1.222222222,-0.1915625,-0.397443576,1,0,0,0.816,submitButton,6.116666667,0.24030816,-0.292686632,0,0,0,0,34,34,0,1,16,69190,N,180,2022-02-15_20h46.32.762,orientation adjustment blockN,2021.2.3,MacIntel,59.99880002,,,,,,,
,,,,,,,,,,,,,,,,,45,-52,20,75,-66,14,14,0.388585069,-0.280720486,1,0,0,0.3163,submitButton,6.492063492,0.216957465,-0.275876736,0,0,0,0,35,35,36,1,52,69190,N,180,2022-02-15_20h46.32.762,orientation adjustment blockN,2021.2.3,MacIntel,59.99880002,,,,,,,
,,,,,,,,,,,,,,,,,43.33333333,-37,20,75,-27.66666667,9.333333333,9.333333333,-0.228072917,-0.402439236,1,0,0,0.8994,submitButton,6.621212121,-0.072365451,-0.297552083,0,0,0,0,36,36,21,1,37,69190,N,180,2022-02-15_20h46.32.762,orientation adjustment blockN,2021.2.3,MacIntel,59.99880002,,,,,,,
,,,,,,,,,,,,,,,,,60.55555556,-56,20,75,-63.44444444,7.444444444,7.444444444,0.384457465,-0.315351563,1,0,0,0.9669,submitButton,6.657004831,0.252400174,-0.315902778,0,0,0,0,37,37,40,1,56,69190,N,180,2022-02-15_20h46.32.762,orientation adjustment blockN,2021.2.3,MacIntel,59.99880002,,,,,,,
,,,,,,,,,,,,,,,,,49.44444444,-18,20,75,-14.55555556,3.444444444,3.444444444,-0.227239583,-0.42000434,1,0,0,1.2164,submitButton,6.523148148,0.162903646,-0.297638889,0,0,0,0,38,38,2,1,18,69190,N,180,2022-02-15_20h46.32.762,orientation adjustment blockN,2021.2.3,MacIntel,59.99880002,,,,,,,
,,,,,,,,,,,,,,,,,48.88888889,33,20,75,217.8888889,4.888888889,4.888888889,-0.207309028,-0.400169271,1,0,0,2.717,submitButton,6.457777778,0.239361979,-0.303702257,0,0,0,0,39,39,17,1,33,69190,N,180,2022-02-15_20h46.32.762,orientation adjustment blockN,2021.2.3,MacIntel,59.99880002,,,,,,,
,,,,,,,,,,,,,,,,,-46.66666667,-50,20,75,-60.66666667,10.66666667,10.66666667,0.189162326,-0.296302083,1,0,0,0.2326,submitButton,6.61965812,-0.212938368,-0.381349826,0,0,0,0,40,40,34,1,50,69190,N,180,2022-02-15_20h46.32.762,orientation adjustment blockN,2021.2.3,MacIntel,59.99880002,,,,,,,
,,,,,,,,,,,,,,,,,21.66666667,-66,20,75,-67.33333333,1.333333333,1.333333333,0.382960069,-0.31203125,1,0,0,0.0491,submitButton,6.423868313,0.164470486,-0.322990451,0,0,0,0,41,41,50,1,66,69190,N,180,2022-02-15_20h46.32.762,orientation adjustment blockN,2021.2.3,MacIntel,59.99880002,,,,,,,
,,,,,,,,,,,,,,,,,-20.55555556,31,20,75,39.44444444,8.444444444,8.444444444,-0.145351563,-0.386080729,1,0,0,0.7832,submitButton,6.496031746,0.222682292,-0.309409722,0,0,0,0,42,42,15,1,31,69190,N,180,2022-02-15_20h46.32.762,orientation adjustment blockN,2021.2.3,MacIntel,59.99880002,,,,,,,
,,,,,,,,,,,,,,,,,-30,-73,20,75,-66,7,7,0.240486111,-0.301219618,1,0,0,0.3003,submitButton,6.513409962,0.226263021,-0.313832465,0,0,0,0,43,43,57,1,73,69190,N,180,2022-02-15_20h46.32.762,orientation adjustment blockN,2021.2.3,MacIntel,59.99880002,,,,,,,
,,,,,,,,,,,,,,,,,-73.88888889,-62,20,75,-71.88888889,9.888888889,9.888888889,0.206019965,-0.316414931,1,0,0,1.3004,submitButton,6.625925926,0.379227431,-0.408407118,1,0,0,0,44,44,46,1,62,69190,N,180,2022-02-15_20h46.32.762,orientation adjustment blockN,2021.2.3,MacIntel,59.99880002,continueButton,,,,,,
,,,,,,,,,,,,,,,,,-36.11111111,25,20,75,22.88888889,2.111111111,2.111111111,-0.197760417,-0.389973958,1,0,0,0.8674,submitButton,6.480286738,0.246675347,-0.301180556,0,0,0,0,45,45,9,1,25,69190,N,180,2022-02-15_20h46.32.762,orientation adjustment blockN,2021.2.3,MacIntel,59.99880002,,,,,,,
,,,,,,,,,,,,,,,,,-27.77777778,-64,20,75,-70.77777778,6.777777778,6.777777778,0.226306424,-0.333107639,1,0,0,0.3832,submitButton,6.489583333,-0.141749132,-0.41422309,0,0,0,0,46,46,48,1,64,69190,N,180,2022-02-15_20h46.32.762,orientation adjustment blockN,2021.2.3,MacIntel,59.99880002,,,,,,,
,,,,,,,,,,,,,,,,,-28.88888889,69,20,75,71.11111111,2.111111111,2.111111111,0.179270833,-0.32875434,1,0,0,0.2656,submitButton,6.356902357,-0.172834201,-0.383867187,0,0,0,0,47,47,53,1,69,69190,N,180,2022-02-15_20h46.32.762,orientation adjustment blockN,2021.2.3,MacIntel,59.99880002,,,,,,,
,,,,,,,,,,,,,,,,,47.22222222,-20,20,75,-26.77777778,6.777777778,6.777777778,0.364418403,-0.297322049,1,0,0,0.1333,submitButton,6.369281046,0.185373264,-0.316501736,0,0,0,0,48,48,4,1,20,69190,N,180,2022-02-15_20h46.32.762,orientation adjustment blockN,2021.2.3,MacIntel,59.99880002,,,,,,,
,,,,,,,,,,,,,,,,,-42.22222222,-54,20,75,-57.22222222,3.222222222,3.222222222,0.149162326,-0.291770833,1,0,0,0.2839,submitButton,6.279365079,-0.114097222,-0.382421875,0,0,0,0,49,49,38,1,54,69190,N,180,2022-02-15_20h46.32.762,orientation adjustment blockN,2021.2.3,MacIntel,59.99880002,,,,,,,
,,,,,,,,,,,,,,,,,-45.55555556,65,20,75,42.44444444,22.55555556,22.55555556,0.190915799,-0.309752604,1,0,0,0.2492,submitButton,6.731481481,-0.183346354,-0.402960069,0,0,0,0,50,50,49,1,65,69190,N,180,2022-02-15_20h46.32.762,orientation adjustment blockN,2021.2.3,MacIntel,59.99880002,,,,,,,
,,,,,,,,,,,,,,,,,73.88888889,-43,20,75,-36.11111111,6.888888889,6.888888889,-0.23203559,-0.424817708,1,0,0,1.5002,submitButton,6.735735736,-0.175351563,-0.39484809,0,0,0,0,51,51,27,1,43,69190,N,180,2022-02-15_20h46.32.762,orientation adjustment blockN,2021.2.3,MacIntel,59.99880002,,,,,,,
,,,,,,,,,,,,,,,,,75,61,20,75,222,19,19,-0.239678819,-0.413541667,1,0,0,1.6495,submitButton,7.058479532,0.261896701,-0.285260417,0,0,0,0,52,52,45,1,61,69190,N,180,2022-02-15_20h46.32.762,orientation adjustment blockN,2021.2.3,MacIntel,59.99880002,,,,,,,
,,,,,,,,,,,,,,,,,-26.66666667,-70,20,75,-72.66666667,2.666666667,2.666666667,0.206853299,-0.305720486,1,0,0,0.4176,submitButton,6.945868946,0.112148438,-0.320078125,0,0,0,0,53,53,54,1,70,69190,N,180,2022-02-15_20h46.32.762,orientation adjustment blockN,2021.2.3,MacIntel,59.99880002,,,,,,,
,,,,,,,,,,,,,,,,,-42.77777778,74,20,75,64.22222222,9.777777778,9.777777778,0.219800347,-0.304049479,1,0,0,0.217,submitButton,7.016666667,0.195980903,-0.311736111,0,0,0,0,54,54,58,1,74,69190,N,180,2022-02-15_20h46.32.762,orientation adjustment blockN,2021.2.3,MacIntel,59.99880002,,,,,,,
,,,,,,,,,,,,,,,,,-42.77777778,-32,20,75,-21.77777778,10.22222222,10.22222222,-0.133446181,-0.410972222,1,0,0,1.1007,submitButton,7.094850949,-0.132929688,-0.409639757,0,0,0,0,55,55,16,1,32,69190,N,180,2022-02-15_20h46.32.762,orientation adjustment blockN,2021.2.3,MacIntel,59.99880002,,,,,,,
,,,,,,,,,,,,,,,,,33.33333333,72,20,75,254.3333333,2.333333333,2.333333333,0.11141059,-0.325190972,1,0,0,2.2161,submitButton,6.981481481,-0.146527778,-0.387947049,0,0,0,0,56,56,56,1,72,69190,N,180,2022-02-15_20h46.32.762,orientation adjustment blockN,2021.2.3,MacIntel,59.99880002,,,,,,,
,,,,,,,,,,,,,,,,,-71.66666667,22,20,75,15.33333333,6.666666667,6.666666667,0.244960938,-0.321111111,1,0,0,0.383,submitButton,6.974160207,-0.180434028,-0.409804687,0,0,0,0,57,57,6,1,22,69190,N,180,2022-02-15_20h46.32.762,orientation adjustment blockN,2021.2.3,MacIntel,59.99880002,,,,,,,
,,,,,,,,,,,,,,,,,-57.77777778,-41,20,75,-46.77777778,5.777777778,5.777777778,0.230828993,-0.305477431,1,0,0,0.5495,submitButton,6.946969697,-0.180811632,-0.396901042,0,0,0,0,58,58,25,1,41,69190,N,180,2022-02-15_20h46.32.762,orientation adjustment blockN,2021.2.3,MacIntel,59.99880002,,,,,,,
,,,,,,,,,,,,,,,,,47.22222222,46,20,75,230.2222222,4.222222222,4.222222222,-0.223988715,-0.377664931,1,0,0,2.7156,submitButton,6.886419753,0.315013021,-0.412356771,1,0,0,0,59,59,30,1,46,69190,N,180,2022-02-15_20h46.32.762,orientation adjustment blockN,2021.2.3,MacIntel,59.99880002,continueButton,,,,,,
,,,,,,,,,,,,,,,,,63.33333333,-65,20,75,44.33333333,70.66666667,70.66666667,0.228776042,-0.312421875,1,0,0,2.2827,submitButton,8.27294686,-0.268424479,-0.411241319,0,0,0,1,0,60,49,1,65,69190,N,180,2022-02-15_20h46.32.762,orientation adjustment blockN,2021.2.3,MacIntel,59.99880002,,,,,,,
,,,,,,,,,,,,,,,,,-50.55555556,32,20,75,18.44444444,13.55555556,13.55555556,-0.236992188,-0.41265191,1,0,0,1.0333,submitButton,8.38534279,-0.236992188,-0.41265191,0,0,0,1,1,61,16,1,32,69190,N,180,2022-02-15_20h46.32.762,orientation adjustment blockN,2021.2.3,MacIntel,59.99880002,,,,,,,
,,,,,,,,,,,,,,,,,-56.11111111,-17,20,75,-26.11111111,9.111111111,9.111111111,0.119644097,-0.27905816,1,0,0,0.2001,submitButton,8.400462963,-0.103758681,-0.344743924,0,0,0,1,2,62,1,1,17,69190,N,180,2022-02-15_20h46.32.762,orientation adjustment blockN,2021.2.3,MacIntel,59.99880002,,,,,,,
,,,,,,,,,,,,,,,,,-21.66666667,33,20,75,39.33333333,6.333333333,6.333333333,-0.140724826,-0.397573785,1,0,0,1.0331,submitButton,8.358276644,-0.140724826,-0.397573785,0,0,0,1,3,63,17,1,33,69190,N,180,2022-02-15_20h46.32.762,orientation adjustment blockN,2021.2.3,MacIntel,59.99880002,,,,,,,
,,,,,,,,,,,,,,,,,51.66666667,47,20,75,164.6666667,62.33333333,62.33333333,0.214144965,-0.30593316,1,0,0,3.8833,submitButton,9.437777778,-0.276145833,-0.398758681,0,0,0,1,4,64,31,1,47,69190,N,180,2022-02-15_20h46.32.762,orientation adjustment blockN,2021.2.3,MacIntel,59.99880002,,,,,,,
,,,,,,,,,,,,,,,,,43.88888889,48,20,75,228.8888889,0.888888889,0.888888889,0.189027778,-0.312842882,1,0,0,2.2331,submitButton,9.270152505,-0.185646701,-0.401514757,0,0,0,1,5,65,32,1,48,69190,N,180,2022-02-15_20h46.32.762,orientation adjustment blockN,2021.2.3,MacIntel,59.99880002,,,,,,,
,,,,,,,,,,,,,,,,,-52.77777778,37,20,75,31.22222222,5.777777778,5.777777778,-0.183346354,-0.403164062,1,0,0,0.9828,submitButton,9.202991453,0.249513889,-0.302938368,0,0,0,1,6,66,21,1,37,69190,N,180,2022-02-15_20h46.32.762,orientation adjustment blockN,2021.2.3,MacIntel,59.99880002,,,,,,,
,,,,,,,,,,,,,,,,,-21.11111111,26,20,75,32.88888889,6.888888889,6.888888889,-0.123142361,-0.393346354,1,0,0,0.8166,submitButton,9.15932914,-0.123142361,-0.393346354,0,0,0,1,7,67,10,1,26,69190,N,180,2022-02-15_20h46.32.762,orientation adjustment blockN,2021.2.3,MacIntel,59.99880002,,,,,,,
,,,,,,,,,,,,,,,,,48.33333333,18,20,75,22.33333333,4.333333333,4.333333333,0.413372396,-0.29202691,1,0,0,0.0649,submitButton,9.069958848,-0.168185764,-0.395881076,0,0,0,1,8,68,2,1,18,69190,N,180,2022-02-15_20h46.32.762,orientation adjustment blockN,2021.2.3,MacIntel,59.99880002,,,,,,,
,,,,,,,,,,,,,,,,,64.44444444,-54,20,75,-47.55555556,6.444444444,6.444444444,-0.150568576,-0.413207465,1,0,0,1.6002,submitButton,9.022222222,-0.150568576,-0.413207465,0,0,0,1,9,69,38,1,54,69190,N,180,2022-02-15_20h46.32.762,orientation adjustment blockN,2021.2.3,MacIntel,59.99880002,,,,,,,
,,,,,,,,,,,,,,,,,67.77777778,59,20,75,241.7777778,2.777777778,2.777777778,-0.142456597,-0.413546007,1,0,0,2.2007,submitButton,8.910714286,0.123845486,-0.341922743,0,0,0,1,10,70,43,1,59,69190,N,180,2022-02-15_20h46.32.762,orientation adjustment blockN,2021.2.3,MacIntel,59.99880002,,,,,,,
,,,,,,,,,,,,,,,,,-33.88888889,-49,20,75,-44.88888889,4.111111111,4.111111111,0.228272569,-0.308815104,1,0,0,0.099,submitButton,8.826510721,0.208389757,-0.319140625,0,0,0,1,11,71,33,1,49,69190,N,180,2022-02-15_20h46.32.762,orientation adjustment blockN,2021.2.3,MacIntel,59.99880002,,,,,,,
,,,,,,,,,,,,,,,,,-28.33333333,-30,20,75,-24.33333333,5.666666667,5.666666667,-0.11703125,-0.399960938,1,0,0,2.5167,submitButton,8.772030651,-0.021970486,-0.317573785,0,0,0,1,12,72,14,1,30,69190,N,180,2022-02-15_20h46.32.762,orientation adjustment blockN,2021.2.3,MacIntel,59.99880002,,,,,,,
,,,,,,,,,,,,,,,,,-30.55555556,-73,20,75,-116.5555556,43.55555556,43.55555556,0.365143229,-0.297083333,1,0,0,0.3664,submitButton,9.361581921,-0.169552951,-0.393936632,0,0,0,1,13,73,57,1,73,69190,N,180,2022-02-15_20h46.32.762,orientation adjustment blockN,2021.2.3,MacIntel,59.99880002,,,,,,,
,,,,,,,,,,,,,,,,,63.33333333,-39,20,75,-26.66666667,12.33333333,12.33333333,0.374457465,-0.311545139,1,0,0,0.1673,submitButton,9.411111111,0.506671007,-0.404197049,1,0,0,1,14,74,23,1,39,69190,N,180,2022-02-15_20h46.32.762,orientation adjustment blockN,2021.2.3,MacIntel,59.99880002,continueButton,,,,,,
,,,,,,,,,,,,,,,,,-45.55555556,24,20,75,26.44444444,2.444444444,2.444444444,-0.213411458,-0.412990451,1,0,0,1.6491,submitButton,9.296903461,-0.213411458,-0.412990451,0,0,0,1,15,75,8,1,24,69190,N,180,2022-02-15_20h46.32.762,orientation adjustment blockN,2021.2.3,MacIntel,59.99880002,,,,,,,
,,,,,,,,,,,,,,,,,-25.55555556,42,20,75,39.44444444,2.555555556,2.555555556,-0.163515625,-0.378090278,1,0,0,0.6998,submitButton,9.188172043,-0.163515625,-0.378346354,0,0,0,1,16,76,26,1,42,69190,N,180,2022-02-15_20h46.32.762,orientation adjustment blockN,2021.2.3,MacIntel,59.99880002,,,,,,,
,,,,,,,,,,,,,,,,,53.33333333,64,20,75,252.3333333,8.333333333,8.333333333,-0.229878472,-0.407282986,1,0,0,3.0506,submitButton,9.174603175,-0.229878472,-0.407282986,0,0,0,1,17,77,48,1,64,69190,N,180,2022-02-15_20h46.32.762,orientation adjustment blockN,2021.2.3,MacIntel,59.99880002,,,,,,,
,,,,,,,,,,,,,,,,,37.77777778,-66,20,75,-57.22222222,8.777777778,8.777777778,-0.150724826,-0.40859809,1,0,0,1.8673,submitButton,9.168402778,-0.150724826,-0.40859809,0,0,0,1,18,78,50,1,66,69190,N,180,2022-02-15_20h46.32.762,orientation adjustment blockN,2021.2.3,MacIntel,59.99880002,,,,,,,
,,,,,,,,,,,,,,,,,-71.11111111,-36,20,75,-24.11111111,11.88888889,11.88888889,0.210299479,-0.323090278,1,0,0,1.1995,submitButton,9.21025641,-0.150108507,-0.399014757,0,0,0,1,19,79,20,1,36,69190,N,180,2022-02-15_20h46.32.762,orientation adjustment blockN,2021.2.3,MacIntel,59.99880002,,,,,,,
,,,,,,,,,,,,,,,,,-38.33333333,-28,20,75,-20.33333333,7.666666667,7.666666667,0.210989583,-0.306493056,1,0,0,0.9994,submitButton,9.186868687,-0.234453125,-0.414709201,0,0,0,1,20,80,12,1,28,69190,N,180,2022-02-15_20h46.32.762,orientation adjustment blockN,2021.2.3,MacIntel,59.99880002,,,,,,,
,,,,,,,,,,,,,,,,,-47.77777778,-25,20,75,-24.77777778,0.222222222,0.222222222,-0.151184896,-0.40375434,1,0,0,1.3836,submitButton,9.053067993,0.220490451,-0.320217014,0,0,0,1,21,81,9,1,25,69190,N,180,2022-02-15_20h46.32.762,orientation adjustment blockN,2021.2.3,MacIntel,59.99880002,,,,,,,
,,,,,,,,,,,,,,,,,-73.33333333,-71,20,75,-241.3333333,9.666666667,9.666666667,0.23516059,-0.290112847,1,0,0,2.0999,submitButton,9.062091503,-0.112369792,-0.386137153,0,0,0,1,22,82,55,1,71,69190,N,180,2022-02-15_20h46.32.762,orientation adjustment blockN,2021.2.3,MacIntel,59.99880002,,,,,,,
,,,,,,,,,,,,,,,,,55.55555556,23,20,75,211.5555556,8.555555556,8.555555556,-0.181293403,-0.38390625,1,0,0,2.3822,submitButton,9.054750403,-0.181293403,-0.38390625,0,0,0,1,23,83,7,1,23,69190,N,180,2022-02-15_20h46.32.762,orientation adjustment blockN,2021.2.3,MacIntel,59.99880002,,,,,,,
,,,,,,,,,,,,,,,,,74.44444444,70,20,75,255.4444444,5.444444444,5.444444444,0.183919271,-0.291302083,1,0,0,0.6659,submitButton,9.003174603,-0.132296007,-0.394904514,0,0,0,1,24,84,54,1,70,69190,N,180,2022-02-15_20h46.32.762,orientation adjustment blockN,2021.2.3,MacIntel,59.99880002,,,,,,,
,,,,,,,,,,,,,,,,,-22.77777778,16,20,75,26.22222222,10.22222222,10.22222222,-0.147065972,-0.404969618,1,0,0,1.3662,submitButton,9.020344288,-0.147065972,-0.404969618,0,0,0,1,25,85,0,1,16,69190,N,180,2022-02-15_20h46.32.762,orientation adjustment blockN,2021.2.3,MacIntel,59.99880002,,,,,,,
,,,,,,,,,,,,,,,,,68.88888889,-60,20,75,-51.11111111,8.888888889,8.888888889,-0.126197917,-0.393177083,1,0,0,1.3332,submitButton,9.018518519,-0.110273438,-0.379383681,0,0,0,1,26,86,44,1,60,69190,N,180,2022-02-15_20h46.32.762,orientation adjustment blockN,2021.2.3,MacIntel,59.99880002,,,,,,,
,,,,,,,,,,,,,,,,,-53.88888889,-29,20,75,-39.88888889,10.88888889,10.88888889,-0.126805556,-0.407204861,1,0,0,2.0176,submitButton,9.04414003,-0.126805556,-0.407204861,0,0,0,1,27,87,13,1,29,69190,N,180,2022-02-15_20h46.32.762,orientation adjustment blockN,2021.2.3,MacIntel,59.99880002,,,,,,,
,,,,,,,,,,,,,,,,,58.88888889,-74,20,75,-67.11111111,6.888888889,6.888888889,-0.231440972,-0.407200521,1,0,0,1.0842,submitButton,9.015015015,0.239674479,-0.329596354,0,0,0,1,28,88,58,1,74,69190,N,180,2022-02-15_20h46.32.762,orientation adjustment blockN,2021.2.3,MacIntel,59.99880002,,,,,,,
,,,,,,,,,,,,,,,,,32.77777778,-20,20,75,-20.22222222,0.222222222,0.222222222,-0.174565972,-0.387725694,1,0,0,1.5166,submitButton,8.897777778,0.386202257,-0.387560764,1,0,0,1,29,89,4,1,20,69190,N,180,2022-02-15_20h46.32.762,orientation adjustment blockN,2021.2.3,MacIntel,59.99880002,continueButton,,,,,,
,,,,,,,,,,,,,,,,,-71.11111111,63,20,75,56.88888889,6.111111111,6.111111111,-0.168454861,-0.401059028,1,0,0,1.0663,submitButton,8.861111111,-0.168454861,-0.401059028,0,0,0,1,30,90,47,1,63,69190,N,180,2022-02-15_20h46.32.762,orientation adjustment blockN,2021.2.3,MacIntel,59.99880002,,,,,,,
,,,,,,,,,,,,,,,,,30,69,20,75,253,4,4,0.23374566,-0.301801215,1,0,0,0.033,submitButton,8.797979798,-0.132291667,-0.410655382,0,0,0,1,31,91,53,1,69,69190,N,180,2022-02-15_20h46.32.762,orientation adjustment blockN,2021.2.3,MacIntel,59.99880002,,,,,,,
,,,,,,,,,,,,,,,,,-28.88888889,-46,20,75,-52.88888889,6.888888889,6.888888889,0.170481771,-0.331540799,1,0,0,0.1988,submitButton,8.773504274,-0.156484375,-0.383164063,0,0,0,1,32,92,30,1,46,69190,N,180,2022-02-15_20h46.32.762,orientation adjustment blockN,2021.2.3,MacIntel,59.99880002,,,,,,,
,,,,,,,,,,,,,,,,,41.11111111,-45,20,75,-32.88888889,12.11111111,12.11111111,-0.176835938,-0.392721354,1,0,0,0.9339,submitButton,8.815752461,-0.176835938,-0.392721354,0,0,0,1,33,93,29,1,45,69190,N,180,2022-02-15_20h46.32.762,orientation adjustment blockN,2021.2.3,MacIntel,59.99880002,,,,,,,
,,,,,,,,,,,,,,,,,27.22222222,-67,20,75,-71.77777778,4.777777778,4.777777778,0.392131076,-0.299192708,1,0,0,0.3828,submitButton,8.765277778,-0.139639757,-0.415959201,0,0,0,1,34,94,51,1,67,69190,N,180,2022-02-15_20h46.32.762,orientation adjustment blockN,2021.2.3,MacIntel,59.99880002,,,,,,,
,,,,,,,,,,,,,,,,,-31.11111111,52,20,75,46.88888889,5.111111111,5.111111111,-0.076106771,-0.379118924,1,0,0,0.5498,submitButton,8.720164609,0.113094618,-0.325199653,0,0,0,1,35,95,36,1,52,69190,N,180,2022-02-15_20h46.32.762,orientation adjustment blockN,2021.2.3,MacIntel,59.99880002,,,,,,,
,,,,,,,,,,,,,,,,,-58.33333333,22,20,75,30.66666667,8.666666667,8.666666667,-0.144079861,-0.407508681,1,0,0,2.1171,submitButton,8.719512195,-0.116844618,-0.395303819,0,0,0,1,36,96,6,1,22,69190,N,180,2022-02-15_20h46.32.762,orientation adjustment blockN,2021.2.3,MacIntel,59.99880002,,,,,,,
,,,,,,,,,,,,,,,,,-52.77777778,62,20,75,62.22222222,0.222222222,0.222222222,-0.200954861,-0.405772569,1,0,0,1.0168,submitButton,8.617135207,-0.200954861,-0.405772569,0,0,0,1,37,97,46,1,62,69190,N,180,2022-02-15_20h46.32.762,orientation adjustment blockN,2021.2.3,MacIntel,59.99880002,,,,,,,
,,,,,,,,,,,,,,,,,71.11111111,35,20,75,106.1111111,71.11111111,71.11111111,-0.200954861,-0.405772569,1,0,0,0.1337,submitButton,9.361111111,-0.200954861,-0.405772569,0,0,0,1,38,98,19,1,35,69190,N,180,2022-02-15_20h46.32.762,orientation adjustment blockN,2021.2.3,MacIntel,59.99880002,,,,,,,
,,,,,,,,,,,,,,,,,60,41,20,75,231,10,10,-0.220798611,-0.412573785,1,0,0,2.9336,submitButton,9.368627451,-0.220798611,-0.412573785,0,0,0,1,39,99,25,1,41,69190,N,180,2022-02-15_20h46.32.762,orientation adjustment blockN,2021.2.3,MacIntel,59.99880002,,,,,,,
,,,,,,,,,,,,,,,,,48.88888889,43,20,75,222.8888889,0.111111111,0.111111111,-0.12125,-0.407899306,1,0,0,2.6828,submitButton,9.260981912,0.220256076,-0.223307292,0,0,0,1,40,100,27,1,43,69190,N,180,2022-02-15_20h46.32.762,orientation adjustment blockN,2021.2.3,MacIntel,59.99880002,,,,,,,
,,,,,,,,,,,,,,,,,47.22222222,-55,20,75,-40.77777778,14.22222222,14.22222222,-0.165091146,-0.441041667,1,0,0,0.7507,submitButton,9.318007663,0.191888021,-0.327916667,0,0,0,1,41,101,39,1,55,69190,N,180,2022-02-15_20h46.32.762,orientation adjustment blockN,2021.2.3,MacIntel,59.99880002,,,,,,,
,,,,,,,,,,,,,,,,,67.22222222,50,20,75,230.2222222,0.222222222,0.222222222,0.197434896,-0.309592014,1,0,0,1.0512,submitButton,9.214646465,0.208463542,-0.295559896,0,0,0,1,42,102,34,1,50,69190,N,180,2022-02-15_20h46.32.762,orientation adjustment blockN,2021.2.3,MacIntel,59.99880002,,,,,,,
,,,,,,,,,,,,,,,,,-34.44444444,51,20,75,49.55555556,1.444444444,1.444444444,-0.132061632,-0.414960938,1,0,0,0.6496,submitButton,9.127340824,0.220373264,-0.304427083,0,0,0,1,43,103,35,1,51,69190,N,180,2022-02-15_20h46.32.762,orientation adjustment blockN,2021.2.3,MacIntel,59.99880002,,,,,,,
,,,,,,,,,,,,,,,,,-75,-31,20,75,-226,15,15,-0.14562066,-0.401506076,1,0,0,1.9495,submitButton,9.192592593,0.347313368,-0.398719618,1,0,0,1,44,104,15,1,31,69190,N,180,2022-02-15_20h46.32.762,orientation adjustment blockN,2021.2.3,MacIntel,59.99880002,continueButton,,,,,,
,,,,,,,,,,,,,,,,,26.66666667,-21,20,75,-38.33333333,17.33333333,17.33333333,-0.126054688,-0.404101563,1,0,0,0.933,submitButton,9.282051282,0.177404514,-0.307565104,0,0,0,1,45,105,5,1,21,69190,N,180,2022-02-15_20h46.32.762,orientation adjustment blockN,2021.2.3,MacIntel,59.99880002,,,,,,,
,,,,,,,,,,,,,,,,,-22.22222222,-27,20,75,-30.22222222,3.222222222,3.222222222,-0.156657986,-0.421961806,1,0,0,0.6341,submitButton,9.216183575,0.154539931,-0.238875868,0,0,0,1,46,106,11,1,27,69190,N,180,2022-02-15_20h46.32.762,orientation adjustment blockN,2021.2.3,MacIntel,59.99880002,,,,,,,
,,,,,,,,,,,,,,,,,-53.33333333,-19,20,75,-26.33333333,7.333333333,7.333333333,-0.129157986,-0.401757812,1,0,0,1.2001,submitButton,9.195937873,0.029756944,-0.217747396,0,0,0,1,47,107,3,1,19,69190,N,180,2022-02-15_20h46.32.762,orientation adjustment blockN,2021.2.3,MacIntel,59.99880002,,,,,,,
,,,,,,,,,,,,,,,,,-28.33333333,40,20,75,47.66666667,7.666666667,7.666666667,-0.119049479,-0.395360243,1,0,0,1.5168,submitButton,9.179669031,-0.118793403,-0.395360243,0,0,0,1,48,108,24,1,40,69190,N,180,2022-02-15_20h46.32.762,orientation adjustment blockN,2021.2.3,MacIntel,59.99880002,,,,,,,
,,,,,,,,,,,,,,,,,57.77777778,53,20,75,245.7777778,12.77777778,12.77777778,-0.121302083,-0.407894965,1,0,0,2.5005,submitButton,9.21754386,-0.121302083,-0.407634549,0,0,0,1,49,109,37,1,53,69190,N,180,2022-02-15_20h46.32.762,orientation adjustment blockN,2021.2.3,MacIntel,59.99880002,,,,,,,
,,,,,,,,,,,,,,,,,35.55555556,-56,20,75,-63.44444444,7.444444444,7.444444444,0.390633681,-0.301775174,1,0,0,0.015,submitButton,9.199074074,-0.108302951,-0.402395833,0,0,0,1,50,110,40,1,56,69190,N,180,2022-02-15_20h46.32.762,orientation adjustment blockN,2021.2.3,MacIntel,59.99880002,,,,,,,
,,,,,,,,,,,,,,,,,-55.55555556,57,20,75,66.44444444,9.444444444,9.444444444,-0.18280816,-0.405659722,1,0,0,1.3347,submitButton,9.201603666,0.254921875,-0.301271701,0,0,0,1,51,111,41,1,57,69190,N,180,2022-02-15_20h46.32.762,orientation adjustment blockN,2021.2.3,MacIntel,59.99880002,,,,,,,
,,,,,,,,,,,,,,,,,73.88888889,34,20,75,218.8888889,4.888888889,4.888888889,-0.160199653,-0.393702257,1,0,0,1.8342,submitButton,9.157596372,0.248255208,-0.271792535,0,0,0,1,52,112,18,1,34,69190,N,180,2022-02-15_20h46.32.762,orientation adjustment blockN,2021.2.3,MacIntel,59.99880002,,,,,,,
,,,,,,,,,,,,,,,,,-41.66666667,-68,20,75,-63.66666667,4.333333333,4.333333333,-0.156375868,-0.390533854,1,0,0,1.3334,submitButton,9.108866442,-0.156375868,-0.390533854,0,0,0,1,53,113,52,1,68,69190,N,180,2022-02-15_20h46.32.762,orientation adjustment blockN,2021.2.3,MacIntel,59.99880002,,,,,,,
,,,,,,,,,,,,,,,,,-45.55555556,-75,20,75,-242.5555556,12.44444444,12.44444444,0.393020833,-0.299140625,1,0,0,1.5326,submitButton,9.142222222,-0.128072917,-0.401332465,0,0,0,1,54,114,59,1,75,69190,N,180,2022-02-15_20h46.32.762,orientation adjustment blockN,2021.2.3,MacIntel,59.99880002,,,,,,,
,,,,,,,,,,,,,,,,,-26.66666667,-58,20,75,-56.66666667,1.333333333,1.333333333,-0.162873264,-0.36484375,1,0,0,0.9833,submitButton,9.064906491,-0.161618924,-0.4003125,0,0,0,1,55,115,42,1,58,69190,N,180,2022-02-15_20h46.32.762,orientation adjustment blockN,2021.2.3,MacIntel,59.99880002,,,,,,,
,,,,,,,,,,,,,,,,,-58.33333333,72,20,75,67.66666667,4.333333333,4.333333333,0.196987847,-0.309973958,1,0,0,0.666,submitButton,9.018518519,-0.128342014,-0.414934896,0,0,0,1,56,116,56,1,72,69190,N,180,2022-02-15_20h46.32.762,orientation adjustment blockN,2021.2.3,MacIntel,59.99880002,,,,,,,
,,,,,,,,,,,,,,,,,62.77777778,44,20,75,57.77777778,13.77777778,13.77777778,0.341497396,-0.318181424,1,0,0,0.4995,submitButton,9.064724919,0.185763889,-0.285030382,0,0,0,1,57,117,28,1,44,69190,N,180,2022-02-15_20h46.32.762,orientation adjustment blockN,2021.2.3,MacIntel,59.99880002,,,,,,,
,,,,,,,,,,,,,,,,,-27.22222222,-38,20,75,-44.22222222,6.222222222,6.222222222,0.169249132,-0.311163194,1,0,0,0.1335,submitButton,9.037393162,-0.127521701,-0.394874132,0,0,0,1,58,118,22,1,38,69190,N,180,2022-02-15_20h46.32.762,orientation adjustment blockN,2021.2.3,MacIntel,59.99880002,,,,,,,
,,,,,,,,,,,,,,,,,-71.11111111,-61,20,75,-57.11111111,3.888888889,3.888888889,0.144717882,-0.297986111,1,0,0,0.1673,submitButton,8.988359788,0.469548611,-0.408780382,1,0,0,1,59,119,45,1,61,69190,N,180,2022-02-15_20h46.32.762,orientation adjustment blockN,2021.2.3,MacIntel,59.99880002,continueButton,,,,,,
,,,,,,,,,,,,,,,,,63.33333333,21,20,75,54.33333333,33.33333333,33.33333333,0.383789063,-0.303402778,1,0,0,0.4491,submitButton,9.21802935,-0.200881076,-0.368346354,0,0,0,2,0,120,5,1,21,69190,N,180,2022-02-15_20h46.32.762,orientation adjustment blockN,2021.2.3,MacIntel,59.99880002,,,,,,,
,,,,,,,,,,,,,,,,,57.77777778,-40,20,75,-31.22222222,8.777777778,8.777777778,-0.17,-0.426822917,1,0,0,1.0835,submitButton,9.213914849,0.095607639,-0.332886285,0,0,0,2,1,121,24,1,40,69190,N,180,2022-02-15_20h46.32.762,orientation adjustment blockN,2021.2.3,MacIntel,59.99880002,,,,,,,
,,,,,,,,,,,,,,,,,-53.33333333,-68,20,75,-224.3333333,23.66666667,23.66666667,0.192309028,-0.329401042,1,0,0,0.2826,submitButton,9.347736626,-0.199249132,-0.42140191,0,0,0,2,2,122,52,1,68,69190,N,180,2022-02-15_20h46.32.762,orientation adjustment blockN,2021.2.3,MacIntel,59.99880002,,,,,,,
,,,,,,,,,,,,,,,,,-40,-60,20,75,-236,4,4,-0.13766059,-0.4046875,1,0,0,2.6346,submitButton,9.298674822,-0.13766059,-0.4046875,0,0,0,2,3,123,44,1,60,69190,N,180,2022-02-15_20h46.32.762,orientation adjustment blockN,2021.2.3,MacIntel,59.99880002,,,,,,,
,,,,,,,,,,,,,,,,,25,-67,20,75,-72,5,5,-0.127322049,-0.4125,1,0,0,0.8848,submitButton,9.25959596,-0.127322049,-0.4125,0,0,0,2,4,124,51,1,67,69190,N,180,2022-02-15_20h46.32.762,orientation adjustment blockN,2021.2.3,MacIntel,59.99880002,,,,,,,
,,,,,,,,,,,,,,,,,-46.66666667,50,20,75,49.33333333,0.666666667,0.666666667,-0.17140191,-0.413498264,1,0,0,0.7507,submitButton,9.182182182,0.247217882,-0.164383681,0,0,0,2,5,125,34,1,50,69190,N,180,2022-02-15_20h46.32.762,orientation adjustment blockN,2021.2.3,MacIntel,59.99880002,,,,,,,
,,,,,,,,,,,,,,,,,40,-70,20,75,-61,9,9,-0.105824653,-0.411775174,1,0,0,1.1502,submitButton,9.180555556,-0.105824653,-0.411775174,0,0,0,2,6,126,54,1,70,69190,N,180,2022-02-15_20h46.32.762,orientation adjustment blockN,2021.2.3,MacIntel,59.99880002,,,,,,,
,,,,,,,,,,,,,,,,,28.88888889,57,20,75,58.88888889,1.888888889,1.888888889,0.418715278,-0.327252604,1,0,0,0.0167,submitButton,9.116027532,-0.196284722,-0.388463542,0,0,0,2,7,127,41,1,57,69190,N,180,2022-02-15_20h46.32.762,orientation adjustment blockN,2021.2.3,MacIntel,59.99880002,,,,,,,
,,,,,,,,,,,,,,,,,-48.33333333,-22,20,75,-27.33333333,5.333333333,5.333333333,-0.159730903,-0.387838542,1,0,0,14.4512,submitButton,9.082846004,0.181197917,-0.385516493,0,0,0,2,8,128,6,1,22,69190,N,180,2022-02-15_20h46.32.762,orientation adjustment blockN,2021.2.3,MacIntel,59.99880002,,,,,,,
,,,,,,,,,,,,,,,,,-62.22222222,65,20,75,45.77777778,19.22222222,19.22222222,-0.175520833,-0.438732639,1,0,0,0.6499,submitButton,9.171014493,0.308185764,-0.289396701,0,0,0,2,9,129,49,1,65,69190,N,180,2022-02-15_20h46.32.762,orientation adjustment blockN,2021.2.3,MacIntel,59.99880002,,,,,,,
,,,,,,,,,,,,,,,,,-37.77777778,42,20,75,40.22222222,1.777777778,1.777777778,0.245377604,-0.296072049,1,0,0,0.2327,submitButton,9.107279693,0.160338542,-0.355993924,0,0,0,2,10,130,26,1,42,69190,N,180,2022-02-15_20h46.32.762,orientation adjustment blockN,2021.2.3,MacIntel,59.99880002,,,,,,,
,,,,,,,,,,,,,,,,,58.33333333,73,20,75,252.3333333,0.666666667,0.666666667,-0.162282986,-0.396332465,1,0,0,1.9506,submitButton,9.035137702,0.197018229,-0.278181424,0,0,0,2,11,131,57,1,73,69190,N,180,2022-02-15_20h46.32.762,orientation adjustment blockN,2021.2.3,MacIntel,59.99880002,,,,,,,
,,,,,,,,,,,,,,,,,29.44444444,-25,20,75,-33.55555556,8.555555556,8.555555556,0.338055556,-0.310247396,1,0,0,0.0993,submitButton,9.031073446,0.168320313,-0.282408854,0,0,0,2,12,132,9,1,25,69190,N,180,2022-02-15_20h46.32.762,orientation adjustment blockN,2021.2.3,MacIntel,59.99880002,,,,,,,
,,,,,,,,,,,,,,,,,-58.33333333,-19,20,75,-14.33333333,4.666666667,4.666666667,0.209947917,-0.294900174,1,0,0,1.3659,submitButton,8.994397759,0.153615451,-0.198732639,0,0,0,2,13,133,3,1,19,69190,N,180,2022-02-15_20h46.32.762,orientation adjustment blockN,2021.2.3,MacIntel,59.99880002,,,,,,,
,,,,,,,,,,,,,,,,,27.77777778,-59,20,75,-64.22222222,5.222222222,5.222222222,0.180724826,-0.2975,1,0,0,0.7997,submitButton,8.962962963,0.321987847,-0.395876736,1,0,0,2,14,134,43,1,59,69190,N,180,2022-02-15_20h46.32.762,orientation adjustment blockN,2021.2.3,MacIntel,59.99880002,continueButton,,,,,,
,,,,,,,,,,,,,,,,,-56.66666667,-29,20,75,-37.66666667,8.666666667,8.666666667,-0.144978299,-0.36327691,1,0,0,1.1174,submitButton,8.960514233,0.21749566,-0.321553819,0,0,0,2,15,135,13,1,29,69190,N,180,2022-02-15_20h46.32.762,orientation adjustment blockN,2021.2.3,MacIntel,59.99880002,,,,,,,
,,,,,,,,,,,,,,,,,-31.11111111,16,20,75,26.88888889,10.88888889,10.88888889,-0.177378472,-0.396688368,1,0,0,0.8837,submitButton,8.976320583,0.225598958,-0.31124566,0,0,0,2,16,136,0,1,16,69190,N,180,2022-02-15_20h46.32.762,orientation adjustment blockN,2021.2.3,MacIntel,59.99880002,,,,,,,
,,,,,,,,,,,,,,,,,20.55555556,-61,20,75,-74.44444444,13.44444444,13.44444444,-0.126063368,-0.385907118,1,0,0,0.6669,submitButton,9.012646793,0.175303819,-0.235269097,0,0,0,2,17,137,45,1,61,69190,N,180,2022-02-15_20h46.32.762,orientation adjustment blockN,2021.2.3,MacIntel,59.99880002,,,,,,,
,,,,,,,,,,,,,,,,,68.88888889,-44,20,75,-30.11111111,13.88888889,13.88888889,-0.183789062,-0.41296875,1,0,0,0.9335,submitButton,9.051971326,0.162625868,-0.230616319,0,0,0,2,18,138,28,1,44,69190,N,180,2022-02-15_20h46.32.762,orientation adjustment blockN,2021.2.3,MacIntel,59.99880002,,,,,,,
,,,,,,,,,,,,,,,,,27.22222222,-39,20,75,-39.77777778,0.777777778,0.777777778,-0.194509549,-0.350759549,1,0,0,0.4328,submitButton,8.985777778,0.208611111,-0.291193576,0,0,0,2,19,139,23,1,39,69190,N,180,2022-02-15_20h46.32.762,orientation adjustment blockN,2021.2.3,MacIntel,59.99880002,,,,,,,
,,,,,,,,,,,,,,,,,37.77777778,56,20,75,233.7777778,2.222222222,2.222222222,-0.213875868,-0.391697049,1,0,0,2.0669,submitButton,8.932098765,-0.194001736,-0.384813368,0,0,0,2,20,140,40,1,56,69190,N,180,2022-02-15_20h46.32.762,orientation adjustment blockN,2021.2.3,MacIntel,59.99880002,,,,,,,
,,,,,,,,,,,,,,,,,26.66666667,-63,20,75,-58.33333333,4.666666667,4.666666667,0.378029514,-0.298980035,1,0,0,0.1833,submitButton,8.898512686,-0.122213542,-0.387539062,0,0,0,2,21,141,47,1,63,69190,N,180,2022-02-15_20h46.32.762,orientation adjustment blockN,2021.2.3,MacIntel,59.99880002,,,,,,,
,,,,,,,,,,,,,,,,,61.11111111,-52,20,75,-59.88888889,7.888888889,7.888888889,-0.149418403,-0.398368056,1,0,0,1.1154,submitButton,8.890625,0.152413194,-0.245338542,0,0,0,2,22,142,36,1,52,69190,N,180,2022-02-15_20h46.32.762,orientation adjustment blockN,2021.2.3,MacIntel,59.99880002,,,,,,,
,,,,,,,,,,,,,,,,,-52.22222222,31,20,75,35.77777778,4.777777778,4.777777778,-0.185677083,-0.338250868,1,0,0,0.4494,submitButton,8.858742463,0.267925347,-0.295143229,0,0,0,2,23,143,15,1,31,69190,N,180,2022-02-15_20h46.32.762,orientation adjustment blockN,2021.2.3,MacIntel,59.99880002,,,,,,,
,,,,,,,,,,,,,,,,,73.88888889,28,20,75,220.8888889,12.88888889,12.88888889,-0.172300347,-0.423806424,1,0,0,1.6502,submitButton,8.88974359,0.208706597,-0.305060764,0,0,0,2,24,144,12,1,28,69190,N,180,2022-02-15_20h46.32.762,orientation adjustment blockN,2021.2.3,MacIntel,59.99880002,,,,,,,
,,,,,,,,,,,,,,,,,32.77777778,-74,20,75,-80.22222222,6.222222222,6.222222222,-0.217703993,-0.461610243,1,0,0,0.6667,submitButton,8.869380831,0.192430556,-0.35499566,0,0,0,2,25,145,58,1,74,69190,N,180,2022-02-15_20h46.32.762,orientation adjustment blockN,2021.2.3,MacIntel,59.99880002,,,,,,,
,,,,,,,,,,,,,,,,,-40.55555556,36,20,75,37.44444444,1.444444444,1.444444444,-0.139019097,-0.424752604,1,0,0,0.6162,submitButton,8.813131313,0.142196181,-0.294197049,0,0,0,2,26,146,20,1,36,69190,N,180,2022-02-15_20h46.32.762,orientation adjustment blockN,2021.2.3,MacIntel,59.99880002,,,,,,,
,,,,,,,,,,,,,,,,,56.66666667,-48,20,75,-39.33333333,8.666666667,8.666666667,-0.077999132,-0.372795139,1,0,0,1.2175,submitButton,8.812030075,0.169835069,-0.33078559,0,0,0,2,27,147,32,1,48,69190,N,180,2022-02-15_20h46.32.762,orientation adjustment blockN,2021.2.3,MacIntel,59.99880002,,,,,,,
,,,,,,,,,,,,,,,,,31.11111111,24,20,75,46.11111111,22.11111111,22.11111111,0.380889757,-0.309761285,1,0,0,0.2171,submitButton,8.911276949,-0.165190972,-0.407912326,0,0,0,2,28,148,8,1,24,69190,N,180,2022-02-15_20h46.32.762,orientation adjustment blockN,2021.2.3,MacIntel,59.99880002,,,,,,,
,,,,,,,,,,,,,,,,,-42.22222222,23,20,75,24.77777778,1.777777778,1.777777778,-0.180611979,-0.397296007,1,0,0,1.1003,submitButton,8.858436214,-0.180611979,-0.397296007,0,0,0,2,29,149,7,1,23,69190,N,180,2022-02-15_20h46.32.762,orientation adjustment blockN,2021.2.3,MacIntel,59.99880002,,,,,,,
,,,,,,,,,,,,,,,,,-35,-17,20,75,-37,20,20,0.167048611,-0.302595486,1,0,0,0.0336,submitButton,8.940359477,-0.181966146,-0.389852431,0,0,0,2,30,150,1,1,17,69190,N,180,2022-02-15_20h46.32.762,orientation adjustment blockN,2021.2.3,MacIntel,59.99880002,,,,,,,
,,,,,,,,,,,,,,,,,67.77777778,71,20,75,237.7777778,13.22222222,13.22222222,0.174270833,-0.303485243,1,0,0,0.1161,submitButton,8.97161395,-0.229136285,-0.404500868,0,0,0,2,31,151,55,1,71,69190,N,180,2022-02-15_20h46.32.762,orientation adjustment blockN,2021.2.3,MacIntel,59.99880002,,,,,,,
,,,,,,,,,,,,,,,,,51.66666667,-32,20,75,-31.33333333,0.666666667,0.666666667,-0.200286458,-0.411553819,1,0,0,1.383,submitButton,8.911433172,-0.200286458,-0.411553819,0,0,0,2,32,152,16,1,32,69190,N,180,2022-02-15_20h46.32.762,orientation adjustment blockN,2021.2.3,MacIntel,59.99880002,,,,,,,
,,,,,,,,,,,,,,,,,67.22222222,46,20,75,230.2222222,4.222222222,4.222222222,-0.16452691,-0.385499132,1,0,0,1.8661,submitButton,8.877697842,-0.16452691,-0.385499132,0,0,0,2,33,153,30,1,46,69190,N,180,2022-02-15_20h46.32.762,orientation adjustment blockN,2021.2.3,MacIntel,59.99880002,,,,,,,
,,,,,,,,,,,,,,,,,-71.11111111,-37,20,75,-53.11111111,16.11111111,16.11111111,-0.185646701,-0.395846354,1,0,0,1.5167,submitButton,8.929365079,-0.185646701,-0.395846354,0,0,0,2,34,154,21,1,37,69190,N,180,2022-02-15_20h46.32.762,orientation adjustment blockN,2021.2.3,MacIntel,59.99880002,,,,,,,
,,,,,,,,,,,,,,,,,-42.77777778,55,20,75,48.22222222,6.777777778,6.777777778,-0.164040799,-0.416449653,1,0,0,0.6171,submitButton,8.914105595,0.342669271,-0.251762153,0,0,0,2,35,155,39,1,55,69190,N,180,2022-02-15_20h46.32.762,orientation adjustment blockN,2021.2.3,MacIntel,59.99880002,,,,,,,
,,,,,,,,,,,,,,,,,64.44444444,-72,20,75,-51.55555556,20.44444444,20.44444444,-0.152513021,-0.419978299,1,0,0,0.9491,submitButton,8.995305164,0.118216146,-0.354852431,0,0,0,2,36,156,56,1,72,69190,N,180,2022-02-15_20h46.32.762,orientation adjustment blockN,2021.2.3,MacIntel,59.99880002,,,,,,,
,,,,,,,,,,,,,,,,,56.11111111,69,20,75,250.1111111,1.111111111,1.111111111,-0.216549479,-0.389652778,1,0,0,1.9332,submitButton,8.94017094,-0.216549479,-0.389652778,0,0,0,2,37,157,53,1,69,69190,N,180,2022-02-15_20h46.32.762,orientation adjustment blockN,2021.2.3,MacIntel,59.99880002,,,,,,,
,,,,,,,,,,,,,,,,,-52.77777778,-35,20,75,-35.77777778,0.777777778,0.777777778,-0.156519097,-0.377743056,1,0,0,1.2827,submitButton,8.883487654,-0.157074653,-0.37641059,0,0,0,2,38,158,19,1,35,69190,N,180,2022-02-15_20h46.32.762,orientation adjustment blockN,2021.2.3,MacIntel,59.99880002,,,,,,,
,,,,,,,,,,,,,,,,,-51.66666667,26,20,75,21.33333333,4.666666667,4.666666667,-0.189969618,-0.380190972,1,0,0,0.7339,submitButton,8.85440613,-0.189969618,-0.380190972,0,0,0,2,39,159,10,1,26,69190,N,180,2022-02-15_20h46.32.762,orientation adjustment blockN,2021.2.3,MacIntel,59.99880002,,,,,,,
,,,,,,,,,,,,,,,,,-45,-18,20,75,-27,9,9,-0.149661458,-0.397421875,1,0,0,1.0832,submitButton,8.855403349,-0.149661458,-0.397421875,0,0,0,2,40,160,2,1,18,69190,N,180,2022-02-15_20h46.32.762,orientation adjustment blockN,2021.2.3,MacIntel,59.99880002,,,,,,,
,,,,,,,,,,,,,,,,,68.88888889,-66,20,75,-50.11111111,15.88888889,15.88888889,0.328871528,-0.318376736,1,0,0,0.2991,submitButton,8.903250189,0.275164931,-0.31844184,0,0,0,2,41,161,50,1,66,69190,N,180,2022-02-15_20h46.32.762,orientation adjustment blockN,2021.2.3,MacIntel,59.99880002,,,,,,,
,,,,,,,,,,,,,,,,,32.77777778,-47,20,75,-50.22222222,3.222222222,3.222222222,0.34983941,-0.30843316,1,0,0,0.4009,submitButton,8.864864865,0.214136285,-0.224127604,0,0,0,2,42,162,31,1,47,69190,N,180,2022-02-15_20h46.32.762,orientation adjustment blockN,2021.2.3,MacIntel,59.99880002,,,,,,,
,,,,,,,,,,,,,,,,,-54.44444444,-58,20,75,-234.4444444,3.555555556,3.555555556,0.385559896,-0.302738715,1,0,0,0.3329,submitButton,8.829231916,-0.104934896,-0.392452257,0,0,0,2,43,163,42,1,58,69190,N,180,2022-02-15_20h46.32.762,orientation adjustment blockN,2021.2.3,MacIntel,59.99880002,,,,,,,
,,,,,,,,,,,,,,,,,70,-41,20,75,-37,4,4,-0.177265625,-0.412109375,1,0,0,1.4164,submitButton,8.797037037,-0.177265625,-0.412109375,0,0,0,2,44,164,25,1,41,69190,N,180,2022-02-15_20h46.32.762,orientation adjustment blockN,2021.2.3,MacIntel,59.99880002,,,,,,,
,,,,,,,,,,,,,,,,,-56.11111111,-45,20,75,-215.1111111,9.888888889,9.888888889,-0.265768229,-0.399236111,1,0,0,2.266,submitButton,8.804267844,0.245299479,-0.236297743,0,0,0,2,45,165,29,1,45,69190,N,180,2022-02-15_20h46.32.762,orientation adjustment blockN,2021.2.3,MacIntel,59.99880002,,,,,,,
,,,,,,,,,,,,,,,,,40.55555556,-51,20,75,-46.44444444,4.555555556,4.555555556,-0.141987847,-0.39499566,1,0,0,0.9174,submitButton,8.776315789,-0.141987847,-0.39499566,0,0,0,2,46,166,35,1,51,69190,N,180,2022-02-15_20h46.32.762,orientation adjustment blockN,2021.2.3,MacIntel,59.99880002,,,,,,,
,,,,,,,,,,,,,,,,,-62.22222222,62,20,75,55.77777778,6.222222222,6.222222222,-0.207018229,-0.4140625,1,0,0,0.9339,submitButton,8.759622367,0.142252604,-0.238845486,0,0,0,2,47,167,46,1,62,69190,N,180,2022-02-15_20h46.32.762,orientation adjustment blockN,2021.2.3,MacIntel,59.99880002,,,,,,,
,,,,,,,,,,,,,,,,,-55,75,20,75,71,4,4,0.401241319,-0.302994792,1,0,0,1.7322,submitButton,8.728715729,-0.115368924,-0.415412326,0,0,0,2,48,168,59,1,75,69190,N,180,2022-02-15_20h46.32.762,orientation adjustment blockN,2021.2.3,MacIntel,59.99880002,,,,,,,
,,,,,,,,,,,,,,,,,25,-54,20,75,-56,2,2,-0.132013889,-0.408667535,1,0,0,0.7992,submitButton,8.685304659,-0.132013889,-0.408667535,0,0,0,2,49,169,38,1,54,69190,N,180,2022-02-15_20h46.32.762,orientation adjustment blockN,2021.2.3,MacIntel,59.99880002,,,,,,,
,,,,,,,,,,,,,,,,,55,33,20,75,210,3,3,-0.175959201,-0.391966146,1,0,0,2.1333,submitButton,8.648860399,-0.175959201,-0.391966146,0,0,0,2,50,170,17,1,33,69190,N,180,2022-02-15_20h46.32.762,orientation adjustment blockN,2021.2.3,MacIntel,59.99880002,,,,,,,
,,,,,,,,,,,,,,,,,-41.66666667,20,20,75,27.33333333,7.333333333,7.333333333,-0.153111979,-0.405082465,1,0,0,1.2998,submitButton,8.640481246,-0.153111979,-0.405082465,0,0,0,2,51,171,4,1,20,69190,N,180,2022-02-15_20h46.32.762,orientation adjustment blockN,2021.2.3,MacIntel,59.99880002,,,,,,,
,,,,,,,,,,,,,,,,,65.55555556,-53,20,75,-36.44444444,16.55555556,16.55555556,-0.186219618,-0.402421875,1,0,0,1.9167,submitButton,8.690576653,0.098489583,-0.327916667,0,0,0,2,52,172,37,1,53,69190,N,180,2022-02-15_20h46.32.762,orientation adjustment blockN,2021.2.3,MacIntel,59.99880002,,,,,,,
,,,,,,,,,,,,,,,,,-42.22222222,-30,20,75,-35.22222222,5.222222222,5.222222222,-0.168867187,-0.370902778,1,0,0,0.9841,submitButton,8.668763103,-0.158702257,-0.402044271,0,0,0,2,53,173,14,1,30,69190,N,180,2022-02-15_20h46.32.762,orientation adjustment blockN,2021.2.3,MacIntel,59.99880002,,,,,,,
,,,,,,,,,,,,,,,,,-67.22222222,64,20,75,63.77777778,0.222222222,0.222222222,-0.137131076,-0.4065625,1,0,0,0.8839,submitButton,8.615972222,-0.137131076,-0.4065625,0,0,0,2,54,174,48,1,64,69190,N,180,2022-02-15_20h46.32.762,orientation adjustment blockN,2021.2.3,MacIntel,59.99880002,,,,,,,
,,,,,,,,,,,,,,,,,73.88888889,-38,20,75,-34.11111111,3.888888889,3.888888889,-0.261653646,-0.426414931,1,0,0,1.05,submitButton,8.586611456,-0.261653646,-0.426414931,0,0,0,2,55,175,22,1,38,69190,N,180,2022-02-15_20h46.32.762,orientation adjustment blockN,2021.2.3,MacIntel,59.99880002,,,,,,,
,,,,,,,,,,,,,,,,,-68.88888889,-27,20,75,-210.8888889,3.888888889,3.888888889,-0.272617188,-0.409435764,1,0,0,2.016,submitButton,8.557613169,-0.272617188,-0.409435764,0,0,0,2,56,176,11,1,27,69190,N,180,2022-02-15_20h46.32.762,orientation adjustment blockN,2021.2.3,MacIntel,59.99880002,,,,,,,
,,,,,,,,,,,,,,,,,-29.44444444,-49,20,75,-215.4444444,13.55555556,13.55555556,0.383268229,-0.287421875,1,0,0,1.8827,submitButton,8.588275392,0.204357639,-0.264800347,0,0,0,2,57,177,33,1,49,69190,N,180,2022-02-15_20h46.32.762,orientation adjustment blockN,2021.2.3,MacIntel,59.99880002,,,,,,,
,,,,,,,,,,,,,,,,,47.22222222,43,20,75,242.2222222,19.22222222,19.22222222,0.253676215,-0.297899306,1,0,0,0.084,submitButton,8.653116531,0.29109809,-0.288550347,0,0,0,2,58,178,27,1,43,69190,N,180,2022-02-15_20h46.32.762,orientation adjustment blockN,2021.2.3,MacIntel,59.99880002,,,,,,,
,,,,,,,,,,,,,,,,,69.44444444,34,20,75,219.4444444,5.444444444,5.444444444,0.190507813,-0.302842882,1,0,0,2.0329,submitButton,8.633670034,0.166184896,-0.242239583,0,0,0,2,59,179,18,1,34,69190,N,180,2022-02-15_20h46.32.762,orientation adjustment blockN,2021.2.3,MacIntel,59.99880002,,,,,,,
,,,,,,,,,,,,,,,,,,,,,,,,,,,,,,,,,,,,,,,,,,,69190,N,180,2022-02-15_20h46.32.762,orientation adjustment blockN,2021.2.3,MacIntel,59.99880002,,0.220260417,-0.398632812,1,0,0,EndButtonTxt
