consentMouse1.x,consentMouse1.y,consentMouse1.leftButton,consentMouse1.midButton,consentMouse1.rightButton,consentMouse1.clicked_name,consent_Mouse.x,consent_Mouse.y,consent_Mouse.leftButton,consent_Mouse.midButton,consent_Mouse.rightButton,consent_Mouse.clicked_name,startMouse.x,startMouse.y,startMouse.leftButton,startMouse.midButton,startMouse.rightButton,start_distance,fixedOri,minimalDistance,maxOri,this_ori,accuracy,presented_accuracy,submitMouse.x,submitMouse.y,submitMouse.leftButton,submitMouse.midButton,submitMouse.rightButton,submitMouse.time,submitMouse.clicked_name,block_accuracy,continueMouse.x,continueMouse.y,continueMouse.leftButton,continueMouse.midButton,continueMouse.rightButton,trials.thisRepN,trials.thisTrialN,trials.thisN,trials.thisIndex,trials.ran,startOri,participant,condition,nTrials,date,expName,psychopyVersion,OS,frameRate,continueMouse.clicked_name,EndButtonMouse.x,EndButtonMouse.y,EndButtonMouse.leftButton,EndButtonMouse.midButton,EndButtonMouse.rightButton,EndButtonMouse.clicked_name
0.374682617,-0.40175293,1,0,0,consent_button1,0.394863281,-0.401484375,1,0,0,consent_button,0.026469727,-0.401088867,1,0,0,53.33333333,-41,20,75,119.3333333,19.66666667,19.66666667,0.216601563,-0.28769043,1,0,0,0.7641,submitButton,19.66666667,0.039643555,-0.217128906,0,0,0,0,0,0,25,1,41,69214,N,180,2022-02-24_10h30.01.980,orientation adjustment blockN,2021.2.3,MacIntel,59.97361161,,,,,,,
,,,,,,,,,,,,,,,,,63.88888889,24,20,75,202.8888889,1.111111111,1.111111111,-0.064257812,-0.280893555,1,0,0,2.2677,submitButton,10.38888889,0.050800781,-0.323886719,0,0,0,0,1,1,8,1,24,69214,N,180,2022-02-24_10h30.01.980,orientation adjustment blockN,2021.2.3,MacIntel,59.97361161,,,,,,,
,,,,,,,,,,,,,,,,,40.55555556,28,20,75,40.55555556,12.55555556,12.55555556,0.371147461,-0.286831055,1,0,0,0.2323,submitButton,11.11111111,-0.173300781,-0.22972168,0,0,0,0,2,2,12,1,28,69214,N,180,2022-02-24_10h30.01.980,orientation adjustment blockN,2021.2.3,MacIntel,59.97361161,,,,,,,
,,,,,,,,,,,,,,,,,-52.77777778,42,20,75,26.22222222,15.77777778,15.77777778,-0.299580078,-0.426884766,1,0,0,1.2154,submitButton,15.77777778,0.060869141,-0.278232422,0,0,0,0,3,3,26,1,42,69214,N,180,2022-02-24_10h30.01.980,orientation adjustment blockN,2021.2.3,MacIntel,59.97361161,,,,,,,
,,,,,,,,,,,,,,,,,35,51,20,75,58,7,7,0.404428711,-0.287011719,1,0,0,0.2824,submitButton,11.38888889,-0.001635742,-0.353183594,0,0,0,0,4,4,35,1,51,69214,N,180,2022-02-24_10h30.01.980,orientation adjustment blockN,2021.2.3,MacIntel,59.97361161,,,,,,,
,,,,,,,,,,,,,,,,,49.44444444,-20,20,75,-15.55555556,4.444444444,4.444444444,0.40125,-0.280878906,1,0,0,0.8681,submitButton,9.074074074,0.222792969,-0.283164062,0,0,0,0,5,5,4,1,20,69214,N,180,2022-02-24_10h30.01.980,orientation adjustment blockN,2021.2.3,MacIntel,59.97361161,,,,,,,
,,,,,,,,,,,,,,,,,24.44444444,-75,20,75,-76.55555556,1.555555556,1.555555556,-0.270537109,-0.432348633,1,0,0,0.5676,submitButton,1.555555556,0.241538086,-0.279765625,0,0,0,0,6,6,59,1,75,69214,N,180,2022-02-24_10h30.01.980,orientation adjustment blockN,2021.2.3,MacIntel,59.97361161,,,,,,,
,,,,,,,,,,,,,,,,,59.44444444,-35,20,75,-21.55555556,13.44444444,13.44444444,0.371953125,-0.292485352,1,0,0,0.1482,submitButton,7.5,0.356621094,-0.336000977,0,0,0,0,7,7,19,1,35,69214,N,180,2022-02-24_10h30.01.980,orientation adjustment blockN,2021.2.3,MacIntel,59.97361161,,,,,,,
,,,,,,,,,,,,,,,,,-35.55555556,46,20,75,43.44444444,2.555555556,2.555555556,-0.157832031,-0.404985352,1,0,0,0.7164,submitButton,5.851851852,0.192099609,-0.268564453,0,0,0,0,8,8,30,1,46,69214,N,180,2022-02-24_10h30.01.980,orientation adjustment blockN,2021.2.3,MacIntel,59.97361161,,,,,,,
,,,,,,,,,,,,,,,,,-75,-45,20,75,-216,9,9,0.373867187,-0.294946289,1,0,0,0.1991,submitButton,9,0.459023438,-0.268378906,0,0,0,0,9,9,29,1,45,69214,N,180,2022-02-24_10h30.01.980,orientation adjustment blockN,2021.2.3,MacIntel,59.97361161,,,,,,,
,,,,,,,,,,,,,,,,,42.77777778,72,20,75,226.7777778,25.22222222,25.22222222,0.222832031,-0.296884766,1,0,0,1.4683,submitButton,17.11111111,0.448041992,-0.178115234,0,0,0,0,10,10,56,1,72,69214,N,180,2022-02-24_10h30.01.980,orientation adjustment blockN,2021.2.3,MacIntel,59.97361161,,,,,,,
,,,,,,,,,,,,,,,,,-31.11111111,-52,20,75,-60.11111111,8.111111111,8.111111111,0.185668945,-0.312397461,1,0,0,0.0485,submitButton,14.11111111,0.292236328,-0.26543457,0,0,0,0,11,11,36,1,52,69214,N,180,2022-02-24_10h30.01.980,orientation adjustment blockN,2021.2.3,MacIntel,59.97361161,,,,,,,
,,,,,,,,,,,,,,,,,21.66666667,-31,20,75,-35.33333333,4.333333333,4.333333333,0.35734375,-0.303203125,1,0,0,0.0501,submitButton,4.333333333,0.231601562,-0.269882813,0,0,0,0,12,12,15,1,31,69214,N,180,2022-02-24_10h30.01.980,orientation adjustment blockN,2021.2.3,MacIntel,59.97361161,,,,,,,
,,,,,,,,,,,,,,,,,-31.11111111,-43,20,75,-46.11111111,3.111111111,3.111111111,-0.118505859,-0.395883789,1,0,0,0.7504,submitButton,3.722222222,0.345698242,-0.274907227,0,0,0,0,13,13,27,1,43,69214,N,180,2022-02-24_10h30.01.980,orientation adjustment blockN,2021.2.3,MacIntel,59.97361161,,,,,,,
,,,,,,,,,,,,,,,,,-33.33333333,37,20,75,32.66666667,4.333333333,4.333333333,-0.100859375,-0.39875,1,0,0,0.5847,submitButton,3.925925926,0.324316406,-0.418183594,1,0,0,0,14,14,21,1,37,69214,N,180,2022-02-24_10h30.01.980,orientation adjustment blockN,2021.2.3,MacIntel,59.97361161,continueButton,,,,,,
,,,,,,,,,,,,,,,,,73.33333333,-63,20,75,-44.66666667,18.33333333,18.33333333,0.386245117,-0.307729492,1,0,0,0.4164,submitButton,18.33333333,0.203588867,-0.314472656,0,0,0,0,15,15,47,1,63,69214,N,180,2022-02-24_10h30.01.980,orientation adjustment blockN,2021.2.3,MacIntel,59.97361161,,,,,,,
,,,,,,,,,,,,,,,,,-34.44444444,33,20,75,34.55555556,1.555555556,1.555555556,-0.161567383,-0.448222656,1,0,0,0.5833,submitButton,9.944444444,0.17706543,-0.366162109,0,0,0,0,16,16,17,1,33,69214,N,180,2022-02-24_10h30.01.980,orientation adjustment blockN,2021.2.3,MacIntel,59.97361161,,,,,,,
,,,,,,,,,,,,,,,,,65.55555556,-58,20,75,-49.44444444,8.555555556,8.555555556,-0.334448242,-0.329106445,1,0,0,1.0851,submitButton,9.481481481,0.156733398,-0.33800293,0,0,0,0,17,17,42,1,58,69214,N,180,2022-02-24_10h30.01.980,orientation adjustment blockN,2021.2.3,MacIntel,59.97361161,,,,,,,
,,,,,,,,,,,,,,,,,-33.88888889,-38,20,75,-40.88888889,2.888888889,2.888888889,-0.140463867,-0.325317383,1,0,0,0.7839,submitButton,7.833333333,0.131884766,-0.375126953,0,0,0,0,18,18,22,1,38,69214,N,180,2022-02-24_10h30.01.980,orientation adjustment blockN,2021.2.3,MacIntel,59.97361161,,,,,,,
,,,,,,,,,,,,,,,,,-71.66666667,-74,20,75,-238.6666667,15.33333333,15.33333333,-0.225107422,-0.411152344,1,0,0,1.8848,submitButton,9.333333333,0.207290039,-0.237646484,0,0,0,0,19,19,58,1,74,69214,N,180,2022-02-24_10h30.01.980,orientation adjustment blockN,2021.2.3,MacIntel,59.97361161,,,,,,,
,,,,,,,,,,,,,,,,,57.22222222,34,20,75,206.2222222,7.777777778,7.777777778,-0.220458984,-0.388544922,1,0,0,2.2509,submitButton,9.074074074,0.150810547,-0.350351562,0,0,0,0,20,20,18,1,34,69214,N,180,2022-02-24_10h30.01.980,orientation adjustment blockN,2021.2.3,MacIntel,59.97361161,,,,,,,
,,,,,,,,,,,,,,,,,57.22222222,-50,20,75,-31.77777778,18.22222222,18.22222222,-0.233183594,-0.415410156,1,0,0,0.9176,submitButton,10.38095238,0.16668457,-0.325307617,0,0,0,0,21,21,34,1,50,69214,N,180,2022-02-24_10h30.01.980,orientation adjustment blockN,2021.2.3,MacIntel,59.97361161,,,,,,,
,,,,,,,,,,,,,,,,,-63.33333333,-56,20,75,-233.3333333,2.666666667,2.666666667,0.3915625,-0.305952148,1,0,0,0.1006,submitButton,9.416666667,0.276176758,-0.30246582,0,0,0,0,22,22,40,1,56,69214,N,180,2022-02-24_10h30.01.980,orientation adjustment blockN,2021.2.3,MacIntel,59.97361161,,,,,,,
,,,,,,,,,,,,,,,,,-65,54,20,75,53,1,1,-0.161757812,-0.376782227,1,0,0,1.1832,submitButton,8.481481481,0.279711914,-0.319775391,0,0,0,0,23,23,38,1,54,69214,N,180,2022-02-24_10h30.01.980,orientation adjustment blockN,2021.2.3,MacIntel,59.97361161,,,,,,,
,,,,,,,,,,,,,,,,,-68.88888889,-27,20,75,-200.8888889,6.111111111,6.111111111,-0.236459961,-0.448374023,1,0,0,1.8836,submitButton,8.244444444,-0.126069336,-0.384082031,0,0,0,0,24,24,11,1,27,69214,N,180,2022-02-24_10h30.01.980,orientation adjustment blockN,2021.2.3,MacIntel,59.97361161,,,,,,,
,,,,,,,,,,,,,,,,,-75,40,20,75,37,3,3,-0.322768555,-0.416386719,1,0,0,1.1669,submitButton,7.767676768,0.279570312,-0.284780273,0,0,0,0,25,25,24,1,40,69214,N,180,2022-02-24_10h30.01.980,orientation adjustment blockN,2021.2.3,MacIntel,59.97361161,,,,,,,
,,,,,,,,,,,,,,,,,55,60,20,75,228,12,12,-0.215473633,-0.392856445,1,0,0,1.9845,submitButton,8.12037037,0.284345703,-0.280288086,0,0,0,0,26,26,44,1,60,69214,N,180,2022-02-24_10h30.01.980,orientation adjustment blockN,2021.2.3,MacIntel,59.97361161,,,,,,,
,,,,,,,,,,,,,,,,,-35.55555556,-64,20,75,-68.55555556,4.555555556,4.555555556,0.225395508,-0.291791992,1,0,0,0.1508,submitButton,7.846153846,0.282045898,-0.258764648,0,0,0,0,27,27,48,1,64,69214,N,180,2022-02-24_10h30.01.980,orientation adjustment blockN,2021.2.3,MacIntel,59.97361161,,,,,,,
,,,,,,,,,,,,,,,,,-54.44444444,44,20,75,40.55555556,3.444444444,3.444444444,-0.198208008,-0.403637695,1,0,0,1.4345,submitButton,7.531746032,0.24453125,-0.294311523,0,0,0,0,28,28,28,1,44,69214,N,180,2022-02-24_10h30.01.980,orientation adjustment blockN,2021.2.3,MacIntel,59.97361161,,,,,,,
,,,,,,,,,,,,,,,,,-21.66666667,-68,20,75,-61.66666667,6.333333333,6.333333333,-0.180673828,-0.346826172,1,0,0,0.951,submitButton,7.451851852,0.273833008,-0.404619141,1,0,0,0,29,29,52,1,68,69214,N,180,2022-02-24_10h30.01.980,orientation adjustment blockN,2021.2.3,MacIntel,59.97361161,continueButton,,,,,,
,,,,,,,,,,,,,,,,,-21.66666667,17,20,75,15.33333333,1.666666667,1.666666667,-0.283476562,-0.394311523,1,0,0,0.6506,submitButton,7.090277778,0.290444336,-0.306782227,0,0,0,0,30,30,1,1,17,69214,N,180,2022-02-24_10h30.01.980,orientation adjustment blockN,2021.2.3,MacIntel,59.97361161,,,,,,,
,,,,,,,,,,,,,,,,,70.55555556,-59,20,75,-55.44444444,3.555555556,3.555555556,-0.199506836,-0.384594727,1,0,0,1.2677,submitButton,6.882352941,0.142226562,-0.290078125,0,0,0,0,31,31,43,1,59,69214,N,180,2022-02-24_10h30.01.980,orientation adjustment blockN,2021.2.3,MacIntel,59.97361161,,,,,,,
,,,,,,,,,,,,,,,,,40,36,20,75,41,5,5,0.375717773,-0.298623047,1,0,0,0.1162,submitButton,6.777777778,-0.201572266,-0.391054687,0,0,0,0,32,32,20,1,36,69214,N,180,2022-02-24_10h30.01.980,orientation adjustment blockN,2021.2.3,MacIntel,59.97361161,,,,,,,
,,,,,,,,,,,,,,,,,53.88888889,65,20,75,60.88888889,4.111111111,4.111111111,0.385693359,-0.297661133,1,0,0,0.3344,submitButton,6.637426901,0.249360352,-0.363847656,0,0,0,0,33,33,49,1,65,69214,N,180,2022-02-24_10h30.01.980,orientation adjustment blockN,2021.2.3,MacIntel,59.97361161,,,,,,,
,,,,,,,,,,,,,,,,,-70,61,20,75,53,8,8,-0.23480957,-0.397670898,1,0,0,1.4177,submitButton,6.705555556,0.388847656,-0.248364258,0,0,0,0,34,34,45,1,61,69214,N,180,2022-02-24_10h30.01.980,orientation adjustment blockN,2021.2.3,MacIntel,59.97361161,,,,,,,
,,,,,,,,,,,,,,,,,37.22222222,-23,20,75,-25.77777778,2.777777778,2.777777778,-0.129135742,-0.393178711,1,0,0,0.9004,submitButton,6.518518519,0.238554688,-0.359819336,0,0,0,0,35,35,7,1,23,69214,N,180,2022-02-24_10h30.01.980,orientation adjustment blockN,2021.2.3,MacIntel,59.97361161,,,,,,,
,,,,,,,,,,,,,,,,,42.22222222,-48,20,75,-32.77777778,15.22222222,15.22222222,-0.198134766,-0.359956055,1,0,0,0.7672,submitButton,6.914141414,0.296015625,-0.216904297,0,0,0,0,36,36,32,1,48,69214,N,180,2022-02-24_10h30.01.980,orientation adjustment blockN,2021.2.3,MacIntel,59.97361161,,,,,,,
,,,,,,,,,,,,,,,,,-39.44444444,-16,20,75,-33.44444444,17.44444444,17.44444444,-0.281396484,-0.459975586,1,0,0,0.6832,submitButton,7.371980676,0.205351563,-0.260742188,0,0,0,0,37,37,0,1,16,69214,N,180,2022-02-24_10h30.01.980,orientation adjustment blockN,2021.2.3,MacIntel,59.97361161,,,,,,,
,,,,,,,,,,,,,,,,,-33.88888889,-19,20,75,-30.88888889,11.88888889,11.88888889,-0.303291016,-0.383007812,1,0,0,0.3674,submitButton,7.560185185,0.146069336,-0.298862305,0,0,0,0,38,38,3,1,19,69214,N,180,2022-02-24_10h30.01.980,orientation adjustment blockN,2021.2.3,MacIntel,59.97361161,,,,,,,
,,,,,,,,,,,,,,,,,21.66666667,-73,20,75,-51.33333333,21.66666667,21.66666667,-0.28378418,-0.387592773,1,0,0,0.6995,submitButton,8.124444444,0.106069336,-0.244916992,0,0,0,0,39,39,57,1,73,69214,N,180,2022-02-24_10h30.01.980,orientation adjustment blockN,2021.2.3,MacIntel,59.97361161,,,,,,,
,,,,,,,,,,,,,,,,,-61.66666667,-21,20,75,-34.66666667,13.66666667,13.66666667,-0.242480469,-0.405097656,1,0,0,0.853,submitButton,8.337606838,0.123081055,-0.330297852,0,0,0,0,40,40,5,1,21,69214,N,180,2022-02-24_10h30.01.980,orientation adjustment blockN,2021.2.3,MacIntel,59.97361161,,,,,,,
,,,,,,,,,,,,,,,,,-42.77777778,67,20,75,61.22222222,5.777777778,5.777777778,-0.155634766,-0.381928711,1,0,0,0.8181,submitButton,8.242798354,0.107568359,-0.20090332,0,0,0,0,41,41,51,1,67,69214,N,180,2022-02-24_10h30.01.980,orientation adjustment blockN,2021.2.3,MacIntel,59.97361161,,,,,,,
,,,,,,,,,,,,,,,,,-20,26,20,75,33,7,7,-0.172333984,-0.357216797,1,0,0,0.6352,submitButton,8.198412698,0.082714844,-0.331074219,0,0,0,0,42,42,10,1,26,69214,N,180,2022-02-24_10h30.01.980,orientation adjustment blockN,2021.2.3,MacIntel,59.97361161,,,,,,,
,,,,,,,,,,,,,,,,,-36.66666667,53,20,75,39.33333333,13.66666667,13.66666667,-0.256953125,-0.413828125,1,0,0,0.3999,submitButton,8.38697318,0.239287109,-0.20203125,0,0,0,0,43,43,37,1,53,69214,N,180,2022-02-24_10h30.01.980,orientation adjustment blockN,2021.2.3,MacIntel,59.97361161,,,,,,,
,,,,,,,,,,,,,,,,,74.44444444,-32,20,75,-18.55555556,13.44444444,13.44444444,-0.319350586,-0.398701172,1,0,0,1.0186,submitButton,8.555555556,0.282602539,-0.396308594,1,0,0,0,44,44,16,1,32,69214,N,180,2022-02-24_10h30.01.980,orientation adjustment blockN,2021.2.3,MacIntel,59.97361161,continueButton,,,,,,
,,,,,,,,,,,,,,,,,61.66666667,-29,20,75,-22.33333333,6.666666667,6.666666667,-0.110263672,-0.401943359,1,0,0,0.9841,submitButton,8.494623656,0.34796875,-0.335703125,0,0,0,0,45,45,13,1,29,69214,N,180,2022-02-24_10h30.01.980,orientation adjustment blockN,2021.2.3,MacIntel,59.97361161,,,,,,,
,,,,,,,,,,,,,,,,,32.77777778,47,20,75,39.77777778,7.222222222,7.222222222,0.382978516,-0.304677734,1,0,0,0.0505,submitButton,8.454861111,0.355341797,-0.255317383,0,0,0,0,46,46,31,1,47,69214,N,180,2022-02-24_10h30.01.980,orientation adjustment blockN,2021.2.3,MacIntel,59.97361161,,,,,,,
,,,,,,,,,,,,,,,,,-55,-71,20,75,-74,3,3,-0.151464844,-0.397675781,1,0,0,1.2178,submitButton,8.28956229,0.366049805,-0.321025391,0,0,0,0,47,47,55,1,71,69214,N,180,2022-02-24_10h30.01.980,orientation adjustment blockN,2021.2.3,MacIntel,59.97361161,,,,,,,
,,,,,,,,,,,,,,,,,-55.55555556,-25,20,75,-34.55555556,9.555555556,9.555555556,-0.088227539,-0.385200195,1,0,0,0.8008,submitButton,8.326797386,0.20640625,-0.28184082,0,0,0,0,48,48,9,1,25,69214,N,180,2022-02-24_10h30.01.980,orientation adjustment blockN,2021.2.3,MacIntel,59.97361161,,,,,,,
,,,,,,,,,,,,,,,,,-32.22222222,-69,20,75,-64.22222222,4.777777778,4.777777778,-0.169023438,-0.349423828,1,0,0,0.8334,submitButton,8.225396825,0.092119141,-0.311108398,0,0,0,0,49,49,53,1,69,69214,N,180,2022-02-24_10h30.01.980,orientation adjustment blockN,2021.2.3,MacIntel,59.97361161,,,,,,,
,,,,,,,,,,,,,,,,,54.44444444,-62,20,75,-55.55555556,6.444444444,6.444444444,0.390234375,-0.296298828,1,0,0,0.4476,submitButton,8.175925926,0.280253906,-0.28734375,0,0,0,0,50,50,46,1,62,69214,N,180,2022-02-24_10h30.01.980,orientation adjustment blockN,2021.2.3,MacIntel,59.97361161,,,,,,,
,,,,,,,,,,,,,,,,,45.55555556,-70,20,75,-57.44444444,12.55555556,12.55555556,-0.220986328,-0.404150391,1,0,0,0.9336,submitButton,8.294294294,0.371708984,-0.273061523,0,0,0,0,51,51,54,1,70,69214,N,180,2022-02-24_10h30.01.980,orientation adjustment blockN,2021.2.3,MacIntel,59.97361161,,,,,,,
,,,,,,,,,,,,,,,,,53.88888889,-39,20,75,-36.11111111,2.888888889,2.888888889,-0.15284668,-0.392744141,1,0,0,1.2174,submitButton,8.152046784,0.315263672,-0.249785156,0,0,0,0,52,52,23,1,39,69214,N,180,2022-02-24_10h30.01.980,orientation adjustment blockN,2021.2.3,MacIntel,59.97361161,,,,,,,
,,,,,,,,,,,,,,,,,45.55555556,30,20,75,47.55555556,17.55555556,17.55555556,0.356621094,-0.317592773,1,0,0,0.0993,submitButton,8.393162393,0.362758789,-0.226616211,0,0,0,0,53,53,14,1,30,69214,N,180,2022-02-24_10h30.01.980,orientation adjustment blockN,2021.2.3,MacIntel,59.97361161,,,,,,,
,,,,,,,,,,,,,,,,,-30,-18,20,75,-15,3,3,-0.212329102,-0.375332031,1,0,0,1.067,submitButton,8.258333333,0.14574707,-0.30480957,0,0,0,0,54,54,2,1,18,69214,N,180,2022-02-24_10h30.01.980,orientation adjustment blockN,2021.2.3,MacIntel,59.97361161,,,,,,,
,,,,,,,,,,,,,,,,,-51.11111111,-22,20,75,-32.11111111,10.11111111,10.11111111,-0.186308594,-0.413271484,1,0,0,1.001,submitButton,8.303523035,0.175541992,-0.282041016,0,0,0,0,55,55,6,1,22,69214,N,180,2022-02-24_10h30.01.980,orientation adjustment blockN,2021.2.3,MacIntel,59.97361161,,,,,,,
,,,,,,,,,,,,,,,,,-67.22222222,66,20,75,52.77777778,13.22222222,13.22222222,-0.222963867,-0.396269531,1,0,0,1.3328,submitButton,8.420634921,0.238901367,-0.208120117,0,0,0,0,56,56,50,1,66,69214,N,180,2022-02-24_10h30.01.980,orientation adjustment blockN,2021.2.3,MacIntel,59.97361161,,,,,,,
,,,,,,,,,,,,,,,,,38.88888889,55,20,75,53.88888889,1.111111111,1.111111111,-0.206088867,-0.421430664,1,0,0,1.5172,submitButton,8.250645995,0.256723633,-0.3565625,0,0,0,0,57,57,39,1,55,69214,N,180,2022-02-24_10h30.01.980,orientation adjustment blockN,2021.2.3,MacIntel,59.97361161,,,,,,,
,,,,,,,,,,,,,,,,,43.88888889,57,20,75,57.88888889,0.888888889,0.888888889,-0.249448242,-0.394267578,1,0,0,1.4674,submitButton,8.083333333,0.221342773,-0.358676758,0,0,0,0,58,58,41,1,57,69214,N,180,2022-02-24_10h30.01.980,orientation adjustment blockN,2021.2.3,MacIntel,59.97361161,,,,,,,
,,,,,,,,,,,,,,,,,70.55555556,49,20,75,58.55555556,9.555555556,9.555555556,-0.189863281,-0.381635742,1,0,0,1.7352,submitButton,8.116049383,0.253735352,-0.407407227,1,0,0,0,59,59,33,1,49,69214,N,180,2022-02-24_10h30.01.980,orientation adjustment blockN,2021.2.3,MacIntel,59.97361161,continueButton,,,,,,
,,,,,,,,,,,,,,,,,28.33333333,29,20,75,36.33333333,7.333333333,7.333333333,-0.275341797,-0.405004883,1,0,0,0.4989,submitButton,8.099033816,0.260239258,-0.264365234,0,0,0,1,0,60,13,1,29,69214,N,180,2022-02-24_10h30.01.980,orientation adjustment blockN,2021.2.3,MacIntel,59.97361161,,,,,,,
,,,,,,,,,,,,,,,,,53.33333333,46,20,75,33.33333333,12.66666667,12.66666667,0.380991211,-0.29956543,1,0,0,0.0833,submitButton,8.196217494,0.287705078,-0.294511719,0,0,0,1,1,61,30,1,46,69214,N,180,2022-02-24_10h30.01.980,orientation adjustment blockN,2021.2.3,MacIntel,59.97361161,,,,,,,
,,,,,,,,,,,,,,,,,34.44444444,19,20,75,24.44444444,5.444444444,5.444444444,-0.229291992,-0.352695313,1,0,0,0.6149,submitButton,8.138888889,0.195683594,-0.360195312,0,0,0,1,2,62,3,1,19,69214,N,180,2022-02-24_10h30.01.980,orientation adjustment blockN,2021.2.3,MacIntel,59.97361161,,,,,,,
,,,,,,,,,,,,,,,,,45.55555556,39,20,75,45.55555556,6.555555556,6.555555556,-0.119008789,-0.38203125,1,0,0,1.1173,submitButton,8.106575964,0.305517578,-0.312797852,0,0,0,1,3,63,23,1,39,69214,N,180,2022-02-24_10h30.01.980,orientation adjustment blockN,2021.2.3,MacIntel,59.97361161,,,,,,,
,,,,,,,,,,,,,,,,,62.22222222,-72,20,75,-58.77777778,13.22222222,13.22222222,-0.172646484,-0.401713867,1,0,0,1.303,submitButton,8.208888889,0.270693359,-0.301669922,0,0,0,1,4,64,56,1,72,69214,N,180,2022-02-24_10h30.01.980,orientation adjustment blockN,2021.2.3,MacIntel,59.97361161,,,,,,,
,,,,,,,,,,,,,,,,,-69.44444444,38,20,75,23.55555556,14.44444444,14.44444444,-0.189726563,-0.371333008,1,0,0,1.0514,submitButton,8.331154684,0.246748047,-0.350766602,0,0,0,1,5,65,22,1,38,69214,N,180,2022-02-24_10h30.01.980,orientation adjustment blockN,2021.2.3,MacIntel,59.97361161,,,,,,,
,,,,,,,,,,,,,,,,,-29.44444444,-52,20,75,-49.44444444,2.555555556,2.555555556,-0.270332031,-0.340859375,1,0,0,0.9512,submitButton,8.22008547,-0.270795898,-0.390249023,0,0,0,1,6,66,36,1,52,69214,N,180,2022-02-24_10h30.01.980,orientation adjustment blockN,2021.2.3,MacIntel,59.97361161,,,,,,,
,,,,,,,,,,,,,,,,,-27.22222222,-48,20,75,-56.22222222,8.222222222,8.222222222,0.151401367,-0.256489258,1,0,0,0.0493,submitButton,8.220125786,0.05715332,-0.261958008,0,0,0,1,7,67,32,1,48,69214,N,180,2022-02-24_10h30.01.980,orientation adjustment blockN,2021.2.3,MacIntel,59.97361161,,,,,,,
,,,,,,,,,,,,,,,,,-66.66666667,-69,20,75,-71.66666667,2.666666667,2.666666667,0.123876953,-0.298813477,1,0,0,0.0501,submitButton,8.117283951,0.184379883,-0.243554688,0,0,0,1,8,68,53,1,69,69214,N,180,2022-02-24_10h30.01.980,orientation adjustment blockN,2021.2.3,MacIntel,59.97361161,,,,,,,
,,,,,,,,,,,,,,,,,67.22222222,68,20,75,83.22222222,15.22222222,15.22222222,-0.225175781,-0.395800781,1,0,0,1.484,submitButton,8.246464646,0.149013672,-0.261787109,0,0,0,1,9,69,52,1,68,69214,N,180,2022-02-24_10h30.01.980,orientation adjustment blockN,2021.2.3,MacIntel,59.97361161,,,,,,,
,,,,,,,,,,,,,,,,,-74.44444444,56,20,75,49.55555556,6.444444444,6.444444444,-0.164282227,-0.403891602,1,0,0,1.3509,submitButton,8.214285714,0.126660156,-0.329213867,0,0,0,1,10,70,40,1,56,69214,N,180,2022-02-24_10h30.01.980,orientation adjustment blockN,2021.2.3,MacIntel,59.97361161,,,,,,,
,,,,,,,,,,,,,,,,,25,40,20,75,38,2,2,-0.209179687,-0.372675781,1,0,0,0.8175,submitButton,8.105263158,-0.209179687,-0.372675781,0,0,0,1,11,71,24,1,40,69214,N,180,2022-02-24_10h30.01.980,orientation adjustment blockN,2021.2.3,MacIntel,59.97361161,,,,,,,
,,,,,,,,,,,,,,,,,-61.11111111,34,20,75,34.88888889,0.888888889,0.888888889,-0.218081055,-0.404057617,1,0,0,1.2337,submitButton,7.980842912,0.194609375,-0.342993164,0,0,0,1,12,72,18,1,34,69214,N,180,2022-02-24_10h30.01.980,orientation adjustment blockN,2021.2.3,MacIntel,59.97361161,,,,,,,
,,,,,,,,,,,,,,,,,37.77777778,42,20,75,43.77777778,1.777777778,1.777777778,-0.251401367,-0.428740234,1,0,0,1.2512,submitButton,7.875706215,0.219682617,-0.330268555,0,0,0,1,13,73,26,1,42,69214,N,180,2022-02-24_10h30.01.980,orientation adjustment blockN,2021.2.3,MacIntel,59.97361161,,,,,,,
,,,,,,,,,,,,,,,,,38.33333333,-30,20,75,-22.66666667,7.333333333,7.333333333,-0.202666016,-0.408129883,1,0,0,0.533,submitButton,7.866666667,0.315288086,-0.390483398,1,0,0,1,14,74,14,1,30,69214,N,180,2022-02-24_10h30.01.980,orientation adjustment blockN,2021.2.3,MacIntel,59.97361161,continueButton,,,,,,
,,,,,,,,,,,,,,,,,-24.44444444,16,20,75,18.55555556,2.555555556,2.555555556,-0.190517578,-0.358583984,1,0,0,0.5841,submitButton,7.779599271,0.166103516,-0.283178711,0,0,0,1,15,75,0,1,16,69214,N,180,2022-02-24_10h30.01.980,orientation adjustment blockN,2021.2.3,MacIntel,59.97361161,,,,,,,
,,,,,,,,,,,,,,,,,-45.55555556,23,20,75,24.44444444,1.444444444,1.444444444,-0.196645508,-0.409316406,1,0,0,1.0674,submitButton,7.677419355,0.138139648,-0.276953125,0,0,0,1,16,76,7,1,23,69214,N,180,2022-02-24_10h30.01.980,orientation adjustment blockN,2021.2.3,MacIntel,59.97361161,,,,,,,
,,,,,,,,,,,,,,,,,27.77777778,27,20,75,22.77777778,4.222222222,4.222222222,-0.191152344,-0.358305664,1,0,0,0.9171,submitButton,7.622574956,0.119042969,-0.257973633,0,0,0,1,17,77,11,1,27,69214,N,180,2022-02-24_10h30.01.980,orientation adjustment blockN,2021.2.3,MacIntel,59.97361161,,,,,,,
,,,,,,,,,,,,,,,,,-73.88888889,73,20,75,50.11111111,22.88888889,22.88888889,-0.16449707,-0.403554688,1,0,0,0.9172,submitButton,7.861111111,0.1828125,-0.280795898,0,0,0,1,18,78,57,1,73,69214,N,180,2022-02-24_10h30.01.980,orientation adjustment blockN,2021.2.3,MacIntel,59.97361161,,,,,,,
,,,,,,,,,,,,,,,,,-43.33333333,-74,20,75,-240.3333333,13.66666667,13.66666667,-0.148730469,-0.369863281,1,0,0,2.0015,submitButton,7.95042735,0.206142578,-0.308334961,0,0,0,1,19,79,58,1,74,69214,N,180,2022-02-24_10h30.01.980,orientation adjustment blockN,2021.2.3,MacIntel,59.97361161,,,,,,,
,,,,,,,,,,,,,,,,,-57.22222222,70,20,75,51.77777778,18.22222222,18.22222222,-0.193349609,-0.402216797,1,0,0,0.8675,submitButton,8.106060606,0.220112305,-0.320722656,0,0,0,1,20,80,54,1,70,69214,N,180,2022-02-24_10h30.01.980,orientation adjustment blockN,2021.2.3,MacIntel,59.97361161,,,,,,,
,,,,,,,,,,,,,,,,,-50,45,20,75,51,6,6,-0.141640625,-0.385961914,1,0,0,0.9846,submitButton,8.074626866,0.217021484,-0.288251953,0,0,0,1,21,81,29,1,45,69214,N,180,2022-02-24_10h30.01.980,orientation adjustment blockN,2021.2.3,MacIntel,59.97361161,,,,,,,
,,,,,,,,,,,,,,,,,27.77777778,26,20,75,31.77777778,5.777777778,5.777777778,-0.06390625,-0.356152344,1,0,0,0.6363,submitButton,8.040849673,0.199394531,-0.279077148,0,0,0,1,22,82,10,1,26,69214,N,180,2022-02-24_10h30.01.980,orientation adjustment blockN,2021.2.3,MacIntel,59.97361161,,,,,,,
,,,,,,,,,,,,,,,,,43.33333333,-43,20,75,-34.66666667,8.333333333,8.333333333,-0.291572266,-0.43140625,1,0,0,0.9503,submitButton,8.045088567,0.131176758,-0.376889648,0,0,0,1,23,83,27,1,43,69214,N,180,2022-02-24_10h30.01.980,orientation adjustment blockN,2021.2.3,MacIntel,59.97361161,,,,,,,
,,,,,,,,,,,,,,,,,48.88888889,-47,20,75,-38.11111111,8.888888889,8.888888889,-0.23762207,-0.407319336,1,0,0,0.9342,submitButton,8.057142857,0.156689453,-0.314086914,0,0,0,1,24,84,31,1,47,69214,N,180,2022-02-24_10h30.01.980,orientation adjustment blockN,2021.2.3,MacIntel,59.97361161,,,,,,,
,,,,,,,,,,,,,,,,,44.44444444,-63,20,75,-55.55555556,7.444444444,7.444444444,-0.136914062,-0.319365234,1,0,0,0.584,submitButton,8.048513302,0.130727539,-0.253330078,0,0,0,1,25,85,47,1,63,69214,N,180,2022-02-24_10h30.01.980,orientation adjustment blockN,2021.2.3,MacIntel,59.97361161,,,,,,,
,,,,,,,,,,,,,,,,,-51.66666667,32,20,75,26.33333333,5.666666667,5.666666667,-0.221943359,-0.370551758,1,0,0,0.7684,submitButton,8.015432099,0.097700195,-0.27559082,0,0,0,1,26,86,16,1,32,69214,N,180,2022-02-24_10h30.01.980,orientation adjustment blockN,2021.2.3,MacIntel,59.97361161,,,,,,,
,,,,,,,,,,,,,,,,,-64.44444444,44,20,75,-30.44444444,74.44444444,74.44444444,0.215932617,-0.311176758,1,0,0,0.9183,submitButton,8.925418569,0.087885742,-0.342109375,0,0,0,1,27,87,28,1,44,69214,N,180,2022-02-24_10h30.01.980,orientation adjustment blockN,2021.2.3,MacIntel,59.97361161,,,,,,,
,,,,,,,,,,,,,,,,,-71.11111111,-50,20,75,-224.1111111,5.888888889,5.888888889,-0.222026367,-0.368642578,1,0,0,2.0828,submitButton,8.884384384,0.147348633,-0.257001953,0,0,0,1,28,88,34,1,50,69214,N,180,2022-02-24_10h30.01.980,orientation adjustment blockN,2021.2.3,MacIntel,59.97361161,,,,,,,
,,,,,,,,,,,,,,,,,67.22222222,-54,20,75,-35.77777778,18.22222222,18.22222222,-0.120283203,-0.39590332,1,0,0,1.1525,submitButton,9.008888889,0.318129883,-0.421850586,1,0,0,1,29,89,38,1,54,69214,N,180,2022-02-24_10h30.01.980,orientation adjustment blockN,2021.2.3,MacIntel,59.97361161,continueButton,,,,,,
,,,,,,,,,,,,,,,,,-33.88888889,-31,20,75,-64.88888889,33.88888889,33.88888889,-0.182182617,-0.383564453,1,0,0,1.734,submitButton,9.33625731,0.019003906,-0.258476563,0,0,0,1,30,90,15,1,31,69214,N,180,2022-02-24_10h30.01.980,orientation adjustment blockN,2021.2.3,MacIntel,59.97361161,,,,,,,
,,,,,,,,,,,,,,,,,-25.55555556,-24,20,75,-22.55555556,1.444444444,1.444444444,-0.162607422,-0.370639648,1,0,0,0.6003,submitButton,9.233766234,0.095668945,-0.240175781,0,0,0,1,31,91,8,1,24,69214,N,180,2022-02-24_10h30.01.980,orientation adjustment blockN,2021.2.3,MacIntel,59.97361161,,,,,,,
,,,,,,,,,,,,,,,,,38.33333333,-57,20,75,-47.66666667,9.333333333,9.333333333,-0.226308594,-0.382436523,1,0,0,0.6834,submitButton,9.235042735,0.316499023,-0.227651367,0,0,0,1,32,92,41,1,57,69214,N,180,2022-02-24_10h30.01.980,orientation adjustment blockN,2021.2.3,MacIntel,59.97361161,,,,,,,
,,,,,,,,,,,,,,,,,20,-22,20,75,-24,2,2,-0.1828125,-0.394677734,1,0,0,0.835,submitButton,9.143459916,0.192592773,-0.24315918,0,0,0,1,33,93,6,1,22,69214,N,180,2022-02-24_10h30.01.980,orientation adjustment blockN,2021.2.3,MacIntel,59.97361161,,,,,,,
,,,,,,,,,,,,,,,,,21.11111111,35,20,75,33.11111111,1.888888889,1.888888889,-0.204648438,-0.396362305,1,0,0,1.0844,submitButton,9.052777778,0.131904297,-0.291113281,0,0,0,1,34,94,19,1,35,69214,N,180,2022-02-24_10h30.01.980,orientation adjustment blockN,2021.2.3,MacIntel,59.97361161,,,,,,,
,,,,,,,,,,,,,,,,,-51.11111111,18,20,75,15.88888889,2.111111111,2.111111111,-0.26996582,-0.412915039,1,0,0,1.2842,submitButton,8.967078189,0.228500977,-0.316875,0,0,0,1,35,95,2,1,18,69214,N,180,2022-02-24_10h30.01.980,orientation adjustment blockN,2021.2.3,MacIntel,59.97361161,,,,,,,
,,,,,,,,,,,,,,,,,67.77777778,59,20,75,51.77777778,7.222222222,7.222222222,0.480263672,-0.284711914,1,0,0,0.1341,submitButton,8.945799458,0.33550293,-0.177905273,0,0,0,1,36,96,43,1,59,69214,N,180,2022-02-24_10h30.01.980,orientation adjustment blockN,2021.2.3,MacIntel,59.97361161,,,,,,,
,,,,,,,,,,,,,,,,,-50,61,20,75,48,13,13,-0.184458008,-0.352578125,1,0,0,0.7006,submitButton,8.994645248,0.261088867,-0.26746582,0,0,0,1,37,97,45,1,61,69214,N,180,2022-02-24_10h30.01.980,orientation adjustment blockN,2021.2.3,MacIntel,59.97361161,,,,,,,
,,,,,,,,,,,,,,,,,36.66666667,-28,20,75,-21.33333333,6.666666667,6.666666667,-0.184780273,-0.379975586,1,0,0,0.8673,submitButton,8.966931217,0.201728516,-0.321630859,0,0,0,1,38,98,12,1,28,69214,N,180,2022-02-24_10h30.01.980,orientation adjustment blockN,2021.2.3,MacIntel,59.97361161,,,,,,,
,,,,,,,,,,,,,,,,,-26.66666667,58,20,75,58.33333333,0.333333333,0.333333333,-0.172016602,-0.398974609,1,0,0,0.7506,submitButton,8.865359477,0.15628418,-0.322485352,0,0,0,1,39,99,42,1,58,69214,N,180,2022-02-24_10h30.01.980,orientation adjustment blockN,2021.2.3,MacIntel,59.97361161,,,,,,,
,,,,,,,,,,,,,,,,,-53.33333333,33,20,75,32.66666667,0.333333333,0.333333333,-0.114838867,-0.396577148,1,0,0,1.1008,submitButton,8.766149871,0.312407227,-0.308896484,0,0,0,1,40,100,17,1,33,69214,N,180,2022-02-24_10h30.01.980,orientation adjustment blockN,2021.2.3,MacIntel,59.97361161,,,,,,,
,,,,,,,,,,,,,,,,,-23.33333333,75,20,75,77.66666667,2.666666667,2.666666667,-0.120112305,-0.402680664,1,0,0,0.5665,submitButton,8.696040868,0.292348633,-0.303237305,0,0,0,1,41,101,59,1,75,69214,N,180,2022-02-24_10h30.01.980,orientation adjustment blockN,2021.2.3,MacIntel,59.97361161,,,,,,,
,,,,,,,,,,,,,,,,,38.33333333,-71,20,75,-72.66666667,1.666666667,1.666666667,0.380141602,-0.309291992,1,0,0,0.0173,submitButton,8.616161616,0.300097656,-0.321821289,0,0,0,1,42,102,55,1,71,69214,N,180,2022-02-24_10h30.01.980,orientation adjustment blockN,2021.2.3,MacIntel,59.97361161,,,,,,,
,,,,,,,,,,,,,,,,,23.88888889,49,20,75,51.88888889,2.888888889,2.888888889,-0.211313477,-0.432270508,1,0,0,0.6342,submitButton,8.551810237,0.249936523,-0.315029297,0,0,0,1,43,103,33,1,49,69214,N,180,2022-02-24_10h30.01.980,orientation adjustment blockN,2021.2.3,MacIntel,59.97361161,,,,,,,
,,,,,,,,,,,,,,,,,-36.11111111,-55,20,75,-60.11111111,5.111111111,5.111111111,-0.192958984,-0.402226562,1,0,0,0.6337,submitButton,8.513580247,0.357163086,-0.414492187,1,0,0,1,44,104,39,1,55,69214,N,180,2022-02-24_10h30.01.980,orientation adjustment blockN,2021.2.3,MacIntel,59.97361161,continueButton,,,,,,
,,,,,,,,,,,,,,,,,28.88888889,-60,20,75,-114.1111111,54.11111111,54.11111111,0.417705078,-0.335273437,1,0,0,0.1839,submitButton,9.014652015,0.348881836,-0.290102539,0,0,0,1,45,105,44,1,60,69214,N,180,2022-02-24_10h30.01.980,orientation adjustment blockN,2021.2.3,MacIntel,59.97361161,,,,,,,
,,,,,,,,,,,,,,,,,27.77777778,-67,20,75,-67.22222222,0.222222222,0.222222222,-0.214506836,-0.382353516,1,0,0,0.8167,submitButton,8.919082126,0.172797852,-0.302021484,0,0,0,1,46,106,51,1,67,69214,N,180,2022-02-24_10h30.01.980,orientation adjustment blockN,2021.2.3,MacIntel,59.97361161,,,,,,,
,,,,,,,,,,,,,,,,,62.77777778,25,20,75,39.77777778,14.77777778,14.77777778,-0.171552734,-0.408364258,1,0,0,1.0507,submitButton,8.982078853,0.297363281,-0.275717773,0,0,0,1,47,107,9,1,25,69214,N,180,2022-02-24_10h30.01.980,orientation adjustment blockN,2021.2.3,MacIntel,59.97361161,,,,,,,
,,,,,,,,,,,,,,,,,-71.66666667,-53,20,75,-53.66666667,0.666666667,0.666666667,-0.17027832,-0.378085938,1,0,0,1.5674,submitButton,8.893617021,0.196264648,-0.279355469,0,0,0,1,48,108,37,1,53,69214,N,180,2022-02-24_10h30.01.980,orientation adjustment blockN,2021.2.3,MacIntel,59.97361161,,,,,,,
,,,,,,,,,,,,,,,,,-58.33333333,-17,20,75,-41.33333333,24.33333333,24.33333333,-0.14512207,-0.367709961,1,0,0,0.6663,submitButton,9.056140351,0.172128906,-0.31543457,0,0,0,1,49,109,1,1,17,69214,N,180,2022-02-24_10h30.01.980,orientation adjustment blockN,2021.2.3,MacIntel,59.97361161,,,,,,,
,,,,,,,,,,,,,,,,,-64.44444444,64,20,75,-107.4444444,8.555555556,8.555555556,-0.140532227,-0.401816406,1,0,0,2.2348,submitButton,9.050925926,0.291176758,-0.294887695,0,0,0,1,50,110,48,1,64,69214,N,180,2022-02-24_10h30.01.980,orientation adjustment blockN,2021.2.3,MacIntel,59.97361161,,,,,,,
,,,,,,,,,,,,,,,,,-63.88888889,-62,20,75,-70.88888889,8.888888889,8.888888889,-0.155112305,-0.367250977,1,0,0,1.1329,submitButton,9.049255441,0.175283203,-0.338056641,0,0,0,1,51,111,46,1,62,69214,N,180,2022-02-24_10h30.01.980,orientation adjustment blockN,2021.2.3,MacIntel,59.97361161,,,,,,,
,,,,,,,,,,,,,,,,,53.33333333,65,20,75,70.33333333,5.333333333,5.333333333,0.399951172,-0.302182617,1,0,0,0.017,submitButton,9.011337868,0.292348633,-0.30140625,0,0,0,1,52,112,49,1,65,69214,N,180,2022-02-24_10h30.01.980,orientation adjustment blockN,2021.2.3,MacIntel,59.97361161,,,,,,,
,,,,,,,,,,,,,,,,,-23.88888889,-66,20,75,-59.88888889,6.111111111,6.111111111,-0.184091797,-0.33765625,1,0,0,0.4675,submitButton,8.982042649,0.179799805,-0.330644531,0,0,0,1,53,113,50,1,66,69214,N,180,2022-02-24_10h30.01.980,orientation adjustment blockN,2021.2.3,MacIntel,59.97361161,,,,,,,
,,,,,,,,,,,,,,,,,20,-20,20,75,-24,4,4,-0.332167969,-0.388740234,1,0,0,0.8335,submitButton,8.932222222,0.352026367,-0.344765625,0,0,0,1,54,114,4,1,20,69214,N,180,2022-02-24_10h30.01.980,orientation adjustment blockN,2021.2.3,MacIntel,59.97361161,,,,,,,
,,,,,,,,,,,,,,,,,53.88888889,-51,20,75,-33.11111111,17.88888889,17.88888889,-0.266484375,-0.382456055,1,0,0,0.8505,submitButton,9.02090209,0.168139648,-0.297553711,0,0,0,1,55,115,35,1,51,69214,N,180,2022-02-24_10h30.01.980,orientation adjustment blockN,2021.2.3,MacIntel,59.97361161,,,,,,,
,,,,,,,,,,,,,,,,,67.22222222,-41,20,75,-24.77777778,16.22222222,16.22222222,-0.236489258,-0.393427734,1,0,0,1.3006,submitButton,9.091503268,0.327880859,-0.275405273,0,0,0,1,56,116,25,1,41,69214,N,180,2022-02-24_10h30.01.980,orientation adjustment blockN,2021.2.3,MacIntel,59.97361161,,,,,,,
,,,,,,,,,,,,,,,,,25.55555556,-37,20,75,-24.44444444,12.55555556,12.55555556,-0.10347168,-0.372636719,1,0,0,0.4339,submitButton,9.125134844,0.258803711,-0.357021484,0,0,0,1,57,117,21,1,37,69214,N,180,2022-02-24_10h30.01.980,orientation adjustment blockN,2021.2.3,MacIntel,59.97361161,,,,,,,
,,,,,,,,,,,,,,,,,-52.77777778,21,20,75,17.22222222,3.777777778,3.777777778,-0.19012207,-0.416088867,1,0,0,0.784,submitButton,9.073717949,0.191123047,-0.253286133,0,0,0,1,58,118,5,1,21,69214,N,180,2022-02-24_10h30.01.980,orientation adjustment blockN,2021.2.3,MacIntel,59.97361161,,,,,,,
,,,,,,,,,,,,,,,,,69.44444444,-36,20,75,-19.55555556,16.44444444,16.44444444,-0.087333984,-0.413774414,1,0,0,0.9992,submitButton,9.143915344,0.3903125,-0.384580078,1,0,0,1,59,119,20,1,36,69214,N,180,2022-02-24_10h30.01.980,orientation adjustment blockN,2021.2.3,MacIntel,59.97361161,continueButton,,,,,,
,,,,,,,,,,,,,,,,,65.55555556,-19,20,75,-15.44444444,3.555555556,3.555555556,-0.194526367,-0.405512695,1,0,0,1.3172,submitButton,9.091194969,0.295351562,-0.280361328,0,0,0,2,0,120,3,1,19,69214,N,180,2022-02-24_10h30.01.980,orientation adjustment blockN,2021.2.3,MacIntel,59.97361161,,,,,,,
,,,,,,,,,,,,,,,,,28.88888889,32,20,75,38.88888889,6.888888889,6.888888889,0.447167969,-0.316816406,1,0,0,0.0995,submitButton,9.070612669,0.317329102,-0.314584961,0,0,0,2,1,121,16,1,32,69214,N,180,2022-02-24_10h30.01.980,orientation adjustment blockN,2021.2.3,MacIntel,59.97361161,,,,,,,
,,,,,,,,,,,,,,,,,67.77777778,-28,20,75,-23.22222222,4.777777778,4.777777778,-0.282255859,-0.410576172,1,0,0,1.385,submitButton,9.030864198,0.270317383,-0.326245117,0,0,0,2,2,122,12,1,28,69214,N,180,2022-02-24_10h30.01.980,orientation adjustment blockN,2021.2.3,MacIntel,59.97361161,,,,,,,
,,,,,,,,,,,,,,,,,-46.11111111,74,20,75,59.88888889,14.11111111,14.11111111,-0.261123047,-0.41121582,1,0,0,0.8337,submitButton,9.077471967,0.213378906,-0.393754883,0,0,0,2,3,123,58,1,74,69214,N,180,2022-02-24_10h30.01.980,orientation adjustment blockN,2021.2.3,MacIntel,59.97361161,,,,,,,
,,,,,,,,,,,,,,,,,46.66666667,-43,20,75,-38.33333333,4.666666667,4.666666667,-0.131845703,-0.409921875,1,0,0,0.7004,submitButton,9.037373737,0.2715625,-0.316772461,0,0,0,2,4,124,27,1,43,69214,N,180,2022-02-24_10h30.01.980,orientation adjustment blockN,2021.2.3,MacIntel,59.97361161,,,,,,,
,,,,,,,,,,,,,,,,,-49.44444444,-29,20,75,-42.44444444,13.44444444,13.44444444,-0.124511719,-0.384443359,1,0,0,0.7019,submitButton,9.077077077,0.231782227,-0.308740234,0,0,0,2,5,125,13,1,29,69214,N,180,2022-02-24_10h30.01.980,orientation adjustment blockN,2021.2.3,MacIntel,59.97361161,,,,,,,
,,,,,,,,,,,,,,,,,-66.66666667,52,20,75,30.33333333,21.66666667,21.66666667,-0.203266602,-0.388745117,1,0,0,0.7674,submitButton,9.189484127,0.167744141,-0.297255859,0,0,0,2,6,126,36,1,52,69214,N,180,2022-02-24_10h30.01.980,orientation adjustment blockN,2021.2.3,MacIntel,59.97361161,,,,,,,
,,,,,,,,,,,,,,,,,67.22222222,-51,20,75,-33.77777778,17.22222222,17.22222222,-0.230507812,-0.400166016,1,0,0,1.0014,submitButton,9.260570305,0.22359375,-0.274477539,0,0,0,2,7,127,35,1,51,69214,N,180,2022-02-24_10h30.01.980,orientation adjustment blockN,2021.2.3,MacIntel,59.97361161,,,,,,,
,,,,,,,,,,,,,,,,,-52.22222222,-60,20,75,-73.22222222,13.22222222,13.22222222,-0.211865234,-0.390595703,1,0,0,0.8004,submitButton,9.295321637,0.180415039,-0.351308594,0,0,0,2,8,128,44,1,60,69214,N,180,2022-02-24_10h30.01.980,orientation adjustment blockN,2021.2.3,MacIntel,59.97361161,,,,,,,
,,,,,,,,,,,,,,,,,21.11111111,-31,20,75,-34.88888889,3.888888889,3.888888889,-0.322646484,-0.417490234,1,0,0,0.6001,submitButton,9.248309179,0.165522461,-0.261992187,0,0,0,2,9,129,15,1,31,69214,N,180,2022-02-24_10h30.01.980,orientation adjustment blockN,2021.2.3,MacIntel,59.97361161,,,,,,,
,,,,,,,,,,,,,,,,,52.22222222,-38,20,75,-24.77777778,13.22222222,13.22222222,-0.232182617,-0.407802734,1,0,0,0.7832,submitButton,9.28256705,0.34449707,-0.374614258,0,0,0,2,10,130,22,1,38,69214,N,180,2022-02-24_10h30.01.980,orientation adjustment blockN,2021.2.3,MacIntel,59.97361161,,,,,,,
,,,,,,,,,,,,,,,,,-45,-44,20,75,-58,14,14,-0.149765625,-0.367446289,1,0,0,0.682,submitButton,9.32288699,0.187260742,-0.300864258,0,0,0,2,11,131,28,1,44,69214,N,180,2022-02-24_10h30.01.980,orientation adjustment blockN,2021.2.3,MacIntel,59.97361161,,,,,,,
,,,,,,,,,,,,,,,,,-39.44444444,72,20,75,70.55555556,1.444444444,1.444444444,0.110571289,-0.286518555,1,0,0,0.2348,submitButton,9.256120527,0.320786133,-0.270351562,0,0,0,2,12,132,56,1,72,69214,N,180,2022-02-24_10h30.01.980,orientation adjustment blockN,2021.2.3,MacIntel,59.97361161,,,,,,,
,,,,,,,,,,,,,,,,,42.22222222,-21,20,75,-19.77777778,1.222222222,1.222222222,-0.177104492,-0.417138672,1,0,0,0.7183,submitButton,9.188608777,0.133442383,-0.324501953,0,0,0,2,13,133,5,1,21,69214,N,180,2022-02-24_10h30.01.980,orientation adjustment blockN,2021.2.3,MacIntel,59.97361161,,,,,,,
,,,,,,,,,,,,,,,,,23.33333333,47,20,75,43.33333333,3.666666667,3.666666667,-0.088515625,-0.391328125,1,0,0,0.6673,submitButton,9.142592593,0.301376953,-0.407822266,1,0,0,2,14,134,31,1,47,69214,N,180,2022-02-24_10h30.01.980,orientation adjustment blockN,2021.2.3,MacIntel,59.97361161,continueButton,,,,,,
,,,,,,,,,,,,,,,,,-43.33333333,-46,20,75,-51.33333333,5.333333333,5.333333333,-0.136225586,-0.34487793,1,0,0,0.6005,submitButton,9.111111111,0.083535156,-0.282080078,0,0,0,2,15,135,30,1,46,69214,N,180,2022-02-24_10h30.01.980,orientation adjustment blockN,2021.2.3,MacIntel,59.97361161,,,,,,,
,,,,,,,,,,,,,,,,,-25.55555556,-61,20,75,-63.55555556,2.555555556,2.555555556,-0.261884766,-0.399267578,1,0,0,0.5663,submitButton,9.057377049,-0.035239258,-0.360004883,0,0,0,2,16,136,45,1,61,69214,N,180,2022-02-24_10h30.01.980,orientation adjustment blockN,2021.2.3,MacIntel,59.97361161,,,,,,,
,,,,,,,,,,,,,,,,,-45.55555556,-36,20,75,-51.55555556,15.55555556,15.55555556,-0.234482422,-0.426171875,1,0,0,0.4835,submitButton,9.110207769,0.097260742,-0.326333008,0,0,0,2,17,137,20,1,36,69214,N,180,2022-02-24_10h30.01.980,orientation adjustment blockN,2021.2.3,MacIntel,59.97361161,,,,,,,
,,,,,,,,,,,,,,,,,-46.11111111,-54,20,75,-110.1111111,56.11111111,56.11111111,0.371772461,-0.283427734,1,0,0,0.4659,submitButton,9.489247312,0.208686523,-0.318149414,0,0,0,2,18,138,38,1,54,69214,N,180,2022-02-24_10h30.01.980,orientation adjustment blockN,2021.2.3,MacIntel,59.97361161,,,,,,,
,,,,,,,,,,,,,,,,,29.44444444,-66,20,75,-68.55555556,2.555555556,2.555555556,0.379838867,-0.32765625,1,0,0,0.217,submitButton,9.433777778,0.018505859,-0.280966797,0,0,0,2,19,139,50,1,66,69214,N,180,2022-02-24_10h30.01.980,orientation adjustment blockN,2021.2.3,MacIntel,59.97361161,,,,,,,
,,,,,,,,,,,,,,,,,57.22222222,-57,20,75,-40.77777778,16.22222222,16.22222222,-0.225288086,-0.408637695,1,0,0,1.2335,submitButton,9.487654321,0.227226563,-0.380014648,0,0,0,2,20,140,41,1,57,69214,N,180,2022-02-24_10h30.01.980,orientation adjustment blockN,2021.2.3,MacIntel,59.97361161,,,,,,,
,,,,,,,,,,,,,,,,,66.11111111,-26,20,75,-25.88888889,0.111111111,0.111111111,-0.175136719,-0.370532227,1,0,0,1.2333,submitButton,9.413823272,0.16,-0.172661133,0,0,0,2,21,141,10,1,26,69214,N,180,2022-02-24_10h30.01.980,orientation adjustment blockN,2021.2.3,MacIntel,59.97361161,,,,,,,
,,,,,,,,,,,,,,,,,20.55555556,45,20,75,49.55555556,4.555555556,4.555555556,0.425668945,-0.313530273,1,0,0,0.1003,submitButton,9.375868056,0.198588867,-0.190898437,0,0,0,2,22,142,29,1,45,69214,N,180,2022-02-24_10h30.01.980,orientation adjustment blockN,2021.2.3,MacIntel,59.97361161,,,,,,,
,,,,,,,,,,,,,,,,,39.44444444,65,20,75,63.44444444,1.555555556,1.555555556,-0.203520508,-0.427299805,1,0,0,1.101,submitButton,9.315245478,0.38222168,-0.293876953,0,0,0,2,23,143,49,1,65,69214,N,180,2022-02-24_10h30.01.980,orientation adjustment blockN,2021.2.3,MacIntel,59.97361161,,,,,,,
,,,,,,,,,,,,,,,,,35.55555556,-42,20,75,-27.44444444,14.55555556,14.55555556,-0.179760742,-0.31409668,1,0,0,0.5325,submitButton,9.355555556,0.311489258,-0.271274414,0,0,0,2,24,144,26,1,42,69214,N,180,2022-02-24_10h30.01.980,orientation adjustment blockN,2021.2.3,MacIntel,59.97361161,,,,,,,
,,,,,,,,,,,,,,,,,-21.11111111,-24,20,75,-26.11111111,2.111111111,2.111111111,-0.4040625,-0.43371582,1,0,0,0.4659,submitButton,9.300254453,0.087724609,-0.322797852,0,0,0,2,25,145,8,1,24,69214,N,180,2022-02-24_10h30.01.980,orientation adjustment blockN,2021.2.3,MacIntel,59.97361161,,,,,,,
,,,,,,,,,,,,,,,,,-27.77777778,-71,20,75,-72.77777778,1.777777778,1.777777778,-0.297792969,-0.380239258,1,0,0,0.6009,submitButton,9.243265993,0.274624023,-0.328120117,0,0,0,2,26,146,55,1,71,69214,N,180,2022-02-24_10h30.01.980,orientation adjustment blockN,2021.2.3,MacIntel,59.97361161,,,,,,,
,,,,,,,,,,,,,,,,,-60,67,20,75,44,23,23,-0.141240234,-0.393642578,1,0,0,0.8008,submitButton,9.346700084,0.096567383,-0.349477539,0,0,0,2,27,147,51,1,67,69214,N,180,2022-02-24_10h30.01.980,orientation adjustment blockN,2021.2.3,MacIntel,59.97361161,,,,,,,
,,,,,,,,,,,,,,,,,52.77777778,-25,20,75,-25.22222222,0.222222222,0.222222222,-0.179594727,-0.420039063,1,0,0,1.0675,submitButton,9.278606965,0.21309082,-0.27918457,0,0,0,2,28,148,9,1,25,69214,N,180,2022-02-24_10h30.01.980,orientation adjustment blockN,2021.2.3,MacIntel,59.97361161,,,,,,,
,,,,,,,,,,,,,,,,,30.55555556,-53,20,75,-45.44444444,7.555555556,7.555555556,-0.243769531,-0.410625,1,0,0,0.6521,submitButton,9.265843621,-0.243769531,-0.410625,0,0,0,2,29,149,37,1,53,69214,N,180,2022-02-24_10h30.01.980,orientation adjustment blockN,2021.2.3,MacIntel,59.97361161,,,,,,,
,,,,,,,,,,,,,,,,,-35.55555556,56,20,75,54.44444444,1.555555556,1.555555556,-0.190917969,-0.383066406,1,0,0,0.6013,submitButton,9.209150327,0.070219727,-0.282836914,0,0,0,2,30,150,40,1,56,69214,N,180,2022-02-24_10h30.01.980,orientation adjustment blockN,2021.2.3,MacIntel,59.97361161,,,,,,,
,,,,,,,,,,,,,,,,,-70.55555556,-22,20,75,-200.5555556,1.444444444,1.444444444,-0.239140625,-0.388642578,1,0,0,2.2522,submitButton,9.152473642,0.247319336,-0.24824707,0,0,0,2,31,151,6,1,22,69214,N,180,2022-02-24_10h30.01.980,orientation adjustment blockN,2021.2.3,MacIntel,59.97361161,,,,,,,
,,,,,,,,,,,,,,,,,-28.33333333,-18,20,75,-16.33333333,1.666666667,1.666666667,-0.109716797,-0.36815918,1,0,0,0.6525,submitButton,9.098228663,0.159135742,-0.228911133,0,0,0,2,32,152,2,1,18,69214,N,180,2022-02-24_10h30.01.980,orientation adjustment blockN,2021.2.3,MacIntel,59.97361161,,,,,,,
,,,,,,,,,,,,,,,,,29.44444444,59,20,75,56.44444444,2.555555556,2.555555556,0.341005859,-0.282280273,1,0,0,0.4194,submitButton,9.051159073,-0.458886719,-0.408916016,0,0,0,2,33,153,43,1,59,69214,N,180,2022-02-24_10h30.01.980,orientation adjustment blockN,2021.2.3,MacIntel,59.97361161,,,,,,,
,,,,,,,,,,,,,,,,,38.88888889,75,20,75,65.88888889,9.111111111,9.111111111,0.455019531,-0.289858398,1,0,0,0.0333,submitButton,9.051587302,0.34387207,-0.046323242,0,0,0,2,34,154,59,1,75,69214,N,180,2022-02-24_10h30.01.980,orientation adjustment blockN,2021.2.3,MacIntel,59.97361161,,,,,,,
,,,,,,,,,,,,,,,,,38.33333333,-27,20,75,-19.66666667,7.333333333,7.333333333,0.385981445,-0.30440918,1,0,0,0.4004,submitButton,9.039401103,0.416738281,-0.242319336,0,0,0,2,35,155,11,1,27,69214,N,180,2022-02-24_10h30.01.980,orientation adjustment blockN,2021.2.3,MacIntel,59.97361161,,,,,,,
,,,,,,,,,,,,,,,,,51.11111111,-55,20,75,-39.88888889,15.11111111,15.11111111,-0.25715332,-0.383237305,1,0,0,0.6353,submitButton,9.082159624,0.101884766,-0.308339844,0,0,0,2,36,156,39,1,55,69214,N,180,2022-02-24_10h30.01.980,orientation adjustment blockN,2021.2.3,MacIntel,59.97361161,,,,,,,
,,,,,,,,,,,,,,,,,-62.77777778,16,20,75,17.22222222,1.222222222,1.222222222,0.178017578,-0.321386719,1,0,0,1.0508,submitButton,9.027195027,0.204448242,-0.29706543,0,0,0,2,37,157,0,1,16,69214,N,180,2022-02-24_10h30.01.980,orientation adjustment blockN,2021.2.3,MacIntel,59.97361161,,,,,,,
,,,,,,,,,,,,,,,,,-27.77777778,37,20,75,26.22222222,10.77777778,10.77777778,0.202626953,-0.290039063,1,0,0,0.3007,submitButton,9.039351852,0.125185547,-0.296933594,0,0,0,2,38,158,21,1,37,69214,N,180,2022-02-24_10h30.01.980,orientation adjustment blockN,2021.2.3,MacIntel,59.97361161,,,,,,,
,,,,,,,,,,,,,,,,,-60,62,20,75,42,20,20,-0.223637695,-0.402070313,1,0,0,0.534,submitButton,9.114942529,0.119853516,-0.30987793,0,0,0,2,39,159,46,1,62,69214,N,180,2022-02-24_10h30.01.980,orientation adjustment blockN,2021.2.3,MacIntel,59.97361161,,,,,,,
,,,,,,,,,,,,,,,,,-70,-69,20,75,-229,20,20,-0.170917969,-0.426152344,1,0,0,1.9503,submitButton,9.189497717,0.244462891,-0.262446289,0,0,0,2,40,160,53,1,69,69214,N,180,2022-02-24_10h30.01.980,orientation adjustment blockN,2021.2.3,MacIntel,59.97361161,,,,,,,
,,,,,,,,,,,,,,,,,-43.88888889,-58,20,75,-66.88888889,8.888888889,8.888888889,-0.189511719,-0.417607422,1,0,0,0.7347,submitButton,9.187452759,0.064428711,-0.400029297,0,0,0,2,41,161,42,1,58,69214,N,180,2022-02-24_10h30.01.980,orientation adjustment blockN,2021.2.3,MacIntel,59.97361161,,,,,,,
,,,,,,,,,,,,,,,,,-58.33333333,33,20,75,29.66666667,3.333333333,3.333333333,-0.433071289,-0.480141602,1,0,0,0.8842,submitButton,9.147897898,0.208334961,-0.274389648,0,0,0,2,42,162,17,1,33,69214,N,180,2022-02-24_10h30.01.980,orientation adjustment blockN,2021.2.3,MacIntel,59.97361161,,,,,,,
,,,,,,,,,,,,,,,,,51.66666667,73,20,75,58.66666667,14.33333333,14.33333333,0.3975,-0.289179688,1,0,0,0.2006,submitButton,9.182699478,0.169912109,-0.304067383,0,0,0,2,43,163,57,1,73,69214,N,180,2022-02-24_10h30.01.980,orientation adjustment blockN,2021.2.3,MacIntel,59.97361161,,,,,,,
,,,,,,,,,,,,,,,,,50.55555556,-68,20,75,-60.44444444,7.555555556,7.555555556,-0.122993164,-0.384736328,1,0,0,1.2005,submitButton,9.171851852,0.193833008,-0.285283203,0,0,0,2,44,164,52,1,68,69214,N,180,2022-02-24_10h30.01.980,orientation adjustment blockN,2021.2.3,MacIntel,59.97361161,,,,,,,
,,,,,,,,,,,,,,,,,-54.44444444,64,20,75,63.55555556,0.444444444,0.444444444,-0.249746094,-0.403208008,1,0,0,1.1167,submitButton,9.114054452,0.130195312,-0.31206543,0,0,0,2,45,165,48,1,64,69214,N,180,2022-02-24_10h30.01.980,orientation adjustment blockN,2021.2.3,MacIntel,59.97361161,,,,,,,
,,,,,,,,,,,,,,,,,73.33333333,41,20,75,48.33333333,7.333333333,7.333333333,0.353930664,-0.279335938,1,0,0,0.1509,submitButton,9.102339181,0.361455078,-0.270107422,0,0,0,2,46,166,25,1,41,69214,N,180,2022-02-24_10h30.01.980,orientation adjustment blockN,2021.2.3,MacIntel,59.97361161,,,,,,,
,,,,,,,,,,,,,,,,,60.55555556,39,20,75,48.55555556,9.555555556,9.555555556,-0.138383789,-0.378408203,1,0,0,0.8831,submitButton,9.10530138,0.277050781,-0.258100586,0,0,0,2,47,167,23,1,39,69214,N,180,2022-02-24_10h30.01.980,orientation adjustment blockN,2021.2.3,MacIntel,59.97361161,,,,,,,
,,,,,,,,,,,,,,,,,68.88888889,34,20,75,54.88888889,20.88888889,20.88888889,-0.115390625,-0.371416016,1,0,0,0.7677,submitButton,9.181818182,0.447954102,-0.266420898,0,0,0,2,48,168,18,1,34,69214,N,180,2022-02-24_10h30.01.980,orientation adjustment blockN,2021.2.3,MacIntel,59.97361161,,,,,,,
,,,,,,,,,,,,,,,,,43.88888889,-49,20,75,-50.11111111,1.111111111,1.111111111,-0.185429687,-0.400703125,1,0,0,6.3533,submitButton,9.129749104,0.329555664,-0.280488281,0,0,0,2,49,169,33,1,49,69214,N,180,2022-02-24_10h30.01.980,orientation adjustment blockN,2021.2.3,MacIntel,59.97361161,,,,,,,
,,,,,,,,,,,,,,,,,72.77777778,50,20,75,215.7777778,14.22222222,14.22222222,0.224272461,-0.304248047,1,0,0,1.6008,submitButton,9.162393162,0.128549805,-0.340595703,0,0,0,2,50,170,34,1,50,69214,N,180,2022-02-24_10h30.01.980,orientation adjustment blockN,2021.2.3,MacIntel,59.97361161,,,,,,,
,,,,,,,,,,,,,,,,,53.88888889,-40,20,75,-34.11111111,5.888888889,5.888888889,-0.169833984,-0.38796875,1,0,0,1.1848,submitButton,9.141542817,0.063730469,-0.336616211,0,0,0,2,51,171,24,1,40,69214,N,180,2022-02-24_10h30.01.980,orientation adjustment blockN,2021.2.3,MacIntel,59.97361161,,,,,,,
,,,,,,,,,,,,,,,,,-45.55555556,23,20,75,21.44444444,1.555555556,1.555555556,-0.218144531,-0.388457031,1,0,0,1.2677,submitButton,9.093530239,0.154482422,-0.348525391,0,0,0,2,52,172,7,1,23,69214,N,180,2022-02-24_10h30.01.980,orientation adjustment blockN,2021.2.3,MacIntel,59.97361161,,,,,,,
,,,,,,,,,,,,,,,,,37.22222222,70,20,75,58.22222222,11.77777778,11.77777778,-0.238486328,-0.368540039,1,0,0,1.2839,submitButton,9.110412299,0.117373047,-0.297485352,0,0,0,2,53,173,54,1,70,69214,N,180,2022-02-24_10h30.01.980,orientation adjustment blockN,2021.2.3,MacIntel,59.97361161,,,,,,,
,,,,,,,,,,,,,,,,,-42.77777778,30,20,75,24.22222222,5.777777778,5.777777778,-0.270878906,-0.398632812,1,0,0,0.6326,submitButton,9.089583333,-0.270878906,-0.398632812,0,0,0,2,54,174,14,1,30,69214,N,180,2022-02-24_10h30.01.980,orientation adjustment blockN,2021.2.3,MacIntel,59.97361161,,,,,,,
,,,,,,,,,,,,,,,,,72.22222222,-20,20,75,-29.77777778,9.777777778,9.777777778,-0.257128906,-0.395488281,1,0,0,1.601,submitButton,9.093857833,0.137978516,-0.290375977,0,0,0,2,55,175,4,1,20,69214,N,180,2022-02-24_10h30.01.980,orientation adjustment blockN,2021.2.3,MacIntel,59.97361161,,,,,,,
,,,,,,,,,,,,,,,,,52.77777778,-35,20,75,-19.22222222,15.77777778,15.77777778,0.392524414,-0.27815918,1,0,0,0.132,submitButton,9.135116598,-0.285078125,-0.406054688,0,0,0,2,56,176,19,1,35,69214,N,180,2022-02-24_10h30.01.980,orientation adjustment blockN,2021.2.3,MacIntel,59.97361161,,,,,,,
,,,,,,,,,,,,,,,,,74.44444444,-17,20,75,-15.55555556,1.444444444,1.444444444,-0.414213867,-0.405366211,1,0,0,2.0177,submitButton,9.08793456,0.128378906,-0.260615234,0,0,0,2,57,177,1,1,17,69214,N,180,2022-02-24_10h30.01.980,orientation adjustment blockN,2021.2.3,MacIntel,59.97361161,,,,,,,
,,,,,,,,,,,,,,,,,50,48,20,75,47,1,1,0.45621582,-0.329711914,1,0,0,0.116,submitButton,9.038617886,0.130483398,-0.263154297,0,0,0,2,58,178,32,1,48,69214,N,180,2022-02-24_10h30.01.980,orientation adjustment blockN,2021.2.3,MacIntel,59.97361161,,,,,,,
,,,,,,,,,,,,,,,,,-32.77777778,63,20,75,55.22222222,7.777777778,7.777777778,-0.147485352,-0.312158203,1,0,0,0.5013,submitButton,9.030976431,-0.173183594,-0.374360352,0,0,0,2,59,179,47,1,63,69214,N,180,2022-02-24_10h30.01.980,orientation adjustment blockN,2021.2.3,MacIntel,59.97361161,,,,,,,
,,,,,,,,,,,,,,,,,,,,,,,,,,,,,,,,,,,,,,,,,,,69214,N,180,2022-02-24_10h30.01.980,orientation adjustment blockN,2021.2.3,MacIntel,59.97361161,,0.352431641,-0.418061523,1,0,0,EndButtonTxt
