consentMouse1.x,consentMouse1.y,consentMouse1.leftButton,consentMouse1.midButton,consentMouse1.rightButton,consentMouse1.clicked_name,consent_Mouse.x,consent_Mouse.y,consent_Mouse.leftButton,consent_Mouse.midButton,consent_Mouse.rightButton,consent_Mouse.clicked_name,startMouse.x,startMouse.y,startMouse.leftButton,startMouse.midButton,startMouse.rightButton,start_distance,fixedOri,minimalDistance,maxOri,this_ori,accuracy,presented_accuracy,submitMouse.x,submitMouse.y,submitMouse.leftButton,submitMouse.midButton,submitMouse.rightButton,submitMouse.time,submitMouse.clicked_name,block_accuracy,continueMouse.x,continueMouse.y,continueMouse.leftButton,continueMouse.midButton,continueMouse.rightButton,trials.thisRepN,trials.thisTrialN,trials.thisN,trials.thisIndex,trials.ran,startOri,participant,condition,nTrials,date,expName,psychopyVersion,OS,frameRate,continueMouse.clicked_name,EndButtonMouse.x,EndButtonMouse.y,EndButtonMouse.leftButton,EndButtonMouse.midButton,EndButtonMouse.rightButton,EndButtonMouse.clicked_name
0.424708523,-0.396127252,1,0,0,consent_button1,0.407675239,-0.413316583,1,0,0,consent_button,0.057212524,-0.362896932,1,0,0,-32.22222222,73,20,75,47.77777778,25.22222222,25.22222222,0.209404433,-0.301844279,1,0,0,5.0164,submitButton,25.22222222,-0.407836507,-0.412712674,0,0,0,0,0,0,57,1,73,69364,N,180,2022-02-16_13h58.08.364,orientation adjustment blockN,2021.2.3,MacIntel,59.99880002,,,,,,,
,,,,,,,,,,,,,,,,,-68.33333333,-57,20,75,-90.33333333,33.33333333,33.33333333,-0.03666843,-0.035879415,1,0,0,3.2507,submitButton,29.27777778,-0.318583238,-0.414790582,0,0,0,0,1,1,41,1,57,69364,N,180,2022-02-16_13h58.08.364,orientation adjustment blockN,2021.2.3,MacIntel,59.99880002,,,,,,,
,,,,,,,,,,,,,,,,,40,-35,20,75,-89,54,54,0.399305149,-0.287710232,1,0,0,0.8159,submitButton,37.51851852,-0.234715576,-0.411998562,0,0,0,0,2,2,19,1,35,69364,N,180,2022-02-16_13h58.08.364,orientation adjustment blockN,2021.2.3,MacIntel,59.99880002,,,,,,,
,,,,,,,,,,,,,,,,,-48.33333333,-45,20,75,-87.33333333,42.33333333,42.33333333,0.184641385,-0.298987766,1,0,0,0.7994,submitButton,42.33333333,-0.253230455,-0.402827827,0,0,0,0,3,3,29,1,45,69364,N,180,2022-02-16_13h58.08.364,orientation adjustment blockN,2021.2.3,MacIntel,59.99880002,,,,,,,
,,,,,,,,,,,,,,,,,-25.55555556,-39,20,75,-86.55555556,47.55555556,47.55555556,0.381477322,-0.293013713,1,0,0,0.2242,submitButton,44.94444444,-0.421621026,-0.392078383,0,0,0,0,4,4,23,1,39,69364,N,180,2022-02-16_13h58.08.364,orientation adjustment blockN,2021.2.3,MacIntel,59.99880002,,,,,,,
,,,,,,,,,,,,,,,,,34.44444444,38,20,75,198.4444444,19.55555556,19.55555556,0.19879286,-0.311688097,1,0,0,0.0305,submitButton,36.48148148,-0.416968587,-0.396551717,0,0,0,0,5,5,22,1,38,69364,N,180,2022-02-16_13h58.08.364,orientation adjustment blockN,2021.2.3,MacIntel,59.99880002,,,,,,,
,,,,,,,,,,,,,,,,,-42.77777778,-43,20,75,-207.7777778,15.22222222,15.22222222,0.405492486,-0.292702298,1,0,0,0.1499,submitButton,15.22222222,-0.443966912,-0.406683214,0,0,0,0,6,6,27,1,43,69364,N,180,2022-02-16_13h58.08.364,orientation adjustment blockN,2021.2.3,MacIntel,59.99880002,,,,,,,
,,,,,,,,,,,,,,,,,56.66666667,-66,20,75,-58.33333333,7.666666667,7.666666667,0.407231174,-0.306087172,1,0,0,0.3754,submitButton,11.44444444,-0.413376872,-0.413571235,0,0,0,0,7,7,50,1,66,69364,N,180,2022-02-16_13h58.08.364,orientation adjustment blockN,2021.2.3,MacIntel,59.99880002,,,,,,,
,,,,,,,,,,,,,,,,,50,-34,20,75,-14,20,20,0.395357395,-0.291234402,1,0,0,0.2666,submitButton,14.2962963,-0.283492025,-0.427116157,0,0,0,0,8,8,18,1,34,69364,N,180,2022-02-16_13h58.08.364,orientation adjustment blockN,2021.2.3,MacIntel,59.99880002,,,,,,,
,,,,,,,,,,,,,,,,,-48.88888889,47,20,75,45.11111111,1.888888889,1.888888889,0.208153483,-0.295864393,1,0,0,0.1671,submitButton,1.888888889,-0.351741062,-0.396373223,0,0,0,0,9,9,31,1,47,69364,N,180,2022-02-16_13h58.08.364,orientation adjustment blockN,2021.2.3,MacIntel,59.99880002,,,,,,,
,,,,,,,,,,,,,,,,,72.22222222,28,20,75,206.2222222,1.777777778,1.777777778,0.216720581,-0.299082642,1,0,0,0.2518,submitButton,1.833333333,-0.30163364,-0.4249391,0,0,0,0,10,10,12,1,28,69364,N,180,2022-02-16_13h58.08.364,orientation adjustment blockN,2021.2.3,MacIntel,59.99880002,,,,,,,
,,,,,,,,,,,,,,,,,33.88888889,-30,20,75,-26.11111111,3.888888889,3.888888889,0.394430203,-0.286251763,1,0,0,0.4808,submitButton,2.518518519,-0.243028361,-0.402595011,0,0,0,0,11,11,14,1,30,69364,N,180,2022-02-16_13h58.08.364,orientation adjustment blockN,2021.2.3,MacIntel,59.99880002,,,,,,,
,,,,,,,,,,,,,,,,,-33.88888889,-49,20,75,-210.8888889,18.11111111,18.11111111,0.4153243,-0.29180698,1,0,0,0.1525,submitButton,18.11111111,-0.421452026,-0.395446303,0,0,0,0,12,12,33,1,49,69364,N,180,2022-02-16_13h58.08.364,orientation adjustment blockN,2021.2.3,MacIntel,59.99880002,,,,,,,
,,,,,,,,,,,,,,,,,25.55555556,70,20,75,232.5555556,17.44444444,17.44444444,0.210527072,-0.29580207,1,0,0,2.2047,submitButton,17.77777778,-0.460063816,-0.415561727,0,0,0,0,13,13,54,1,70,69364,N,180,2022-02-16_13h58.08.364,orientation adjustment blockN,2021.2.3,MacIntel,59.99880002,,,,,,,
,,,,,,,,,,,,,,,,,-71.66666667,-36,20,75,-200.6666667,15.33333333,15.33333333,0.417626004,-0.313800117,1,0,0,1.2993,submitButton,16.96296296,0.346053874,-0.400470378,1,0,0,0,14,14,20,1,36,69364,N,180,2022-02-16_13h58.08.364,orientation adjustment blockN,2021.2.3,MacIntel,59.99880002,continueButton,,,,,,
,,,,,,,,,,,,,,,,,44.44444444,72,20,75,225.4444444,26.55555556,26.55555556,0.151237929,-0.319867418,1,0,0,1.9668,submitButton,26.55555556,-0.340361125,-0.416050686,0,0,0,0,15,15,56,1,72,69364,N,180,2022-02-16_13h58.08.364,orientation adjustment blockN,2021.2.3,MacIntel,59.99880002,,,,,,,
,,,,,,,,,,,,,,,,,42.77777778,-16,20,75,-15.22222222,0.777777778,0.777777778,0.403140055,-0.302926636,1,0,0,0.0827,submitButton,13.66666667,-0.417053121,-0.407159695,0,0,0,0,16,16,0,1,16,69364,N,180,2022-02-16_13h58.08.364,orientation adjustment blockN,2021.2.3,MacIntel,59.99880002,,,,,,,
,,,,,,,,,,,,,,,,,-63.88888889,59,20,75,42.11111111,16.88888889,16.88888889,-0.390972358,-0.419895359,1,0,0,2.6278,submitButton,14.74074074,-0.390972358,-0.419895359,0,0,0,0,17,17,43,1,59,69364,N,180,2022-02-16_13h58.08.364,orientation adjustment blockN,2021.2.3,MacIntel,59.99880002,,,,,,,
,,,,,,,,,,,,,,,,,-48.88888889,-41,20,75,-212.8888889,8.111111111,8.111111111,0.390904677,-0.311875949,1,0,0,2.2339,submitButton,13.08333333,-0.42266076,-0.395695665,0,0,0,0,18,18,25,1,41,69364,N,180,2022-02-16_13h58.08.364,orientation adjustment blockN,2021.2.3,MacIntel,59.99880002,,,,,,,
,,,,,,,,,,,,,,,,,67.22222222,-22,20,75,-12.77777778,9.222222222,9.222222222,0.404572618,-0.304019708,1,0,0,0.0173,submitButton,12.31111111,-0.478075562,-0.414289076,0,0,0,0,19,19,6,1,22,69364,N,180,2022-02-16_13h58.08.364,orientation adjustment blockN,2021.2.3,MacIntel,59.99880002,,,,,,,
,,,,,,,,,,,,,,,,,-62.77777778,27,20,75,32.22222222,5.222222222,5.222222222,0.214806993,-0.294659356,1,0,0,0.249,submitButton,11.12962963,-0.281125353,-0.391001723,0,0,0,0,20,20,11,1,27,69364,N,180,2022-02-16_13h58.08.364,orientation adjustment blockN,2021.2.3,MacIntel,59.99880002,,,,,,,
,,,,,,,,,,,,,,,,,32.22222222,-64,20,75,-59.77777778,4.222222222,4.222222222,-0.166830241,-0.407200317,1,0,0,1.2334,submitButton,10.14285714,-0.166830241,-0.407200317,0,0,0,0,21,21,48,1,64,69364,N,180,2022-02-16_13h58.08.364,orientation adjustment blockN,2021.2.3,MacIntel,59.99880002,,,,,,,
,,,,,,,,,,,,,,,,,47.22222222,-62,20,75,-50.77777778,11.22222222,11.22222222,0.384613987,-0.274169854,1,0,0,2.4841,submitButton,10.27777778,-0.309563022,-0.412246636,0,0,0,0,22,22,46,1,62,69364,N,180,2022-02-16_13h58.08.364,orientation adjustment blockN,2021.2.3,MacIntel,59.99880002,,,,,,,
,,,,,,,,,,,,,,,,,42.22222222,55,20,75,219.2222222,15.77777778,15.77777778,0.188726264,-0.318130358,1,0,0,2.0168,submitButton,10.88888889,-0.356596951,-0.39285163,0,0,0,0,23,23,39,1,55,69364,N,180,2022-02-16_13h58.08.364,orientation adjustment blockN,2021.2.3,MacIntel,59.99880002,,,,,,,
,,,,,,,,,,,,,,,,,-71.66666667,18,20,75,18.33333333,0.333333333,0.333333333,0.174716254,-0.300276421,1,0,0,0.6223,submitButton,9.833333333,-0.266175605,-0.404651421,0,0,0,0,24,24,2,1,18,69364,N,180,2022-02-16_13h58.08.364,orientation adjustment blockN,2021.2.3,MacIntel,59.99880002,,,,,,,
,,,,,,,,,,,,,,,,,-28.33333333,65,20,75,57.66666667,7.333333333,7.333333333,-0.328343099,-0.398983426,1,0,0,1.0836,submitButton,9.606060606,-0.328343099,-0.398983426,0,0,0,0,25,25,49,1,65,69364,N,180,2022-02-16_13h58.08.364,orientation adjustment blockN,2021.2.3,MacIntel,59.99880002,,,,,,,
,,,,,,,,,,,,,,,,,-58.88888889,-19,20,75,-202.8888889,3.888888889,3.888888889,0.378760173,-0.290781386,1,0,0,1.9492,submitButton,9.12962963,-0.288645766,-0.386001723,0,0,0,0,26,26,3,1,19,69364,N,180,2022-02-16_13h58.08.364,orientation adjustment blockN,2021.2.3,MacIntel,59.99880002,,,,,,,
,,,,,,,,,,,,,,,,,27.22222222,-21,20,75,-8.777777778,12.22222222,12.22222222,0.362326253,-0.312127821,1,0,0,0.0512,submitButton,9.367521368,-0.275221286,-0.403592055,0,0,0,0,27,27,5,1,21,69364,N,180,2022-02-16_13h58.08.364,orientation adjustment blockN,2021.2.3,MacIntel,59.99880002,,,,,,,
,,,,,,,,,,,,,,,,,72.22222222,-32,20,75,-37.77777778,5.777777778,5.777777778,0.387820909,-0.310681627,1,0,0,1.1502,submitButton,9.111111111,-0.325038113,-0.397046577,0,0,0,0,28,28,16,1,32,69364,N,180,2022-02-16_13h58.08.364,orientation adjustment blockN,2021.2.3,MacIntel,59.99880002,,,,,,,
,,,,,,,,,,,,,,,,,-43.88888889,46,20,75,27.11111111,18.88888889,18.88888889,0.192361789,-0.306931152,1,0,0,0.0518,submitButton,9.762962963,0.302634752,-0.404857042,1,0,0,0,29,29,30,1,46,69364,N,180,2022-02-16_13h58.08.364,orientation adjustment blockN,2021.2.3,MacIntel,59.99880002,continueButton,,,,,,
,,,,,,,,,,,,,,,,,65,-54,20,75,-36,18,18,-0.331634318,-0.40008606,1,0,0,2.2671,submitButton,10.27777778,-0.319639181,-0.390200263,0,0,0,0,30,30,38,1,54,69364,N,180,2022-02-16_13h58.08.364,orientation adjustment blockN,2021.2.3,MacIntel,59.99880002,,,,,,,
,,,,,,,,,,,,,,,,,-47.22222222,50,20,75,40.77777778,9.222222222,9.222222222,0.224581434,-0.30787835,1,0,0,0.4311,submitButton,10.21568627,-0.271011013,-0.403149618,0,0,0,0,31,31,34,1,50,69364,N,180,2022-02-16_13h58.08.364,orientation adjustment blockN,2021.2.3,MacIntel,59.99880002,,,,,,,
,,,,,,,,,,,,,,,,,-55.55555556,-42,20,75,-205.5555556,16.44444444,16.44444444,0.373524034,-0.28531189,1,0,0,1.7984,submitButton,10.5617284,-0.259781799,-0.412341783,0,0,0,0,32,32,26,1,42,69364,N,180,2022-02-16_13h58.08.364,orientation adjustment blockN,2021.2.3,MacIntel,59.99880002,,,,,,,
,,,,,,,,,,,,,,,,,-56.11111111,44,20,75,33.88888889,10.11111111,10.11111111,0.216204088,-0.299357707,1,0,0,0.2989,submitButton,10.5380117,-0.257548455,-0.417071398,0,0,0,0,33,33,28,1,44,69364,N,180,2022-02-16_13h58.08.364,orientation adjustment blockN,2021.2.3,MacIntel,59.99880002,,,,,,,
,,,,,,,,,,,,,,,,,30,-40,20,75,-50,10,10,0.375259738,-0.316885647,1,0,0,0.0853,submitButton,10.51111111,-0.229190538,-0.382543538,0,0,0,0,34,34,24,1,40,69364,N,180,2022-02-16_13h58.08.364,orientation adjustment blockN,2021.2.3,MacIntel,59.99880002,,,,,,,
,,,,,,,,,,,,,,,,,-43.33333333,17,20,75,24.66666667,7.666666667,7.666666667,0.220646294,-0.300625136,1,0,0,0.1026,submitButton,10.37566138,-0.235606011,-0.39780287,0,0,0,0,35,35,1,1,17,69364,N,180,2022-02-16_13h58.08.364,orientation adjustment blockN,2021.2.3,MacIntel,59.99880002,,,,,,,
,,,,,,,,,,,,,,,,,33.33333333,31,20,75,40.33333333,9.333333333,9.333333333,0.467020671,-0.31152459,1,0,0,0.2852,submitButton,10.32828283,-0.315129259,-0.407788425,0,0,0,0,36,36,15,1,31,69364,N,180,2022-02-16_13h58.08.364,orientation adjustment blockN,2021.2.3,MacIntel,59.99880002,,,,,,,
,,,,,,,,,,,,,,,,,-40,-63,20,75,-231,12,12,0.417954237,-0.296720039,1,0,0,2.4152,submitButton,10.40096618,-0.218137071,-0.400770196,0,0,0,0,37,37,47,1,63,69364,N,180,2022-02-16_13h58.08.364,orientation adjustment blockN,2021.2.3,MacIntel,59.99880002,,,,,,,
,,,,,,,,,,,,,,,,,-30,-61,20,75,-242,1,1,0.416531169,-0.306579047,1,0,0,3.268,submitButton,10.00925926,-0.197612983,-0.395748088,0,0,0,0,38,38,45,1,61,69364,N,180,2022-02-16_13h58.08.364,orientation adjustment blockN,2021.2.3,MacIntel,59.99880002,,,,,,,
,,,,,,,,,,,,,,,,,-52.77777778,-37,20,75,-206.7777778,10.22222222,10.22222222,0.377040609,-0.298478936,1,0,0,0.5479,submitButton,10.01777778,-0.238671536,-0.408353271,0,0,0,0,39,39,21,1,37,69364,N,180,2022-02-16_13h58.08.364,orientation adjustment blockN,2021.2.3,MacIntel,59.99880002,,,,,,,
,,,,,,,,,,,,,,,,,53.88888889,-71,20,75,-64.11111111,6.888888889,6.888888889,0.417681342,-0.309233941,1,0,0,0.1837,submitButton,9.897435897,-0.181790636,-0.407111952,0,0,0,0,40,40,55,1,71,69364,N,180,2022-02-16_13h58.08.364,orientation adjustment blockN,2021.2.3,MacIntel,59.99880002,,,,,,,
,,,,,,,,,,,,,,,,,-74.44444444,26,20,75,30.55555556,4.555555556,4.555555556,0.214441596,-0.310605604,1,0,0,0.1159,submitButton,9.699588477,-0.294119534,-0.407159288,0,0,0,0,41,41,10,1,26,69364,N,180,2022-02-16_13h58.08.364,orientation adjustment blockN,2021.2.3,MacIntel,59.99880002,,,,,,,
,,,,,,,,,,,,,,,,,67.77777778,52,20,75,228.7777778,3.222222222,3.222222222,-0.227210286,-0.418017578,1,0,0,2.5628,submitButton,9.468253968,-0.227497084,-0.418017578,0,0,0,0,42,42,36,1,52,69364,N,180,2022-02-16_13h58.08.364,orientation adjustment blockN,2021.2.3,MacIntel,59.99880002,,,,,,,
,,,,,,,,,,,,,,,,,57.77777778,56,20,75,232.7777778,3.222222222,3.222222222,-0.252172512,-0.395100979,1,0,0,2.5836,submitButton,9.252873563,-0.252172512,-0.395100979,0,0,0,0,43,43,40,1,56,69364,N,180,2022-02-16_13h58.08.364,orientation adjustment blockN,2021.2.3,MacIntel,59.99880002,,,,,,,
,,,,,,,,,,,,,,,,,-46.11111111,-75,20,75,-248.1111111,6.888888889,6.888888889,-0.223354221,-0.414968601,1,0,0,2.9318,submitButton,9.174074074,0.34310357,-0.409196167,1,0,0,0,44,44,59,1,75,69364,N,180,2022-02-16_13h58.08.364,orientation adjustment blockN,2021.2.3,MacIntel,59.99880002,continueButton,,,,,,
,,,,,,,,,,,,,,,,,-25.55555556,69,20,75,67.44444444,1.555555556,1.555555556,-0.343348728,-0.368754951,1,0,0,1.117,submitButton,8.928315412,-0.043853421,-0.337282444,0,0,0,0,45,45,53,1,69,69364,N,180,2022-02-16_13h58.08.364,orientation adjustment blockN,2021.2.3,MacIntel,59.99880002,,,,,,,
,,,,,,,,,,,,,,,,,-58.33333333,58,20,75,41.66666667,16.33333333,16.33333333,-0.293434991,-0.404194132,1,0,0,0.9847,submitButton,9.159722222,-0.290955844,-0.404194132,0,0,0,0,46,46,42,1,58,69364,N,180,2022-02-16_13h58.08.364,orientation adjustment blockN,2021.2.3,MacIntel,59.99880002,,,,,,,
,,,,,,,,,,,,,,,,,-28.88888889,-67,20,75,-215.8888889,31.11111111,31.11111111,0.408817274,-0.303015883,1,0,0,1.4506,submitButton,9.824915825,-0.220667589,-0.406418118,0,0,0,0,47,47,51,1,67,69364,N,180,2022-02-16_13h58.08.364,orientation adjustment blockN,2021.2.3,MacIntel,59.99880002,,,,,,,
,,,,,,,,,,,,,,,,,-31.11111111,23,20,75,21.88888889,1.111111111,1.111111111,0.215460612,-0.316707018,1,0,0,0.2667,submitButton,9.568627451,-0.240825534,-0.412904595,0,0,0,0,48,48,7,1,23,69364,N,180,2022-02-16_13h58.08.364,orientation adjustment blockN,2021.2.3,MacIntel,59.99880002,,,,,,,
,,,,,,,,,,,,,,,,,-47.77777778,-51,20,75,-214.7777778,16.22222222,16.22222222,0.45167711,-0.294874471,1,0,0,1.5495,submitButton,9.758730159,-0.185710314,-0.392681003,0,0,0,0,49,49,35,1,51,69364,N,180,2022-02-16_13h58.08.364,orientation adjustment blockN,2021.2.3,MacIntel,59.99880002,,,,,,,
,,,,,,,,,,,,,,,,,-54.44444444,-20,20,75,-199.4444444,0.555555556,0.555555556,0.372061632,-0.300995144,1,0,0,1.6012,submitButton,9.50308642,-0.248578762,-0.406003621,0,0,0,0,50,50,4,1,20,69364,N,180,2022-02-16_13h58.08.364,orientation adjustment blockN,2021.2.3,MacIntel,59.99880002,,,,,,,
,,,,,,,,,,,,,,,,,47.22222222,33,20,75,42.22222222,9.222222222,9.222222222,0.450693631,-0.294963989,1,0,0,0.4835,submitButton,9.495495495,-0.369494222,-0.401733127,0,0,0,0,51,51,17,1,33,69364,N,180,2022-02-16_13h58.08.364,orientation adjustment blockN,2021.2.3,MacIntel,59.99880002,,,,,,,
,,,,,,,,,,,,,,,,,63.88888889,-29,20,75,-28.11111111,0.888888889,0.888888889,0.402347276,-0.291037394,1,0,0,0.1004,submitButton,9.269005848,-0.298180271,-0.394467163,0,0,0,0,52,52,13,1,29,69364,N,180,2022-02-16_13h58.08.364,orientation adjustment blockN,2021.2.3,MacIntel,59.99880002,,,,,,,
,,,,,,,,,,,,,,,,,-58.88888889,-53,20,75,-222.8888889,10.11111111,10.11111111,-0.143075019,-0.411133898,0,0,1,2.6153,submitButton,9.290598291,-0.143075019,-0.411133898,0,0,1,0,53,53,37,1,53,69364,N,180,2022-02-16_13h58.08.364,orientation adjustment blockN,2021.2.3,MacIntel,59.99880002,,,,,,,
,,,,,,,,,,,,,,,,,-29.44444444,-68,20,75,-128.4444444,60.44444444,60.44444444,0.413153754,-0.304502292,1,0,1,2.5341,submitButton,10.56944444,-0.283587172,-0.39958313,0,0,1,0,54,54,52,1,68,69364,N,180,2022-02-16_13h58.08.364,orientation adjustment blockN,2021.2.3,MacIntel,59.99880002,,,,,,,
,,,,,,,,,,,,,,,,,-65,25,20,75,50,25,25,0.351013997,-0.293949856,1,0,1,0.5163,submitButton,10.92140921,-0.410953098,-0.402280002,0,0,1,0,55,55,9,1,25,69364,N,180,2022-02-16_13h58.08.364,orientation adjustment blockN,2021.2.3,MacIntel,59.99880002,,,,,,,
,,,,,,,,,,,,,,,,,-23.88888889,60,20,75,53.11111111,6.888888889,6.888888889,0.176864081,-0.305901421,1,0,1,1.1511,submitButton,10.82539683,-0.172868313,-0.396065945,0,0,1,0,56,56,44,1,60,69364,N,180,2022-02-16_13h58.08.364,orientation adjustment blockN,2021.2.3,MacIntel,59.99880002,,,,,,,
,,,,,,,,,,,,,,,,,51.66666667,-74,20,75,-70.33333333,3.666666667,3.666666667,-0.359782884,-0.422302924,1,0,1,6.7475,submitButton,10.65891473,-0.359782884,-0.422302924,0,0,1,0,57,57,58,1,74,69364,N,180,2022-02-16_13h58.08.364,orientation adjustment blockN,2021.2.3,MacIntel,59.99880002,,,,,,,
,,,,,,,,,,,,,,,,,-42.22222222,24,20,75,-18.22222222,42.22222222,42.22222222,-0.338160672,-0.406542087,1,0,1,3.3021,submitButton,11.37626263,-0.338160672,-0.406542087,0,0,1,0,58,58,8,1,24,69364,N,180,2022-02-16_13h58.08.364,orientation adjustment blockN,2021.2.3,MacIntel,59.99880002,,,,,,,
,,,,,,,,,,,,,,,,,68.33333333,-48,20,75,-35.66666667,12.33333333,12.33333333,-0.216572673,-0.409819607,1,0,1,5.1558,submitButton,11.39753086,0.374840766,-0.397396105,1,0,1,0,59,59,32,1,48,69364,N,180,2022-02-16_13h58.08.364,orientation adjustment blockN,2021.2.3,MacIntel,59.99880002,continueButton,,,,,,
,,,,,,,,,,,,,,,,,-56.11111111,-36,20,75,37.88888889,73.88888889,73.88888889,-0.238551466,-0.412343818,1,0,1,4.2175,submitButton,12.75603865,-0.238551466,-0.412343818,0,0,1,1,0,60,20,1,36,69364,N,180,2022-02-16_13h58.08.364,orientation adjustment blockN,2021.2.3,MacIntel,59.99880002,,,,,,,
,,,,,,,,,,,,,,,,,25.55555556,-18,20,75,31.55555556,49.55555556,49.55555556,-0.338126899,-0.414263238,1,0,1,16.7335,submitButton,13.53900709,-0.338126899,-0.414263238,0,0,1,1,1,61,2,1,18,69364,N,180,2022-02-16_13h58.08.364,orientation adjustment blockN,2021.2.3,MacIntel,59.99880002,,,,,,,
,,,,,,,,,,,,,,,,,-45,-57,20,75,-227,10,10,-0.239654134,-0.408327976,1,0,1,2.3847,submitButton,13.46527778,-0.239654134,-0.408327976,0,0,1,1,2,62,41,1,57,69364,N,180,2022-02-16_13h58.08.364,orientation adjustment blockN,2021.2.3,MacIntel,59.99880002,,,,,,,
,,,,,,,,,,,,,,,,,-25,46,20,75,49,3,3,-0.372937283,-0.389199693,1,0,1,1.0811,submitButton,13.25170068,-0.371503364,-0.391780735,0,0,1,1,3,63,30,1,46,69364,N,180,2022-02-16_13h58.08.364,orientation adjustment blockN,2021.2.3,MacIntel,59.99880002,,,,,,,
,,,,,,,,,,,,,,,,,41.66666667,31,20,75,37.66666667,6.666666667,6.666666667,-0.265283474,-0.412013279,1,0,1,3.434,submitButton,13.12,-0.265283474,-0.412013279,0,0,1,1,4,64,15,1,31,69364,N,180,2022-02-16_13h58.08.364,orientation adjustment blockN,2021.2.3,MacIntel,59.99880002,,,,,,,
,,,,,,,,,,,,,,,,,50,-60,20,75,-45,15,15,-0.129198405,-0.421484307,1,0,1,2.7163,submitButton,13.15686275,-0.129198405,-0.421484307,0,0,1,1,5,65,44,1,60,69364,N,180,2022-02-16_13h58.08.364,orientation adjustment blockN,2021.2.3,MacIntel,59.99880002,,,,,,,
,,,,,,,,,,,,,,,,,46.11111111,17,20,75,31.11111111,14.11111111,14.11111111,-0.22584432,-0.424164361,1,0,1,2.778,submitButton,13.17521368,-0.227114733,-0.424164361,0,0,1,1,6,66,1,1,17,69364,N,180,2022-02-16_13h58.08.364,orientation adjustment blockN,2021.2.3,MacIntel,59.99880002,,,,,,,
,,,,,,,,,,,,,,,,,-23.88888889,-35,20,75,-36.88888889,1.888888889,1.888888889,-0.347993639,-0.411785617,1,0,1,1.4504,submitButton,12.96226415,-0.347993639,-0.411785617,0,0,1,1,7,67,19,1,35,69364,N,180,2022-02-16_13h58.08.364,orientation adjustment blockN,2021.2.3,MacIntel,59.99880002,,,,,,,
,,,,,,,,,,,,,,,,,-30.55555556,-59,20,75,-68.55555556,9.555555556,9.555555556,-0.190567356,-0.413826769,1,0,1,1.5162,submitButton,12.89917695,-0.190567356,-0.413826769,0,0,1,1,8,68,43,1,59,69364,N,180,2022-02-16_13h58.08.364,orientation adjustment blockN,2021.2.3,MacIntel,59.99880002,,,,,,,
,,,,,,,,,,,,,,,,,35,-51,20,75,-47,4,4,-0.146147325,-0.399248047,1,0,1,1.8999,submitButton,12.73737374,-0.147842339,-0.406948988,0,0,1,1,9,69,35,1,51,69364,N,180,2022-02-16_13h58.08.364,orientation adjustment blockN,2021.2.3,MacIntel,59.99880002,,,,,,,
,,,,,,,,,,,,,,,,,42.77777778,-20,20,75,-30.22222222,10.22222222,10.22222222,-0.109061415,-0.402541911,1,0,1,1.8974,submitButton,12.69246032,-0.108426242,-0.402541911,0,0,1,1,10,70,4,1,20,69364,N,180,2022-02-16_13h58.08.364,orientation adjustment blockN,2021.2.3,MacIntel,59.99880002,,,,,,,
,,,,,,,,,,,,,,,,,55,48,20,75,225,3,3,-0.189330105,-0.398491686,1,0,1,2.2668,submitButton,12.52241715,-0.189330105,-0.398491686,0,0,1,1,11,71,32,1,48,69364,N,180,2022-02-16_13h58.08.364,orientation adjustment blockN,2021.2.3,MacIntel,59.99880002,,,,,,,
,,,,,,,,,,,,,,,,,62.77777778,33,20,75,208.7777778,4.222222222,4.222222222,-0.141583523,-0.388953451,1,0,1,2.6825,submitButton,12.37931034,-0.141583523,-0.388953451,0,0,1,1,12,72,17,1,33,69364,N,180,2022-02-16_13h58.08.364,orientation adjustment blockN,2021.2.3,MacIntel,59.99880002,,,,,,,
,,,,,,,,,,,,,,,,,-60.55555556,21,20,75,35.44444444,14.44444444,14.44444444,-0.14384413,-0.407735799,1,0,1,1.7838,submitButton,12.41431262,-0.14384413,-0.407735799,0,0,1,1,13,73,5,1,21,69364,N,180,2022-02-16_13h58.08.364,orientation adjustment blockN,2021.2.3,MacIntel,59.99880002,,,,,,,
,,,,,,,,,,,,,,,,,39.44444444,56,20,75,244.4444444,8.444444444,8.444444444,-0.139789293,-0.380779283,1,0,1,3.832,submitButton,12.34814815,0.333523492,-0.390384047,1,0,1,1,14,74,40,1,56,69364,N,180,2022-02-16_13h58.08.364,orientation adjustment blockN,2021.2.3,MacIntel,59.99880002,continueButton,,,,,,
,,,,,,,,,,,,,,,,,33.88888889,-25,20,75,-28.11111111,3.111111111,3.111111111,-0.148782484,-0.411797757,1,0,1,3.2155,submitButton,12.19672131,-0.148782484,-0.411797757,0,0,1,1,15,75,9,1,25,69364,N,180,2022-02-16_13h58.08.364,orientation adjustment blockN,2021.2.3,MacIntel,59.99880002,,,,,,,
,,,,,,,,,,,,,,,,,-52.77777778,-40,20,75,-218.7777778,1.222222222,1.222222222,-0.114459975,-0.393517524,1,0,1,2.9518,submitButton,12.01971326,-0.114839274,-0.395034722,0,0,1,1,16,76,24,1,40,69364,N,180,2022-02-16_13h58.08.364,orientation adjustment blockN,2021.2.3,MacIntel,59.99880002,,,,,,,
,,,,,,,,,,,,,,,,,70.55555556,74,20,75,241.5555556,12.44444444,12.44444444,-0.135494046,-0.371035767,1,0,1,1.9159,submitButton,12.02645503,-0.155081109,-0.405299411,0,0,1,1,17,77,58,1,74,69364,N,180,2022-02-16_13h58.08.364,orientation adjustment blockN,2021.2.3,MacIntel,59.99880002,,,,,,,
,,,,,,,,,,,,,,,,,65.55555556,30,20,75,210.5555556,0.555555556,0.555555556,-0.162929484,-0.40320421,1,0,1,2.8825,submitButton,11.84722222,-0.162929484,-0.40320421,0,0,1,1,18,78,14,1,30,69364,N,180,2022-02-16_13h58.08.364,orientation adjustment blockN,2021.2.3,MacIntel,59.99880002,,,,,,,
,,,,,,,,,,,,,,,,,-46.11111111,-54,20,75,-228.1111111,5.888888889,5.888888889,-0.129518229,-0.403410441,1,0,1,4.234,submitButton,11.75555556,-0.129518229,-0.403410441,0,0,1,1,19,79,38,1,54,69364,N,180,2022-02-16_13h58.08.364,orientation adjustment blockN,2021.2.3,MacIntel,59.99880002,,,,,,,
,,,,,,,,,,,,,,,,,47.77777778,68,20,75,232.7777778,15.22222222,15.22222222,-0.137515191,-0.410981106,1,0,1,2.1156,submitButton,11.80808081,-0.137515191,-0.410981106,0,0,1,1,20,80,52,1,68,69364,N,180,2022-02-16_13h58.08.364,orientation adjustment blockN,2021.2.3,MacIntel,59.99880002,,,,,,,
,,,,,,,,,,,,,,,,,30.55555556,-55,20,75,-57.44444444,2.444444444,2.444444444,-0.114624769,-0.414053141,1,0,1,1.2818,submitButton,11.66832504,-0.114624769,-0.414053141,0,0,1,1,21,81,39,1,55,69364,N,180,2022-02-16_13h58.08.364,orientation adjustment blockN,2021.2.3,MacIntel,59.99880002,,,,,,,
,,,,,,,,,,,,,,,,,63.88888889,52,20,75,220.8888889,11.11111111,11.11111111,-0.174724731,-0.40921719,1,0,1,2.884,submitButton,11.66013072,-0.174724731,-0.40921719,0,0,1,1,22,82,36,1,52,69364,N,180,2022-02-16_13h58.08.364,orientation adjustment blockN,2021.2.3,MacIntel,59.99880002,,,,,,,
,,,,,,,,,,,,,,,,,-51.11111111,47,20,75,46.88888889,0.111111111,0.111111111,-0.131393229,-0.408710666,1,0,1,1.1832,submitButton,11.49275362,-0.131393229,-0.408710666,0,0,1,1,23,83,31,1,47,69364,N,180,2022-02-16_13h58.08.364,orientation adjustment blockN,2021.2.3,MacIntel,59.99880002,,,,,,,
,,,,,,,,,,,,,,,,,-62.22222222,-39,20,75,-209.2222222,9.777777778,9.777777778,-0.166604682,-0.375500149,1,0,1,3.1695,submitButton,11.46825397,-0.166317952,-0.375500149,0,0,1,1,24,84,23,1,39,69364,N,180,2022-02-16_13h58.08.364,orientation adjustment blockN,2021.2.3,MacIntel,59.99880002,,,,,,,
,,,,,,,,,,,,,,,,,71.66666667,42,20,75,217.6666667,4.333333333,4.333333333,-0.183120253,-0.404912788,1,0,1,2.4316,submitButton,11.36776213,-0.183120253,-0.404912788,0,0,1,1,25,85,26,1,42,69364,N,180,2022-02-16_13h58.08.364,orientation adjustment blockN,2021.2.3,MacIntel,59.99880002,,,,,,,
,,,,,,,,,,,,,,,,,-69.44444444,-72,20,75,-234.4444444,17.55555556,17.55555556,-0.1287264,-0.403398166,1,0,1,2.7839,submitButton,11.4537037,-0.1287264,-0.403398166,0,0,1,1,26,86,56,1,72,69364,N,180,2022-02-16_13h58.08.364,orientation adjustment blockN,2021.2.3,MacIntel,59.99880002,,,,,,,
,,,,,,,,,,,,,,,,,-33.33333333,-67,20,75,-218.3333333,28.66666667,28.66666667,-0.208234592,-0.415670505,1,0,1,3.4507,submitButton,11.68949772,-0.208234592,-0.415670505,0,0,1,1,27,87,51,1,67,69364,N,180,2022-02-16_13h58.08.364,orientation adjustment blockN,2021.2.3,MacIntel,59.99880002,,,,,,,
,,,,,,,,,,,,,,,,,-33.33333333,-49,20,75,-211.3333333,17.66666667,17.66666667,-0.204192166,-0.413354492,1,0,1,3.8835,submitButton,11.77027027,-0.204192166,-0.413354492,0,0,1,1,28,88,33,1,49,69364,N,180,2022-02-16_13h58.08.364,orientation adjustment blockN,2021.2.3,MacIntel,59.99880002,,,,,,,
,,,,,,,,,,,,,,,,,-33.88888889,71,20,75,70.11111111,0.888888889,0.888888889,-0.17298645,-0.400052694,1,0,1,0.8211,submitButton,11.62518519,0.44426473,-0.410808241,1,0,1,1,29,89,55,1,71,69364,N,180,2022-02-16_13h58.08.364,orientation adjustment blockN,2021.2.3,MacIntel,59.99880002,continueButton,,,,,,
,,,,,,,,,,,,,,,,,38.33333333,62,20,75,212.3333333,29.66666667,29.66666667,-0.315263536,-0.391658257,1,0,1,3.2322,submitButton,11.8625731,-0.315263536,-0.390326199,0,0,1,1,30,90,46,1,62,69364,N,180,2022-02-16_13h58.08.364,orientation adjustment blockN,2021.2.3,MacIntel,59.99880002,,,,,,,
,,,,,,,,,,,,,,,,,-42.22222222,-65,20,75,-214.2222222,30.77777778,30.77777778,-0.24942593,-0.374661526,1,0,1,2.9835,submitButton,12.10822511,-0.24942593,-0.374661526,0,0,1,1,31,91,49,1,65,69364,N,180,2022-02-16_13h58.08.364,orientation adjustment blockN,2021.2.3,MacIntel,59.99880002,,,,,,,
,,,,,,,,,,,,,,,,,-27.22222222,-22,20,75,-21.22222222,0.777777778,0.777777778,-0.166184625,-0.410422635,1,0,1,1.2833,submitButton,11.96296296,-0.166184625,-0.410422635,0,0,1,1,32,92,6,1,22,69364,N,180,2022-02-16_13h58.08.364,orientation adjustment blockN,2021.2.3,MacIntel,59.99880002,,,,,,,
,,,,,,,,,,,,,,,,,31.66666667,-63,20,75,-65.33333333,2.333333333,2.333333333,-0.184666273,-0.398918932,1,0,1,1.1818,submitButton,11.84106892,-0.184666273,-0.398918932,0,0,1,1,33,93,47,1,63,69364,N,180,2022-02-16_13h58.08.364,orientation adjustment blockN,2021.2.3,MacIntel,59.99880002,,,,,,,
,,,,,,,,,,,,,,,,,-45.55555556,-53,20,75,-48.55555556,4.444444444,4.444444444,-0.257532213,-0.413553602,1,0,1,11.7167,submitButton,11.74861111,-0.257532213,-0.413553602,0,0,1,1,34,94,37,1,53,69364,N,180,2022-02-16_13h58.08.364,orientation adjustment blockN,2021.2.3,MacIntel,59.99880002,,,,,,,
,,,,,,,,,,,,,,,,,57.77777778,32,20,75,199.7777778,12.22222222,12.22222222,-0.215145942,-0.411555311,1,0,1,2.2344,submitButton,11.75445816,-0.215145942,-0.411555311,0,0,1,1,35,95,16,1,32,69364,N,180,2022-02-16_13h58.08.364,orientation adjustment blockN,2021.2.3,MacIntel,59.99880002,,,,,,,
,,,,,,,,,,,,,,,,,-42.22222222,-43,20,75,17.77777778,60.77777778,60.77777778,-0.144535048,-0.419825846,1,0,1,16.1348,submitButton,12.35230352,-0.14148234,-0.419825846,0,0,1,1,36,96,27,1,43,69364,N,180,2022-02-16_13h58.08.364,orientation adjustment blockN,2021.2.3,MacIntel,59.99880002,,,,,,,
,,,,,,,,,,,,,,,,,52.77777778,37,20,75,205.7777778,11.22222222,11.22222222,-0.11010654,-0.421210056,1,0,1,2.6799,submitButton,12.33868809,-0.11010654,-0.421210056,0,0,1,1,37,97,21,1,37,69364,N,180,2022-02-16_13h58.08.364,orientation adjustment blockN,2021.2.3,MacIntel,59.99880002,,,,,,,
,,,,,,,,,,,,,,,,,-60,-66,20,75,-218,28,28,-0.165757175,-0.396433648,1,0,1,2.3476,submitButton,12.52513228,-0.165757175,-0.396433648,0,0,1,1,38,98,50,1,66,69364,N,180,2022-02-16_13h58.08.364,orientation adjustment blockN,2021.2.3,MacIntel,59.99880002,,,,,,,
,,,,,,,,,,,,,,,,,-43.88888889,27,20,75,26.11111111,0.888888889,0.888888889,-0.14475274,-0.410096978,1,0,1,1.2177,submitButton,12.38823529,-0.14475274,-0.410096978,0,0,1,1,39,99,11,1,27,69364,N,180,2022-02-16_13h58.08.364,orientation adjustment blockN,2021.2.3,MacIntel,59.99880002,,,,,,,
,,,,,,,,,,,,,,,,,60,-44,20,75,-33,11,11,-0.1506486,-0.408258057,1,0,1,1.7158,submitButton,12.37209302,-0.150075073,-0.407684462,0,0,1,1,40,100,28,1,44,69364,N,180,2022-02-16_13h58.08.364,orientation adjustment blockN,2021.2.3,MacIntel,59.99880002,,,,,,,
,,,,,,,,,,,,,,,,,-41.11111111,-28,20,75,-35.11111111,7.111111111,7.111111111,-0.167876112,-0.403146769,1,0,1,0.9665,submitButton,12.31162197,-0.167876112,-0.403146769,0,0,1,1,41,101,12,1,28,69364,N,180,2022-02-16_13h58.08.364,orientation adjustment blockN,2021.2.3,MacIntel,59.99880002,,,,,,,
,,,,,,,,,,,,,,,,,23.33333333,-73,20,75,-73.66666667,0.666666667,0.666666667,-0.092674832,-0.412871908,1,0,1,1.1007,submitButton,12.17929293,-0.161425103,-0.401618178,0,0,1,1,42,102,57,1,73,69364,N,180,2022-02-16_13h58.08.364,orientation adjustment blockN,2021.2.3,MacIntel,59.99880002,,,,,,,
,,,,,,,,,,,,,,,,,28.88888889,19,20,75,194.8888889,4.111111111,4.111111111,-0.153839383,-0.417237142,1,0,1,3.0507,submitButton,12.0886392,-0.153839383,-0.417237142,0,0,1,1,43,103,3,1,19,69364,N,180,2022-02-16_13h58.08.364,orientation adjustment blockN,2021.2.3,MacIntel,59.99880002,,,,,,,
,,,,,,,,,,,,,,,,,72.77777778,-70,20,75,-52.22222222,17.77777778,17.77777778,-0.161382175,-0.422596436,1,0,1,1.8997,submitButton,12.15185185,0.28258138,-0.418144396,1,0,1,1,44,104,54,1,70,69364,N,180,2022-02-16_13h58.08.364,orientation adjustment blockN,2021.2.3,MacIntel,59.99880002,continueButton,,,,,,
,,,,,,,,,,,,,,,,,-50.55555556,58,20,75,41.44444444,16.55555556,16.55555556,-0.334593302,-0.402952474,1,0,1,1.1654,submitButton,12.2002442,-0.334593302,-0.403239271,0,0,1,1,45,105,42,1,58,69364,N,180,2022-02-16_13h58.08.364,orientation adjustment blockN,2021.2.3,MacIntel,59.99880002,,,,,,,
,,,,,,,,,,,,,,,,,-50.55555556,61,20,75,53.44444444,7.555555556,7.555555556,-0.228445706,-0.42058587,1,0,1,1.2011,submitButton,12.14975845,-0.228445706,-0.420299072,0,0,1,1,46,106,45,1,61,69364,N,180,2022-02-16_13h58.08.364,orientation adjustment blockN,2021.2.3,MacIntel,59.99880002,,,,,,,
,,,,,,,,,,,,,,,,,-57.77777778,34,20,75,39.22222222,5.222222222,5.222222222,-0.290278829,-0.421056858,1,0,1,1.565,submitButton,12.07526882,-0.289992065,-0.420134888,0,0,1,1,47,107,18,1,34,69364,N,180,2022-02-16_13h58.08.364,orientation adjustment blockN,2021.2.3,MacIntel,59.99880002,,,,,,,
,,,,,,,,,,,,,,,,,58.88888889,64,20,75,242.8888889,1.111111111,1.111111111,-0.139734972,-0.402931654,1,0,1,2.349,submitButton,11.95862884,-0.139734972,-0.402931654,0,0,1,1,48,108,48,1,64,69364,N,180,2022-02-16_13h58.08.364,orientation adjustment blockN,2021.2.3,MacIntel,59.99880002,,,,,,,
,,,,,,,,,,,,,,,,,55,23,20,75,41,18,18,-0.289178331,-0.404292738,1,0,1,1.2329,submitButton,12.02222222,-0.289178331,-0.404292738,0,0,1,1,49,109,7,1,23,69364,N,180,2022-02-16_13h58.08.364,orientation adjustment blockN,2021.2.3,MacIntel,59.99880002,,,,,,,
,,,,,,,,,,,,,,,,,-20,29,20,75,40,11,11,-0.339033067,-0.412343072,1,0,1,1.1653,submitButton,12.01157407,-0.337885946,-0.412343072,0,0,1,1,50,110,13,1,29,69364,N,180,2022-02-16_13h58.08.364,orientation adjustment blockN,2021.2.3,MacIntel,59.99880002,,,,,,,
,,,,,,,,,,,,,,,,,41.66666667,69,20,75,229.6666667,19.33333333,19.33333333,-0.204725071,-0.421145426,1,0,1,2.0182,submitButton,12.08705613,-0.204725071,-0.421145426,0,0,1,1,51,111,53,1,69,69364,N,180,2022-02-16_13h58.08.364,orientation adjustment blockN,2021.2.3,MacIntel,59.99880002,,,,,,,
,,,,,,,,,,,,,,,,,-63.33333333,24,20,75,28.66666667,4.666666667,4.666666667,-0.270903388,-0.403827108,1,0,1,1.3486,submitButton,12.01133787,-0.270903388,-0.403827108,0,0,1,1,52,112,8,1,24,69364,N,180,2022-02-16_13h58.08.364,orientation adjustment blockN,2021.2.3,MacIntel,59.99880002,,,,,,,
,,,,,,,,,,,,,,,,,53.33333333,45,20,75,206.3333333,18.66666667,18.66666667,-0.155715061,-0.419387614,1,0,1,2.2716,submitButton,12.07856341,-0.155715061,-0.419387614,0,0,1,1,53,113,29,1,45,69364,N,180,2022-02-16_13h58.08.364,orientation adjustment blockN,2021.2.3,MacIntel,59.99880002,,,,,,,
,,,,,,,,,,,,,,,,,-57.22222222,-38,20,75,-206.2222222,11.77777778,11.77777778,-0.238926968,-0.382296956,1,0,1,3.7993,submitButton,12.07555556,-0.236632724,-0.386311849,0,0,1,1,54,114,22,1,38,69364,N,180,2022-02-16_13h58.08.364,orientation adjustment blockN,2021.2.3,MacIntel,59.99880002,,,,,,,
,,,,,,,,,,,,,,,,,20.55555556,26,20,75,25.55555556,0.444444444,0.444444444,-0.124428236,-0.411256782,1,0,1,3.1995,submitButton,11.96039604,-0.124428236,-0.411256782,0,0,1,1,55,115,10,1,26,69364,N,180,2022-02-16_13h58.08.364,orientation adjustment blockN,2021.2.3,MacIntel,59.99880002,,,,,,,
,,,,,,,,,,,,,,,,,25,41,20,75,39,2,2,-0.405370551,-0.408169759,1,0,1,0.9328,submitButton,11.8627451,-0.405370551,-0.408169759,0,0,1,1,56,116,25,1,41,69364,N,180,2022-02-16_13h58.08.364,orientation adjustment blockN,2021.2.3,MacIntel,59.99880002,,,,,,,
,,,,,,,,,,,,,,,,,50,50,20,75,39,11,11,-0.231126539,-0.404353434,1,0,1,2.2,submitButton,11.85436893,-0.231126539,-0.404353434,0,0,1,1,57,117,34,1,50,69364,N,180,2022-02-16_13h58.08.364,orientation adjustment blockN,2021.2.3,MacIntel,59.99880002,,,,,,,
,,,,,,,,,,,,,,,,,-61.66666667,-75,20,75,-237.6666667,17.33333333,17.33333333,-0.107626546,-0.402082655,1,0,1,2.8352,submitButton,11.90705128,-0.107626546,-0.401795858,0,0,1,1,58,118,59,1,75,69364,N,180,2022-02-16_13h58.08.364,orientation adjustment blockN,2021.2.3,MacIntel,59.99880002,,,,,,,
,,,,,,,,,,,,,,,,,45,16,20,75,33,17,17,-0.179593506,-0.437577582,1,0,1,1.7745,submitButton,11.95555556,0.348040771,-0.410979343,1,0,1,1,59,119,0,1,16,69364,N,180,2022-02-16_13h58.08.364,orientation adjustment blockN,2021.2.3,MacIntel,59.99880002,continueButton,,,,,,
,,,,,,,,,,,,,,,,,20.55555556,-44,20,75,-23.44444444,20.55555556,20.55555556,-0.292325779,-0.419358521,1,0,1,2.1171,submitButton,12.03668763,-0.292325779,-0.419358521,0,0,1,2,0,120,28,1,44,69364,N,180,2022-02-16_13h58.08.364,orientation adjustment blockN,2021.2.3,MacIntel,59.99880002,,,,,,,
,,,,,,,,,,,,,,,,,-35.55555556,31,20,75,24.44444444,6.555555556,6.555555556,-0.299874132,-0.428011814,1,0,1,0.4504,submitButton,11.9854621,-0.299874132,-0.428011814,0,0,1,2,1,121,15,1,31,69364,N,180,2022-02-16_13h58.08.364,orientation adjustment blockN,2021.2.3,MacIntel,59.99880002,,,,,,,
,,,,,,,,,,,,,,,,,-51.11111111,25,20,75,29.88888889,4.888888889,4.888888889,-0.344736396,-0.406016778,1,0,1,1.1807,submitButton,11.91975309,-0.343589274,-0.406016778,0,0,1,2,2,122,9,1,25,69364,N,180,2022-02-16_13h58.08.364,orientation adjustment blockN,2021.2.3,MacIntel,59.99880002,,,,,,,
,,,,,,,,,,,,,,,,,-40,30,20,75,19,11,11,-0.197940674,-0.418772515,1,0,1,1.1152,submitButton,11.91131498,-0.197940674,-0.418772515,0,0,1,2,3,123,14,1,30,69364,N,180,2022-02-16_13h58.08.364,orientation adjustment blockN,2021.2.3,MacIntel,59.99880002,,,,,,,
,,,,,,,,,,,,,,,,,40,-47,20,75,-47,0,0,-0.151716037,-0.399190063,1,0,1,1.6344,submitButton,11.8030303,-0.151716037,-0.399190063,0,0,1,2,4,124,31,1,47,69364,N,180,2022-02-16_13h58.08.364,orientation adjustment blockN,2021.2.3,MacIntel,59.99880002,,,,,,,
,,,,,,,,,,,,,,,,,28.33333333,57,20,75,58.33333333,1.333333333,1.333333333,-0.199956462,-0.401852688,1,0,1,1.3841,submitButton,11.70870871,-0.199956462,-0.401852688,0,0,1,2,5,125,41,1,57,69364,N,180,2022-02-16_13h58.08.364,orientation adjustment blockN,2021.2.3,MacIntel,59.99880002,,,,,,,
,,,,,,,,,,,,,,,,,-31.66666667,17,20,75,17.33333333,0.333333333,0.333333333,-0.116001519,-0.379367269,1,0,1,2.7001,submitButton,11.60714286,-0.116001519,-0.379367269,0,0,1,2,6,126,1,1,17,69364,N,180,2022-02-16_13h58.08.364,orientation adjustment blockN,2021.2.3,MacIntel,59.99880002,,,,,,,
,,,,,,,,,,,,,,,,,-59.44444444,53,20,75,45.55555556,7.444444444,7.444444444,-0.129787598,-0.412049221,1,0,1,4.5986,submitButton,11.57030482,-0.129787598,-0.412049221,0,0,1,2,7,127,37,1,53,69364,N,180,2022-02-16_13h58.08.364,orientation adjustment blockN,2021.2.3,MacIntel,59.99880002,,,,,,,
,,,,,,,,,,,,,,,,,35.55555556,-59,20,75,-46.44444444,12.55555556,12.55555556,-0.245510118,-0.408664415,1,0,1,1.183,submitButton,11.57894737,-0.242068753,-0.408377618,0,0,1,2,8,128,43,1,59,69364,N,180,2022-02-16_13h58.08.364,orientation adjustment blockN,2021.2.3,MacIntel,59.99880002,,,,,,,
,,,,,,,,,,,,,,,,,75,-62,20,75,-56,6,6,-0.141312188,-0.394652846,1,0,1,2.0328,submitButton,11.53043478,-0.141312188,-0.394652846,0,0,1,2,9,129,46,1,62,69364,N,180,2022-02-16_13h58.08.364,orientation adjustment blockN,2021.2.3,MacIntel,59.99880002,,,,,,,
,,,,,,,,,,,,,,,,,-42.22222222,-71,20,75,-235.2222222,15.77777778,15.77777778,-0.215942518,-0.391690742,1,0,1,2.8135,submitButton,11.56704981,-0.215942518,-0.391690742,0,0,1,2,10,130,55,1,71,69364,N,180,2022-02-16_13h58.08.364,orientation adjustment blockN,2021.2.3,MacIntel,59.99880002,,,,,,,
,,,,,,,,,,,,,,,,,52.77777778,42,20,75,219.7777778,2.222222222,2.222222222,-0.169889459,-0.402415025,1,0,1,2.5346,submitButton,11.48717949,-0.169889459,-0.403050198,0,0,1,2,11,131,26,1,42,69364,N,180,2022-02-16_13h58.08.364,orientation adjustment blockN,2021.2.3,MacIntel,59.99880002,,,,,,,
,,,,,,,,,,,,,,,,,20,-63,20,75,-65,2,2,-0.190106066,-0.387568495,1,0,1,1.015,submitButton,11.40677966,-0.188098619,-0.387568495,0,0,1,2,12,132,47,1,63,69364,N,180,2022-02-16_13h58.08.364,orientation adjustment blockN,2021.2.3,MacIntel,59.99880002,,,,,,,
,,,,,,,,,,,,,,,,,-39.44444444,-41,20,75,-30.44444444,10.55555556,10.55555556,-0.111444906,-0.401337687,1,0,1,2.0323,submitButton,11.39962652,-0.111444906,-0.401337687,0,0,1,2,13,133,25,1,41,69364,N,180,2022-02-16_13h58.08.364,orientation adjustment blockN,2021.2.3,MacIntel,59.99880002,,,,,,,
,,,,,,,,,,,,,,,,,-44.44444444,74,20,75,57.55555556,16.44444444,16.44444444,-0.203855726,-0.39233629,1,0,1,0.866,submitButton,11.44166667,0.370872531,-0.392869059,1,0,1,2,14,134,58,1,74,69364,N,180,2022-02-16_13h58.08.364,orientation adjustment blockN,2021.2.3,MacIntel,59.99880002,continueButton,,,,,,
,,,,,,,,,,,,,,,,,53.88888889,-70,20,75,-55.11111111,14.88888889,14.88888889,-0.286087782,-0.401498074,1,0,1,2.4675,submitButton,11.47015611,-0.286087782,-0.401498074,0,0,1,2,15,135,54,1,70,69364,N,180,2022-02-16_13h58.08.364,orientation adjustment blockN,2021.2.3,MacIntel,59.99880002,,,,,,,
,,,,,,,,,,,,,,,,,-21.66666667,-32,20,75,-33.66666667,1.666666667,1.666666667,-0.117210897,-0.420819363,1,0,1,0.7996,submitButton,11.38979964,-0.117210897,-0.422089776,0,0,1,2,16,136,16,1,32,69364,N,180,2022-02-16_13h58.08.364,orientation adjustment blockN,2021.2.3,MacIntel,59.99880002,,,,,,,
,,,,,,,,,,,,,,,,,-71.11111111,-34,20,75,-213.1111111,0.888888889,0.888888889,-0.212342055,-0.402497898,1,0,1,2.664,submitButton,11.30442638,-0.212342055,-0.402497898,0,0,1,2,17,137,18,1,34,69364,N,180,2022-02-16_13h58.08.364,orientation adjustment blockN,2021.2.3,MacIntel,59.99880002,,,,,,,
,,,,,,,,,,,,,,,,,72.22222222,-50,20,75,-42.77777778,7.222222222,7.222222222,-0.298131985,-0.398209432,1,0,1,2.8817,submitButton,11.27150538,-0.298131985,-0.398209432,0,0,1,2,18,138,34,1,50,69364,N,180,2022-02-16_13h58.08.364,orientation adjustment blockN,2021.2.3,MacIntel,59.99880002,,,,,,,
,,,,,,,,,,,,,,,,,-50,23,20,75,27,4,4,-0.213474257,-0.403464491,1,0,1,1.8488,submitButton,11.21333333,-0.210258043,-0.403464491,0,0,1,2,19,139,7,1,23,69364,N,180,2022-02-16_13h58.08.364,orientation adjustment blockN,2021.2.3,MacIntel,59.99880002,,,,,,,
,,,,,,,,,,,,,,,,,26.66666667,19,20,75,20.66666667,1.666666667,1.666666667,-0.236992018,-0.403848945,1,0,1,1.1165,submitButton,11.13756614,-0.236992018,-0.403848945,0,0,1,2,20,140,3,1,19,69364,N,180,2022-02-16_13h58.08.364,orientation adjustment blockN,2021.2.3,MacIntel,59.99880002,,,,,,,
,,,,,,,,,,,,,,,,,-32.22222222,61,20,75,65.77777778,4.777777778,4.777777778,-0.205369059,-0.418020901,1,0,1,1.6642,submitButton,11.08748906,-0.204795464,-0.416525336,0,0,1,2,21,141,45,1,61,69364,N,180,2022-02-16_13h58.08.364,orientation adjustment blockN,2021.2.3,MacIntel,59.99880002,,,,,,,
,,,,,,,,,,,,,,,,,-30.55555556,58,20,75,61.44444444,3.444444444,3.444444444,-0.248999057,-0.384001465,1,0,1,1.7326,submitButton,11.02777778,-0.248999057,-0.384001465,0,0,1,2,22,142,42,1,58,69364,N,180,2022-02-16_13h58.08.364,orientation adjustment blockN,2021.2.3,MacIntel,59.99880002,,,,,,,
,,,,,,,,,,,,,,,,,-48.88888889,40,20,75,34.11111111,5.888888889,5.888888889,-0.289962158,-0.403608805,1,0,1,1.2325,submitButton,10.98794143,-0.289613715,-0.404654134,0,0,1,2,23,143,24,1,40,69364,N,180,2022-02-16_13h58.08.364,orientation adjustment blockN,2021.2.3,MacIntel,59.99880002,,,,,,,
,,,,,,,,,,,,,,,,,-72.77777778,-69,20,75,-237.7777778,11.22222222,11.22222222,-0.22002889,-0.382465956,1,0,1,2.219,submitButton,10.98974359,-0.218021444,-0.382465956,0,0,1,2,24,144,53,1,69,69364,N,180,2022-02-16_13h58.08.364,orientation adjustment blockN,2021.2.3,MacIntel,59.99880002,,,,,,,
,,,,,,,,,,,,,,,,,-55,-56,20,75,-224,12,12,-0.230939467,-0.392539944,1,0,1,2.8838,submitButton,10.99745547,-0.230939467,-0.391106025,0,0,1,2,25,145,40,1,56,69364,N,180,2022-02-16_13h58.08.364,orientation adjustment blockN,2021.2.3,MacIntel,59.99880002,,,,,,,
,,,,,,,,,,,,,,,,,44.44444444,35,20,75,38.44444444,3.444444444,3.444444444,-0.347034844,-0.387367147,1,0,1,1.6102,submitButton,10.94023569,-0.347034844,-0.387080349,0,0,1,2,26,146,19,1,35,69364,N,180,2022-02-16_13h58.08.364,orientation adjustment blockN,2021.2.3,MacIntel,59.99880002,,,,,,,
,,,,,,,,,,,,,,,,,60.55555556,-43,20,75,-31.44444444,11.55555556,11.55555556,-0.31267117,-0.388789198,1,0,1,1.6014,submitButton,10.94486216,-0.31267117,-0.388215603,0,0,1,2,27,147,27,1,43,69364,N,180,2022-02-16_13h58.08.364,orientation adjustment blockN,2021.2.3,MacIntel,59.99880002,,,,,,,
,,,,,,,,,,,,,,,,,-52.22222222,29,20,75,33.77777778,4.777777778,4.777777778,-0.392980143,-0.35761183,1,0,1,1.027,submitButton,10.89883914,-0.381630995,-0.385725572,0,0,1,2,28,148,13,1,29,69364,N,180,2022-02-16_13h58.08.364,orientation adjustment blockN,2021.2.3,MacIntel,59.99880002,,,,,,,
,,,,,,,,,,,,,,,,,75,-52,20,75,-43,9,9,-0.241233114,-0.392429945,1,0,1,1.5339,submitButton,10.88477366,-0.241233114,-0.392429945,0,0,1,2,29,149,36,1,52,69364,N,180,2022-02-16_13h58.08.364,orientation adjustment blockN,2021.2.3,MacIntel,59.99880002,,,,,,,
,,,,,,,,,,,,,,,,,-35.55555556,27,20,75,42.44444444,15.44444444,15.44444444,-0.191526489,-0.401692641,1,0,1,1.7095,submitButton,10.91830065,-0.191526489,-0.401405843,0,0,1,2,30,150,11,1,27,69364,N,180,2022-02-16_13h58.08.364,orientation adjustment blockN,2021.2.3,MacIntel,59.99880002,,,,,,,
,,,,,,,,,,,,,,,,,-38.88888889,48,20,75,43.11111111,4.888888889,4.888888889,-0.286668769,-0.388529053,1,0,1,0.885,submitButton,10.87429035,-0.286095174,-0.388242255,0,0,1,2,31,151,32,1,48,69364,N,180,2022-02-16_13h58.08.364,orientation adjustment blockN,2021.2.3,MacIntel,59.99880002,,,,,,,
,,,,,,,,,,,,,,,,,-22.22222222,38,20,75,35.77777778,2.222222222,2.222222222,-0.307849596,-0.405497843,1,0,1,0.5661,submitButton,10.8115942,-0.307849596,-0.405497843,0,0,1,2,32,152,22,1,38,69364,N,180,2022-02-16_13h58.08.364,orientation adjustment blockN,2021.2.3,MacIntel,59.99880002,,,,,,,
,,,,,,,,,,,,,,,,,37.77777778,37,20,75,40.77777778,3.777777778,3.777777778,-0.187880656,-0.450291816,1,0,1,2.3488,submitButton,10.76099121,-0.190589328,-0.415752767,0,0,1,2,33,153,21,1,37,69364,N,180,2022-02-16_13h58.08.364,orientation adjustment blockN,2021.2.3,MacIntel,59.99880002,,,,,,,
,,,,,,,,,,,,,,,,,-69.44444444,16,20,75,36.55555556,20.55555556,20.55555556,-0.192619358,-0.40360121,1,0,1,2.6863,submitButton,10.83095238,-0.190038317,-0.40360121,0,0,1,2,34,154,0,1,16,69364,N,180,2022-02-16_13h58.08.364,orientation adjustment blockN,2021.2.3,MacIntel,59.99880002,,,,,,,
,,,,,,,,,,,,,,,,,20,-46,20,75,-45,1,1,-0.146857232,-0.388785807,1,0,1,2.1633,submitButton,10.76122931,-0.146857232,-0.388785807,0,0,1,2,35,155,30,1,46,69364,N,180,2022-02-16_13h58.08.364,orientation adjustment blockN,2021.2.3,MacIntel,59.99880002,,,,,,,
,,,,,,,,,,,,,,,,,62.77777778,36,20,75,222.7777778,6.777777778,6.777777778,-0.12155972,-0.415053168,1,0,1,2.7335,submitButton,10.73317684,-0.12155972,-0.415053168,0,0,1,2,36,156,20,1,36,69364,N,180,2022-02-16_13h58.08.364,orientation adjustment blockN,2021.2.3,MacIntel,59.99880002,,,,,,,
,,,,,,,,,,,,,,,,,-36.66666667,55,20,75,48.33333333,6.666666667,6.666666667,-0.156480781,-0.39452535,1,0,1,0.7993,submitButton,10.7047397,-0.154513482,-0.39452535,0,0,1,2,37,157,39,1,55,69364,N,180,2022-02-16_13h58.08.364,orientation adjustment blockN,2021.2.3,MacIntel,59.99880002,,,,,,,
,,,,,,,,,,,,,,,,,27.22222222,-60,20,75,-53.77777778,6.222222222,6.222222222,-0.190713026,-0.410352037,1,0,1,0.9139,submitButton,10.67361111,-0.190713026,-0.410352037,0,0,1,2,38,158,44,1,60,69364,N,180,2022-02-16_13h58.08.364,orientation adjustment blockN,2021.2.3,MacIntel,59.99880002,,,,,,,
,,,,,,,,,,,,,,,,,29.44444444,66,20,75,216.4444444,29.55555556,29.55555556,-0.393955282,-0.425894165,1,0,1,2.5373,submitButton,10.80383142,-0.393955282,-0.425894165,0,0,1,2,39,159,50,1,66,69364,N,180,2022-02-16_13h58.08.364,orientation adjustment blockN,2021.2.3,MacIntel,59.99880002,,,,,,,
,,,,,,,,,,,,,,,,,45.55555556,68,20,75,221.5555556,26.44444444,26.44444444,-0.378283793,-0.417931858,1,0,1,2.3831,submitButton,10.9109589,-0.378283793,-0.417931858,0,0,1,2,40,160,52,1,68,69364,N,180,2022-02-16_13h58.08.364,orientation adjustment blockN,2021.2.3,MacIntel,59.99880002,,,,,,,
,,,,,,,,,,,,,,,,,-22.77777778,54,20,75,59.22222222,5.222222222,5.222222222,-0.203136325,-0.387559001,1,0,1,0.9345,submitButton,10.87226002,-0.203136325,-0.385551487,0,0,1,2,41,161,38,1,54,69364,N,180,2022-02-16_13h58.08.364,orientation adjustment blockN,2021.2.3,MacIntel,59.99880002,,,,,,,
,,,,,,,,,,,,,,,,,52.77777778,-49,20,75,-47.22222222,1.777777778,1.777777778,-0.239681125,-0.380252821,1,0,1,1.3178,submitButton,10.81081081,-0.239681125,-0.380252821,0,0,1,2,42,162,33,1,49,69364,N,180,2022-02-16_13h58.08.364,orientation adjustment blockN,2021.2.3,MacIntel,59.99880002,,,,,,,
,,,,,,,,,,,,,,,,,-49.44444444,67,20,75,55.55555556,11.44444444,11.44444444,-0.381380819,-0.425984158,1,0,1,1.0643,submitButton,10.81506339,-0.37765269,-0.426844482,0,0,1,2,43,163,51,1,67,69364,N,180,2022-02-16_13h58.08.364,orientation adjustment blockN,2021.2.3,MacIntel,59.99880002,,,,,,,
,,,,,,,,,,,,,,,,,-25,20,20,75,22,2,2,-0.208487752,-0.423732842,1,0,1,1.0563,submitButton,10.7562963,-0.208487752,-0.423446045,0,0,1,2,44,164,4,1,20,69364,N,180,2022-02-16_13h58.08.364,orientation adjustment blockN,2021.2.3,MacIntel,59.99880002,,,,,,,
,,,,,,,,,,,,,,,,,64.44444444,75,20,75,254.4444444,0.555555556,0.555555556,-0.168662042,-0.385161133,1,0,1,4.2318,submitButton,10.68874172,-0.168662042,-0.384874335,0,0,1,2,45,165,59,1,75,69364,N,180,2022-02-16_13h58.08.364,orientation adjustment blockN,2021.2.3,MacIntel,59.99880002,,,,,,,
,,,,,,,,,,,,,,,,,-47.77777778,-45,20,75,-217.7777778,7.222222222,7.222222222,-0.196279297,-0.417555542,1,0,1,2.7997,submitButton,10.66593567,-0.193124729,-0.417555542,0,0,1,2,46,166,29,1,45,69364,N,180,2022-02-16_13h58.08.364,orientation adjustment blockN,2021.2.3,MacIntel,59.99880002,,,,,,,
,,,,,,,,,,,,,,,,,-40,24,20,75,26,2,2,-0.157484199,-0.408447673,1,0,1,1.0503,submitButton,10.60929557,-0.157484199,-0.408447673,0,0,1,2,47,167,8,1,24,69364,N,180,2022-02-16_13h58.08.364,orientation adjustment blockN,2021.2.3,MacIntel,59.99880002,,,,,,,
,,,,,,,,,,,,,,,,,-42.22222222,21,20,75,32.77777778,11.77777778,11.77777778,-0.12135159,-0.42642551,1,0,1,1.7621,submitButton,10.61688312,-0.12135159,-0.42642551,0,0,1,2,48,168,5,1,21,69364,N,180,2022-02-16_13h58.08.364,orientation adjustment blockN,2021.2.3,MacIntel,59.99880002,,,,,,,
,,,,,,,,,,,,,,,,,51.11111111,64,20,75,245.1111111,1.111111111,1.111111111,-0.298634779,-0.405044284,1,0,1,3.5885,submitButton,10.55555556,-0.298634779,-0.405044284,0,0,1,2,49,169,48,1,64,69364,N,180,2022-02-16_13h58.08.364,orientation adjustment blockN,2021.2.3,MacIntel,59.99880002,,,,,,,
,,,,,,,,,,,,,,,,,35,51,20,75,42,9,9,-0.307586466,-0.408096517,1,0,1,1.2829,submitButton,10.54558405,-0.307586466,-0.408096517,0,0,1,2,50,170,35,1,51,69364,N,180,2022-02-16_13h58.08.364,orientation adjustment blockN,2021.2.3,MacIntel,59.99880002,,,,,,,
,,,,,,,,,,,,,,,,,50.55555556,73,20,75,215.5555556,37.44444444,37.44444444,-0.311359524,-0.350013021,1,0,1,3.1172,submitButton,10.71691437,-0.352326864,-0.396441718,0,0,1,2,51,171,57,1,73,69364,N,180,2022-02-16_13h58.08.364,orientation adjustment blockN,2021.2.3,MacIntel,59.99880002,,,,,,,
,,,,,,,,,,,,,,,,,-42.77777778,-39,20,75,-36.77777778,2.222222222,2.222222222,-0.376963433,-0.357545302,1,0,1,1.5127,submitButton,10.66315049,-0.372886895,-0.393170776,0,0,1,2,52,172,23,1,39,69364,N,180,2022-02-16_13h58.08.364,orientation adjustment blockN,2021.2.3,MacIntel,59.99880002,,,,,,,
,,,,,,,,,,,,,,,,,-73.33333333,72,20,75,44.66666667,27.33333333,27.33333333,-0.174776611,-0.416820407,1,0,1,1.2158,submitButton,10.76799441,-0.174776611,-0.416820407,0,0,1,2,53,173,56,1,72,69364,N,180,2022-02-16_13h58.08.364,orientation adjustment blockN,2021.2.3,MacIntel,59.99880002,,,,,,,
,,,,,,,,,,,,,,,,,-65.55555556,-22,20,75,-204.5555556,2.555555556,2.555555556,-0.38238305,-0.408484633,1,0,1,2.6166,submitButton,10.71666667,-0.38238305,-0.409529961,0,0,1,2,54,174,6,1,22,69364,N,180,2022-02-16_13h58.08.364,orientation adjustment blockN,2021.2.3,MacIntel,59.99880002,,,,,,,
,,,,,,,,,,,,,,,,,-51.66666667,28,20,75,25.33333333,2.666666667,2.666666667,-0.350511475,-0.355687595,1,0,1,1.1669,submitButton,10.66666667,-0.374739176,-0.401448364,0,0,1,2,55,175,12,1,28,69364,N,180,2022-02-16_13h58.08.364,orientation adjustment blockN,2021.2.3,MacIntel,59.99880002,,,,,,,
,,,,,,,,,,,,,,,,,-52.77777778,-33,20,75,-225.7777778,12.77777778,12.77777778,-0.250801832,-0.383162096,1,0,1,3.1833,submitButton,10.67969822,-0.250801832,-0.383162096,0,0,1,2,56,176,17,1,33,69364,N,180,2022-02-16_13h58.08.364,orientation adjustment blockN,2021.2.3,MacIntel,59.99880002,,,,,,,
,,,,,,,,,,,,,,,,,-28.88888889,26,20,75,39.11111111,13.11111111,13.11111111,-0.412795749,-0.418801609,1,0,1,1.1645,submitButton,10.69461486,-0.412795749,-0.418801609,0,0,1,2,57,177,10,1,26,69364,N,180,2022-02-16_13h58.08.364,orientation adjustment blockN,2021.2.3,MacIntel,59.99880002,,,,,,,
,,,,,,,,,,,,,,,,,-72.77777778,18,20,75,45.22222222,27.22222222,27.22222222,-0.296190796,-0.406166721,1,0,1,2.0168,submitButton,10.79539295,-0.295330471,-0.406740316,0,0,1,2,58,178,2,1,18,69364,N,180,2022-02-16_13h58.08.364,orientation adjustment blockN,2021.2.3,MacIntel,59.99880002,,,,,,,
,,,,,,,,,,,,,,,,,75,-65,20,75,-41,24,24,-0.402471381,-0.412768962,1,0,1,1.6619,submitButton,10.87542088,-0.402471381,-0.412768962,0,0,1,2,59,179,49,1,65,69364,N,180,2022-02-16_13h58.08.364,orientation adjustment blockN,2021.2.3,MacIntel,59.99880002,,,,,,,
,,,,,,,,,,,,,,,,,,,,,,,,,,,,,,,,,,,,,,,,,,,69364,N,180,2022-02-16_13h58.08.364,orientation adjustment blockN,2021.2.3,MacIntel,59.99880002,,0.274174533,-0.404044529,1,0,1,EndButtonTxt
