consentMouse1.x,consentMouse1.y,consentMouse1.leftButton,consentMouse1.midButton,consentMouse1.rightButton,consentMouse1.clicked_name,consent_Mouse.x,consent_Mouse.y,consent_Mouse.leftButton,consent_Mouse.midButton,consent_Mouse.rightButton,consent_Mouse.clicked_name,startMouse.x,startMouse.y,startMouse.leftButton,startMouse.midButton,startMouse.rightButton,start_distance,fixedOri,minimalDistance,maxOri,this_ori,accuracy,presented_accuracy,submitMouse.x,submitMouse.y,submitMouse.leftButton,submitMouse.midButton,submitMouse.rightButton,submitMouse.time,submitMouse.clicked_name,block_accuracy,continueMouse.x,continueMouse.y,continueMouse.leftButton,continueMouse.midButton,continueMouse.rightButton,trials.thisRepN,trials.thisTrialN,trials.thisN,trials.thisIndex,trials.ran,startOri,participant,condition,nTrials,date,expName,psychopyVersion,OS,frameRate,continueMouse.clicked_name,EndButtonMouse.x,EndButtonMouse.y,EndButtonMouse.leftButton,EndButtonMouse.midButton,EndButtonMouse.rightButton,EndButtonMouse.clicked_name
0.351111111,-0.397204861,1,0,0,consent_button1,0.407439236,-0.403667535,1,0,0,consent_button,-0.103480903,-0.339427083,1,0,0,52.77777778,-65,20,75,4.777777778,69.77777778,69.77777778,0.188020833,-0.308658854,1,0,0,2.1659,submitButton,69.77777778,-0.219787326,-0.316302083,0,0,0,0,0,0,49,1,65,69757,N,180,2022-02-15_20h54.56.901,orientation adjustment blockN,2021.2.3,MacIntel,60.0024001,,,,,,,
,,,,,,,,,,,,,,,,,-25.55555556,-43,20,75,-54.55555556,11.55555556,11.55555556,0.207682292,-0.307335069,1,0,0,0.3858,submitButton,40.66666667,-0.292604167,-0.39578125,0,0,0,0,1,1,27,1,43,69757,N,180,2022-02-15_20h54.56.901,orientation adjustment blockN,2021.2.3,MacIntel,60.0024001,,,,,,,
,,,,,,,,,,,,,,,,,51.11111111,67,20,75,234.1111111,12.88888889,12.88888889,0.205590278,-0.311223958,1,0,0,0.0669,submitButton,31.40740741,-0.322473958,-0.399197049,0,0,0,0,2,2,51,1,67,69757,N,180,2022-02-15_20h54.56.901,orientation adjustment blockN,2021.2.3,MacIntel,60.0024001,,,,,,,
,,,,,,,,,,,,,,,,,-67.77777778,-34,20,75,-193.7777778,20.22222222,20.22222222,0.401514757,-0.314835069,1,0,0,1.768,submitButton,20.22222222,-0.449713542,-0.416215278,0,0,0,0,3,3,18,1,34,69757,N,180,2022-02-15_20h54.56.901,orientation adjustment blockN,2021.2.3,MacIntel,60.0024001,,,,,,,
,,,,,,,,,,,,,,,,,23.88888889,-29,20,75,-24.11111111,4.888888889,4.888888889,0.394605035,-0.301267361,1,0,0,0.0831,submitButton,12.55555556,-0.346076389,-0.392105035,0,0,0,0,4,4,13,1,29,69757,N,180,2022-02-15_20h54.56.901,orientation adjustment blockN,2021.2.3,MacIntel,60.0024001,,,,,,,
,,,,,,,,,,,,,,,,,47.77777778,-46,20,75,-33.22222222,12.77777778,12.77777778,-0.362877604,-0.414726563,1,0,0,0.9662,submitButton,12.62962963,-0.053003472,-0.295742187,0,0,0,0,5,5,30,1,46,69757,N,180,2022-02-15_20h54.56.901,orientation adjustment blockN,2021.2.3,MacIntel,60.0024001,,,,,,,
,,,,,,,,,,,,,,,,,21.11111111,-37,20,75,-26.88888889,10.11111111,10.11111111,0.365069444,-0.29125,1,0,0,0.0504,submitButton,10.11111111,-0.401310764,-0.410190972,0,0,0,0,6,6,21,1,37,69757,N,180,2022-02-15_20h54.56.901,orientation adjustment blockN,2021.2.3,MacIntel,60.0024001,,,,,,,
,,,,,,,,,,,,,,,,,63.88888889,27,20,75,202.8888889,4.111111111,4.111111111,0.232005208,-0.308554687,1,0,0,1.867,submitButton,7.111111111,-0.434140625,-0.424947917,0,0,0,0,7,7,11,1,27,69757,N,180,2022-02-15_20h54.56.901,orientation adjustment blockN,2021.2.3,MacIntel,60.0024001,,,,,,,
,,,,,,,,,,,,,,,,,58.88888889,51,20,75,229.8888889,1.111111111,1.111111111,0.227712674,-0.31516059,1,0,0,0.4508,submitButton,5.111111111,-0.368194444,-0.384882813,0,0,0,0,8,8,35,1,51,69757,N,180,2022-02-15_20h54.56.901,orientation adjustment blockN,2021.2.3,MacIntel,60.0024001,,,,,,,
,,,,,,,,,,,,,,,,,52.77777778,20,20,75,27.77777778,7.777777778,7.777777778,0.438272569,-0.266844618,1,0,0,0.7674,submitButton,7.777777778,-0.386835938,-0.391180556,0,0,0,0,9,9,4,1,20,69757,N,180,2022-02-15_20h54.56.901,orientation adjustment blockN,2021.2.3,MacIntel,60.0024001,,,,,,,
,,,,,,,,,,,,,,,,,-71.11111111,-35,20,75,-204.1111111,10.88888889,10.88888889,0.206280382,-0.302855903,1,0,0,2.6175,submitButton,9.333333333,-0.355082465,-0.41812934,0,0,0,0,10,10,19,1,35,69757,N,180,2022-02-15_20h54.56.901,orientation adjustment blockN,2021.2.3,MacIntel,60.0024001,,,,,,,
,,,,,,,,,,,,,,,,,-57.22222222,-68,20,75,-251.2222222,3.222222222,3.222222222,0.418602431,-0.290056424,1,0,0,1.8331,submitButton,7.296296296,-0.322803819,-0.380551215,0,0,0,0,11,11,52,1,68,69757,N,180,2022-02-15_20h54.56.901,orientation adjustment blockN,2021.2.3,MacIntel,60.0024001,,,,,,,
,,,,,,,,,,,,,,,,,-60,74,20,75,66,8,8,0.182482639,-0.296171875,1,0,0,0.3838,submitButton,8,-0.517400174,-0.411731771,0,0,0,0,12,12,58,1,74,69757,N,180,2022-02-15_20h54.56.901,orientation adjustment blockN,2021.2.3,MacIntel,60.0024001,,,,,,,
,,,,,,,,,,,,,,,,,51.11111111,41,20,75,51.11111111,10.11111111,10.11111111,0.393767361,-0.289444444,1,0,0,0.2993,submitButton,9.055555556,-0.470069444,-0.414010417,0,0,0,0,13,13,25,1,41,69757,N,180,2022-02-15_20h54.56.901,orientation adjustment blockN,2021.2.3,MacIntel,60.0024001,,,,,,,
,,,,,,,,,,,,,,,,,45,58,20,75,71,13,13,-0.506974826,-0.405134549,1,0,0,1.4673,submitButton,10.37037037,0.267886285,-0.411046007,1,0,0,0,14,14,42,1,58,69757,N,180,2022-02-15_20h54.56.901,orientation adjustment blockN,2021.2.3,MacIntel,60.0024001,continueButton,,,,,,
,,,,,,,,,,,,,,,,,62.22222222,44,20,75,212.2222222,11.77777778,11.77777778,0.197391493,-0.283385417,1,0,0,1.4669,submitButton,11.77777778,-0.15094184,-0.396766493,0,0,0,0,15,15,28,1,44,69757,N,180,2022-02-15_20h54.56.901,orientation adjustment blockN,2021.2.3,MacIntel,60.0024001,,,,,,,
,,,,,,,,,,,,,,,,,68.33333333,-54,20,75,-38.66666667,15.33333333,15.33333333,-0.48109809,-0.419544271,1,0,0,1.4332,submitButton,13.55555556,0.031822917,-0.317473958,0,0,0,0,16,16,38,1,54,69757,N,180,2022-02-15_20h54.56.901,orientation adjustment blockN,2021.2.3,MacIntel,60.0024001,,,,,,,
,,,,,,,,,,,,,,,,,64.44444444,-39,20,75,-30.55555556,8.444444444,8.444444444,-0.542938368,-0.418875868,1,0,0,1.519,submitButton,11.85185185,0.247209201,-0.32843316,0,0,0,0,17,17,23,1,39,69757,N,180,2022-02-15_20h54.56.901,orientation adjustment blockN,2021.2.3,MacIntel,60.0024001,,,,,,,
,,,,,,,,,,,,,,,,,48.88888889,-47,20,75,-36.11111111,10.88888889,10.88888889,0.220533854,-0.294392361,1,0,0,0.9677,submitButton,11.61111111,-0.184913194,-0.325026042,0,0,0,0,18,18,31,1,47,69757,N,180,2022-02-15_20h54.56.901,orientation adjustment blockN,2021.2.3,MacIntel,60.0024001,,,,,,,
,,,,,,,,,,,,,,,,,-60.55555556,-24,20,75,-201.5555556,2.444444444,2.444444444,0.42952691,-0.288415799,1,0,0,1.5001,submitButton,9.777777778,0.303424479,-0.161644965,0,0,0,0,19,19,8,1,24,69757,N,180,2022-02-15_20h54.56.901,orientation adjustment blockN,2021.2.3,MacIntel,60.0024001,,,,,,,
,,,,,,,,,,,,,,,,,-61.11111111,75,20,75,63.88888889,11.11111111,11.11111111,-0.509887153,-0.392986111,1,0,0,1.3332,submitButton,10,0.001475694,-0.290850694,0,0,0,0,20,20,59,1,75,69757,N,180,2022-02-15_20h54.56.901,orientation adjustment blockN,2021.2.3,MacIntel,60.0024001,,,,,,,
,,,,,,,,,,,,,,,,,65.55555556,-38,20,75,-26.44444444,11.55555556,11.55555556,0.259114583,-0.316432292,1,0,0,1.1847,submitButton,10.22222222,0.084461806,-0.172630208,0,0,0,0,21,21,22,1,38,69757,N,180,2022-02-15_20h54.56.901,orientation adjustment blockN,2021.2.3,MacIntel,60.0024001,,,,,,,
,,,,,,,,,,,,,,,,,55.55555556,-59,20,75,-65.44444444,6.444444444,6.444444444,0.369279514,-0.293337674,1,0,0,1.5998,submitButton,9.75,0.101115451,-0.222243924,0,0,0,0,22,22,43,1,59,69757,N,180,2022-02-15_20h54.56.901,orientation adjustment blockN,2021.2.3,MacIntel,60.0024001,,,,,,,
,,,,,,,,,,,,,,,,,-61.66666667,-23,20,75,-202.6666667,0.333333333,0.333333333,-0.492200521,-0.408498264,1,0,0,2.9992,submitButton,8.703703704,-0.492200521,-0.408498264,0,0,0,0,23,23,7,1,23,69757,N,180,2022-02-15_20h54.56.901,orientation adjustment blockN,2021.2.3,MacIntel,60.0024001,,,,,,,
,,,,,,,,,,,,,,,,,-20,28,20,75,29,1,1,-0.48687066,-0.420976562,1,0,0,0.6665,submitButton,7.933333333,0.239075521,-0.35141059,0,0,0,0,24,24,12,1,28,69757,N,180,2022-02-15_20h54.56.901,orientation adjustment blockN,2021.2.3,MacIntel,60.0024001,,,,,,,
,,,,,,,,,,,,,,,,,-67.22222222,25,20,75,28.77777778,3.777777778,3.777777778,0.246584201,-0.306631944,1,0,0,1.1501,submitButton,7.555555556,0.113398438,-0.187591146,0,0,0,0,25,25,9,1,25,69757,N,180,2022-02-15_20h54.56.901,orientation adjustment blockN,2021.2.3,MacIntel,60.0024001,,,,,,,
,,,,,,,,,,,,,,,,,21.66666667,52,20,75,45.66666667,6.333333333,6.333333333,0.425750868,-0.329513889,1,0,0,0.2161,submitButton,7.453703704,0.022582465,-0.26609375,0,0,0,0,26,26,36,1,52,69757,N,180,2022-02-15_20h54.56.901,orientation adjustment blockN,2021.2.3,MacIntel,60.0024001,,,,,,,
,,,,,,,,,,,,,,,,,67.22222222,-61,20,75,-53.77777778,7.222222222,7.222222222,0.422226563,-0.281614583,1,0,0,0.8664,submitButton,7.435897436,-0.0553125,-0.315,0,0,0,0,27,27,45,1,61,69757,N,180,2022-02-15_20h54.56.901,orientation adjustment blockN,2021.2.3,MacIntel,60.0024001,,,,,,,
,,,,,,,,,,,,,,,,,26.11111111,72,20,75,71.11111111,0.888888889,0.888888889,0.430026042,-0.307248264,1,0,0,0.3661,submitButton,6.968253968,0.108033854,-0.320017361,0,0,0,0,28,28,56,1,72,69757,N,180,2022-02-15_20h54.56.901,orientation adjustment blockN,2021.2.3,MacIntel,60.0024001,,,,,,,
,,,,,,,,,,,,,,,,,-51.66666667,-45,20,75,-51.66666667,6.666666667,6.666666667,0.190421007,-0.322252604,1,0,0,0.1991,submitButton,6.948148148,0.342131076,-0.404574653,1,0,0,0,29,29,29,1,45,69757,N,180,2022-02-15_20h54.56.901,orientation adjustment blockN,2021.2.3,MacIntel,60.0024001,continueButton,,,,,,
,,,,,,,,,,,,,,,,,-28.33333333,31,20,75,19.66666667,11.33333333,11.33333333,0.20046875,-0.293294271,1,0,0,1.5157,submitButton,7.222222222,-0.10359375,-0.298519965,0,0,0,0,30,30,15,1,31,69757,N,180,2022-02-15_20h54.56.901,orientation adjustment blockN,2021.2.3,MacIntel,60.0024001,,,,,,,
,,,,,,,,,,,,,,,,,-26.66666667,-26,20,75,-207.6666667,1.666666667,1.666666667,-0.57952691,-0.379040799,1,0,0,3.5497,submitButton,6.895424837,-0.57875,-0.377981771,0,0,0,0,31,31,10,1,26,69757,N,180,2022-02-15_20h54.56.901,orientation adjustment blockN,2021.2.3,MacIntel,60.0024001,,,,,,,
,,,,,,,,,,,,,,,,,33.33333333,60,20,75,207.3333333,32.66666667,32.66666667,0.395681424,-0.300672743,1,0,0,2.8662,submitButton,8.327160494,-0.156358507,-0.290230035,0,0,0,0,32,32,44,1,60,69757,N,180,2022-02-15_20h54.56.901,orientation adjustment blockN,2021.2.3,MacIntel,60.0024001,,,,,,,
,,,,,,,,,,,,,,,,,39.44444444,17,20,75,39.44444444,22.44444444,22.44444444,0.436744792,-0.286974826,1,0,0,0.1327,submitButton,9.070175439,-0.46,-0.400134549,0,0,0,0,33,33,1,1,17,69757,N,180,2022-02-15_20h54.56.901,orientation adjustment blockN,2021.2.3,MacIntel,60.0024001,,,,,,,
,,,,,,,,,,,,,,,,,41.11111111,-57,20,75,-48.88888889,8.111111111,8.111111111,-0.516432292,-0.404175347,1,0,0,1.6174,submitButton,9.022222222,-0.516432292,-0.404175347,0,0,0,0,34,34,41,1,57,69757,N,180,2022-02-15_20h54.56.901,orientation adjustment blockN,2021.2.3,MacIntel,60.0024001,,,,,,,
,,,,,,,,,,,,,,,,,47.22222222,-70,20,75,-60.77777778,9.222222222,9.222222222,-0.510542535,-0.395325521,1,0,0,1.0507,submitButton,9.031746032,-0.510542535,-0.395325521,0,0,0,0,35,35,54,1,70,69757,N,180,2022-02-15_20h54.56.901,orientation adjustment blockN,2021.2.3,MacIntel,60.0024001,,,,,,,
,,,,,,,,,,,,,,,,,-20,-21,20,75,-41,20,20,-0.576688368,-0.415147569,1,0,0,0.6,submitButton,9.53030303,-0.576688368,-0.415147569,0,0,0,0,36,36,5,1,21,69757,N,180,2022-02-15_20h54.56.901,orientation adjustment blockN,2021.2.3,MacIntel,60.0024001,,,,,,,
,,,,,,,,,,,,,,,,,-48.33333333,55,20,75,33.66666667,21.33333333,21.33333333,-0.566631944,-0.387677951,1,0,0,1.0498,submitButton,10.04347826,-0.566631944,-0.387677951,0,0,0,0,37,37,39,1,55,69757,N,180,2022-02-15_20h54.56.901,orientation adjustment blockN,2021.2.3,MacIntel,60.0024001,,,,,,,
,,,,,,,,,,,,,,,,,46.66666667,49,20,75,218.6666667,10.33333333,10.33333333,0.196236979,-0.326979167,1,0,0,0.0492,submitButton,10.05555556,-0.54155816,-0.385920139,0,0,0,0,38,38,33,1,49,69757,N,180,2022-02-15_20h54.56.901,orientation adjustment blockN,2021.2.3,MacIntel,60.0024001,,,,,,,
,,,,,,,,,,,,,,,,,-66.11111111,-71,20,75,-64.11111111,6.888888889,6.888888889,0.375221354,-0.311970486,1,0,0,0.034,submitButton,9.928888889,-0.515117188,-0.408650174,0,0,0,0,39,39,55,1,71,69757,N,180,2022-02-15_20h54.56.901,orientation adjustment blockN,2021.2.3,MacIntel,60.0024001,,,,,,,
,,,,,,,,,,,,,,,,,35,-62,20,75,-47,15,15,0.387756076,-0.299574653,1,0,0,0.3982,submitButton,10.12393162,-0.562907986,-0.414496528,0,0,0,0,40,40,46,1,62,69757,N,180,2022-02-15_20h54.56.901,orientation adjustment blockN,2021.2.3,MacIntel,60.0024001,,,,,,,
,,,,,,,,,,,,,,,,,-34.44444444,-50,20,75,-60.44444444,10.44444444,10.44444444,0.195594618,-0.280507813,1,0,0,0.4166,submitButton,10.13580247,-0.519522569,-0.40922309,0,0,0,0,41,41,34,1,50,69757,N,180,2022-02-15_20h54.56.901,orientation adjustment blockN,2021.2.3,MacIntel,60.0024001,,,,,,,
,,,,,,,,,,,,,,,,,42.77777778,-36,20,75,-38.22222222,2.222222222,2.222222222,0.412387153,-0.299869792,1,0,0,1.0821,submitButton,9.853174603,-0.239743924,-0.334466146,0,0,0,0,42,42,20,1,36,69757,N,180,2022-02-15_20h54.56.901,orientation adjustment blockN,2021.2.3,MacIntel,60.0024001,,,,,,,
,,,,,,,,,,,,,,,,,-68.33333333,73,20,75,75.66666667,2.666666667,2.666666667,0.220746528,-0.300772569,1,0,0,1.3502,submitButton,9.605363985,-0.528272569,-0.404882813,0,0,0,0,43,43,57,1,73,69757,N,180,2022-02-15_20h54.56.901,orientation adjustment blockN,2021.2.3,MacIntel,60.0024001,,,,,,,
,,,,,,,,,,,,,,,,,45,30,20,75,25,5,5,0.44343316,-0.296532118,1,0,0,1.067,submitButton,9.451851852,0.266744792,-0.409861111,1,0,0,0,44,44,14,1,30,69757,N,180,2022-02-15_20h54.56.901,orientation adjustment blockN,2021.2.3,MacIntel,60.0024001,continueButton,,,,,,
,,,,,,,,,,,,,,,,,28.88888889,-66,20,75,-65.11111111,0.888888889,0.888888889,-0.42516059,-0.411176215,1,0,0,1.3162,submitButton,9.17562724,-0.42516059,-0.411176215,0,0,0,0,45,45,50,1,66,69757,N,180,2022-02-15_20h54.56.901,orientation adjustment blockN,2021.2.3,MacIntel,60.0024001,,,,,,,
,,,,,,,,,,,,,,,,,40,-53,20,75,-46,7,7,0.3853125,-0.312131076,1,0,0,0.7005,submitButton,9.107638889,0.00094184,-0.113363715,0,0,0,0,46,46,37,1,53,69757,N,180,2022-02-15_20h54.56.901,orientation adjustment blockN,2021.2.3,MacIntel,60.0024001,,,,,,,
,,,,,,,,,,,,,,,,,-43.88888889,56,20,75,53.11111111,2.888888889,2.888888889,-0.51374566,-0.38578559,1,0,0,1.0826,submitButton,8.919191919,-0.51374566,-0.380889757,0,0,0,0,47,47,40,1,56,69757,N,180,2022-02-15_20h54.56.901,orientation adjustment blockN,2021.2.3,MacIntel,60.0024001,,,,,,,
,,,,,,,,,,,,,,,,,47.77777778,19,20,75,23.77777778,4.777777778,4.777777778,0.415212674,-0.302799479,1,0,0,1.0676,submitButton,8.797385621,-0.536974826,-0.395963542,0,0,0,0,48,48,3,1,19,69757,N,180,2022-02-15_20h54.56.901,orientation adjustment blockN,2021.2.3,MacIntel,60.0024001,,,,,,,
,,,,,,,,,,,,,,,,,22.77777778,-32,20,75,-24.22222222,7.777777778,7.777777778,-0.514184028,-0.397703993,1,0,0,0.5654,submitButton,8.768253968,-0.514184028,-0.396445312,0,0,0,0,49,49,16,1,32,69757,N,180,2022-02-15_20h54.56.901,orientation adjustment blockN,2021.2.3,MacIntel,60.0024001,,,,,,,
,,,,,,,,,,,,,,,,,64.44444444,33,20,75,216.4444444,3.444444444,3.444444444,0.199739583,-0.314809028,1,0,0,2.0832,submitButton,8.62037037,-0.588116319,-0.390269097,0,0,0,0,50,50,17,1,33,69757,N,180,2022-02-15_20h54.56.901,orientation adjustment blockN,2021.2.3,MacIntel,60.0024001,,,,,,,
,,,,,,,,,,,,,,,,,-32.22222222,48,20,75,36.77777778,11.22222222,11.22222222,0.206228299,-0.298459201,1,0,0,0.0841,submitButton,8.690690691,-0.041861979,-0.289765625,0,0,0,0,51,51,32,1,48,69757,N,180,2022-02-15_20h54.56.901,orientation adjustment blockN,2021.2.3,MacIntel,60.0024001,,,,,,,
,,,,,,,,,,,,,,,,,45,16,20,75,20,4,4,-0.508051215,-0.420217014,1,0,0,1.1999,submitButton,8.567251462,-0.508051215,-0.420217014,0,0,0,0,52,52,0,1,16,69757,N,180,2022-02-15_20h54.56.901,orientation adjustment blockN,2021.2.3,MacIntel,60.0024001,,,,,,,
,,,,,,,,,,,,,,,,,62.22222222,42,20,75,216.2222222,5.777777778,5.777777778,0.182178819,-0.295655382,1,0,0,1.8834,submitButton,8.495726496,-0.50312066,-0.385894097,0,0,0,0,53,53,26,1,42,69757,N,180,2022-02-15_20h54.56.901,orientation adjustment blockN,2021.2.3,MacIntel,60.0024001,,,,,,,
,,,,,,,,,,,,,,,,,45.55555556,18,20,75,20.55555556,2.555555556,2.555555556,-0.484626736,-0.403098958,1,0,0,1.5161,submitButton,8.347222222,-0.484626736,-0.403098958,0,0,0,0,54,54,2,1,18,69757,N,180,2022-02-15_20h54.56.901,orientation adjustment blockN,2021.2.3,MacIntel,60.0024001,,,,,,,
,,,,,,,,,,,,,,,,,-34.44444444,-63,20,75,-63.44444444,0.444444444,0.444444444,0.181927083,-0.313255208,1,0,0,0.9169,submitButton,8.154471545,-0.487717014,-0.394631076,0,0,0,0,55,55,47,1,63,69757,N,180,2022-02-15_20h54.56.901,orientation adjustment blockN,2021.2.3,MacIntel,60.0024001,,,,,,,
,,,,,,,,,,,,,,,,,-59.44444444,69,20,75,60.55555556,8.444444444,8.444444444,0.190342882,-0.299418403,1,0,0,0.9003,submitButton,8.161375661,-0.511037326,-0.400655382,0,0,0,0,56,56,53,1,69,69757,N,180,2022-02-15_20h54.56.901,orientation adjustment blockN,2021.2.3,MacIntel,60.0024001,,,,,,,
,,,,,,,,,,,,,,,,,-20.55555556,40,20,75,52.44444444,12.44444444,12.44444444,0.196731771,-0.305282118,1,0,0,0.3496,submitButton,8.260981912,-0.529288194,-0.391384549,0,0,0,0,57,57,24,1,40,69757,N,180,2022-02-15_20h54.56.901,orientation adjustment blockN,2021.2.3,MacIntel,60.0024001,,,,,,,
,,,,,,,,,,,,,,,,,63.88888889,-64,20,75,-38.11111111,25.88888889,25.88888889,0.407890625,-0.302890625,1,0,0,0.2999,submitButton,8.661616162,-0.489835069,-0.397291667,0,0,0,0,58,58,48,1,64,69757,N,180,2022-02-15_20h54.56.901,orientation adjustment blockN,2021.2.3,MacIntel,60.0024001,,,,,,,
,,,,,,,,,,,,,,,,,72.77777778,-22,20,75,118.7777778,39.22222222,39.22222222,0.199930556,-0.305976562,1,0,0,0.2492,submitButton,9.340740741,0.426588542,-0.40328559,1,0,0,0,59,59,6,1,22,69757,N,180,2022-02-15_20h54.56.901,orientation adjustment blockN,2021.2.3,MacIntel,60.0024001,continueButton,,,,,,
,,,,,,,,,,,,,,,,,-31.11111111,-28,20,75,-75.11111111,47.11111111,47.11111111,0.376137153,-0.306202257,1,0,0,2.1996,submitButton,10.16183575,-0.250802951,-0.411462674,0,0,0,1,0,60,12,1,28,69757,N,180,2022-02-15_20h54.56.901,orientation adjustment blockN,2021.2.3,MacIntel,60.0024001,,,,,,,
,,,,,,,,,,,,,,,,,72.77777778,57,20,75,226.7777778,10.22222222,10.22222222,-0.64641059,-0.44375,1,0,0,1.7323,submitButton,10.16312057,-0.311770833,-0.439444444,0,0,0,1,1,61,41,1,57,69757,N,180,2022-02-15_20h54.56.901,orientation adjustment blockN,2021.2.3,MacIntel,60.0024001,,,,,,,
,,,,,,,,,,,,,,,,,61.66666667,-72,20,75,-56.33333333,15.66666667,15.66666667,-0.473342014,-0.399726562,1,0,0,1.0835,submitButton,10.27777778,-0.472851562,-0.399470486,0,0,0,1,2,62,56,1,72,69757,N,180,2022-02-15_20h54.56.901,orientation adjustment blockN,2021.2.3,MacIntel,60.0024001,,,,,,,
,,,,,,,,,,,,,,,,,-41.11111111,-70,20,75,-70.11111111,0.111111111,0.111111111,0.205811632,-0.281536458,1,0,0,0.2329,submitButton,10.07029478,-0.4375,-0.397530382,0,0,0,1,3,63,54,1,70,69757,N,180,2022-02-15_20h54.56.901,orientation adjustment blockN,2021.2.3,MacIntel,60.0024001,,,,,,,
,,,,,,,,,,,,,,,,,56.66666667,-35,20,75,-25.33333333,9.666666667,9.666666667,0.385390625,-0.303541667,1,0,0,0.0671,submitButton,10.06222222,-0.549539931,-0.410099826,0,0,0,1,4,64,19,1,35,69757,N,180,2022-02-15_20h54.56.901,orientation adjustment blockN,2021.2.3,MacIntel,60.0024001,,,,,,,
,,,,,,,,,,,,,,,,,-45,32,20,75,30,2,2,-0.470616319,-0.406571181,1,0,0,1.267,submitButton,9.904139434,-0.468307292,-0.406006944,0,0,0,1,5,65,16,1,32,69757,N,180,2022-02-15_20h54.56.901,orientation adjustment blockN,2021.2.3,MacIntel,60.0024001,,,,,,,
,,,,,,,,,,,,,,,,,-63.88888889,67,20,75,56.11111111,10.88888889,10.88888889,0.185047743,-0.315190972,1,0,0,0.7659,submitButton,9.923076923,-0.552730035,-0.401575521,0,0,0,1,6,66,51,1,67,69757,N,180,2022-02-15_20h54.56.901,orientation adjustment blockN,2021.2.3,MacIntel,60.0024001,,,,,,,
,,,,,,,,,,,,,,,,,70,54,20,75,232,2,2,0.176497396,-0.299761285,1,0,0,1.9493,submitButton,9.773584906,-0.541814236,-0.402426215,0,0,0,1,7,67,38,1,54,69757,N,180,2022-02-15_20h54.56.901,orientation adjustment blockN,2021.2.3,MacIntel,60.0024001,,,,,,,
,,,,,,,,,,,,,,,,,67.22222222,-47,20,75,-35.77777778,11.22222222,11.22222222,0.429882812,-0.304930556,1,0,0,0.8844,submitButton,9.800411523,-0.547556424,-0.4078125,0,0,0,1,8,68,31,1,47,69757,N,180,2022-02-15_20h54.56.901,orientation adjustment blockN,2021.2.3,MacIntel,60.0024001,,,,,,,
,,,,,,,,,,,,,,,,,-52.77777778,-26,20,75,-39.77777778,13.77777778,13.77777778,0.205373264,-0.292643229,1,0,0,0.8661,submitButton,9.872727273,-0.485086806,-0.376210938,0,0,0,1,9,69,10,1,26,69757,N,180,2022-02-15_20h54.56.901,orientation adjustment blockN,2021.2.3,MacIntel,60.0024001,,,,,,,
,,,,,,,,,,,,,,,,,47.77777778,24,20,75,24.77777778,0.777777778,0.777777778,0.384040799,-0.300533854,1,0,0,0.0327,submitButton,9.71031746,-0.555659722,-0.398229167,0,0,0,1,10,70,8,1,24,69757,N,180,2022-02-15_20h54.56.901,orientation adjustment blockN,2021.2.3,MacIntel,60.0024001,,,,,,,
,,,,,,,,,,,,,,,,,21.66666667,75,20,75,251.6666667,3.333333333,3.333333333,0.173315972,-0.321336806,1,0,0,3.0176,submitButton,9.598440546,-0.557760417,-0.406653646,0,0,0,1,11,71,59,1,75,69757,N,180,2022-02-15_20h54.56.901,orientation adjustment blockN,2021.2.3,MacIntel,60.0024001,,,,,,,
,,,,,,,,,,,,,,,,,-52.22222222,-63,20,75,-63.22222222,0.222222222,0.222222222,0.192786458,-0.288368056,1,0,0,0.8009,submitButton,9.436781609,-0.499492188,-0.39984375,0,0,0,1,12,72,47,1,63,69757,N,180,2022-02-15_20h54.56.901,orientation adjustment blockN,2021.2.3,MacIntel,60.0024001,,,,,,,
,,,,,,,,,,,,,,,,,-52.22222222,20,20,75,19.77777778,0.222222222,0.222222222,0.191180556,-0.314943576,1,0,0,0.0666,submitButton,9.280602637,-0.535138889,-0.416015625,0,0,0,1,13,73,4,1,20,69757,N,180,2022-02-15_20h54.56.901,orientation adjustment blockN,2021.2.3,MacIntel,60.0024001,,,,,,,
,,,,,,,,,,,,,,,,,-42.22222222,-43,20,75,-47.22222222,4.222222222,4.222222222,0.169900174,-0.286822917,1,0,0,0.0332,submitButton,9.196296296,0.435477431,-0.403671875,1,0,0,1,14,74,27,1,43,69757,N,180,2022-02-15_20h54.56.901,orientation adjustment blockN,2021.2.3,MacIntel,60.0024001,continueButton,,,,,,
,,,,,,,,,,,,,,,,,55.55555556,18,20,75,30.55555556,12.55555556,12.55555556,0.414965278,-0.313107639,1,0,0,0.833,submitButton,9.25136612,0.020954861,-0.243077257,0,0,0,1,15,75,2,1,18,69757,N,180,2022-02-15_20h54.56.901,orientation adjustment blockN,2021.2.3,MacIntel,60.0024001,,,,,,,
,,,,,,,,,,,,,,,,,63.33333333,-29,20,75,131.3333333,19.66666667,19.66666667,0.182408854,-0.28875,1,0,0,1.4837,submitButton,9.419354839,-0.433702257,-0.384309896,0,0,0,1,16,76,13,1,29,69757,N,180,2022-02-15_20h54.56.901,orientation adjustment blockN,2021.2.3,MacIntel,60.0024001,,,,,,,
,,,,,,,,,,,,,,,,,-67.22222222,56,20,75,33.77777778,22.22222222,22.22222222,0.265407986,-0.307769097,1,0,0,0.0674,submitButton,9.622574956,-0.521067708,-0.392065972,0,0,0,1,17,77,40,1,56,69757,N,180,2022-02-15_20h54.56.901,orientation adjustment blockN,2021.2.3,MacIntel,60.0024001,,,,,,,
,,,,,,,,,,,,,,,,,-60,-62,20,75,-60,2,2,-0.505260417,-0.399127604,1,0,0,1.9167,submitButton,9.503472222,-0.505507812,-0.399127604,0,0,0,1,18,78,46,1,62,69757,N,180,2022-02-15_20h54.56.901,orientation adjustment blockN,2021.2.3,MacIntel,60.0024001,,,,,,,
,,,,,,,,,,,,,,,,,63.33333333,-59,20,75,-42.66666667,16.33333333,16.33333333,0.373350694,-0.289396701,1,0,0,0.8993,submitButton,9.608547009,-0.535034722,-0.402751736,0,0,0,1,19,79,43,1,59,69757,N,180,2022-02-15_20h54.56.901,orientation adjustment blockN,2021.2.3,MacIntel,60.0024001,,,,,,,
,,,,,,,,,,,,,,,,,61.66666667,-45,20,75,-41.33333333,3.666666667,3.666666667,0.412825521,-0.315451389,1,0,0,1.0002,submitButton,9.518518519,-0.459431424,-0.40406684,0,0,0,1,20,80,29,1,45,69757,N,180,2022-02-15_20h54.56.901,orientation adjustment blockN,2021.2.3,MacIntel,60.0024001,,,,,,,
,,,,,,,,,,,,,,,,,-51.66666667,74,20,75,55.33333333,18.66666667,18.66666667,-0.486736111,-0.423511285,1,0,0,0.9827,submitButton,9.655058043,0.031449653,-0.274509549,0,0,0,1,21,81,58,1,74,69757,N,180,2022-02-15_20h54.56.901,orientation adjustment blockN,2021.2.3,MacIntel,60.0024001,,,,,,,
,,,,,,,,,,,,,,,,,-23.33333333,69,20,75,45.66666667,23.33333333,23.33333333,-0.455182292,-0.401822917,1,0,0,3.6503,submitButton,9.85620915,0.047434896,-0.307608507,0,0,0,1,22,82,53,1,69,69757,N,180,2022-02-15_20h54.56.901,orientation adjustment blockN,2021.2.3,MacIntel,60.0024001,,,,,,,
,,,,,,,,,,,,,,,,,46.66666667,-48,20,75,-36.33333333,11.66666667,11.66666667,0.438289931,-0.321271701,1,0,0,0.1495,submitButton,9.882447665,-0.122434896,-0.243680556,0,0,0,1,23,83,32,1,48,69757,N,180,2022-02-15_20h54.56.901,orientation adjustment blockN,2021.2.3,MacIntel,60.0024001,,,,,,,
,,,,,,,,,,,,,,,,,-40,-66,20,75,-239,7,7,-0.574331597,-0.415516493,1,0,0,2.6013,submitButton,9.841269841,-0.574331597,-0.414483507,0,0,0,1,24,84,50,1,66,69757,N,180,2022-02-15_20h54.56.901,orientation adjustment blockN,2021.2.3,MacIntel,60.0024001,,,,,,,
,,,,,,,,,,,,,,,,,-21.66666667,60,20,75,60.33333333,0.333333333,0.333333333,-0.502248264,-0.395403646,1,0,0,0.8329,submitButton,9.707355243,-0.501419271,-0.393515625,0,0,0,1,25,85,44,1,60,69757,N,180,2022-02-15_20h54.56.901,orientation adjustment blockN,2021.2.3,MacIntel,60.0024001,,,,,,,
,,,,,,,,,,,,,,,,,61.11111111,-71,20,75,-54.88888889,16.11111111,16.11111111,0.402096354,-0.309752604,1,0,0,0.8831,submitButton,9.796296296,-0.509153646,-0.420659722,0,0,0,1,26,86,55,1,71,69757,N,180,2022-02-15_20h54.56.901,orientation adjustment blockN,2021.2.3,MacIntel,60.0024001,,,,,,,
,,,,,,,,,,,,,,,,,35,-34,20,75,-22,12,12,0.180959201,-0.303871528,1,0,0,0.9341,submitButton,9.826484018,-0.496154514,-0.394210069,0,0,0,1,27,87,18,1,34,69757,N,180,2022-02-15_20h54.56.901,orientation adjustment blockN,2021.2.3,MacIntel,60.0024001,,,,,,,
,,,,,,,,,,,,,,,,,33.88888889,-46,20,75,-32.11111111,13.88888889,13.88888889,-0.425234375,-0.406527778,1,0,0,1.1004,submitButton,9.881381381,-0.424735243,-0.406527778,0,0,0,1,28,88,30,1,46,69757,N,180,2022-02-15_20h54.56.901,orientation adjustment blockN,2021.2.3,MacIntel,60.0024001,,,,,,,
,,,,,,,,,,,,,,,,,-60.55555556,-31,20,75,-224.5555556,13.55555556,13.55555556,0.386006944,-0.271940104,1,0,0,2.2335,submitButton,9.93037037,0.287309028,-0.395581597,1,0,0,1,29,89,15,1,31,69757,N,180,2022-02-15_20h54.56.901,orientation adjustment blockN,2021.2.3,MacIntel,60.0024001,continueButton,,,,,,
,,,,,,,,,,,,,,,,,44.44444444,-37,20,75,30.44444444,67.44444444,67.44444444,0.224596354,-0.305251736,1,0,0,0.8682,submitButton,10.6871345,-0.380186632,-0.411163194,0,0,0,1,30,90,21,1,37,69757,N,180,2022-02-15_20h54.56.901,orientation adjustment blockN,2021.2.3,MacIntel,60.0024001,,,,,,,
,,,,,,,,,,,,,,,,,-40,17,20,75,24,7,7,0.189921875,-0.280972222,1,0,0,0.3502,submitButton,10.63924964,-0.473372396,-0.421571181,0,0,0,1,31,91,1,1,17,69757,N,180,2022-02-15_20h54.56.901,orientation adjustment blockN,2021.2.3,MacIntel,60.0024001,,,,,,,
,,,,,,,,,,,,,,,,,23.33333333,41,20,75,44.33333333,3.333333333,3.333333333,0.377560764,-0.303298611,1,0,0,0.0845,submitButton,10.54558405,-0.535907118,-0.405633681,0,0,0,1,32,92,25,1,41,69757,N,180,2022-02-15_20h54.56.901,orientation adjustment blockN,2021.2.3,MacIntel,60.0024001,,,,,,,
,,,,,,,,,,,,,,,,,23.88888889,-50,20,75,-36.11111111,13.88888889,13.88888889,0.177899306,-0.294960938,1,0,0,0.2004,submitButton,10.58790436,-0.488428819,-0.398710937,0,0,0,1,33,93,34,1,50,69757,N,180,2022-02-15_20h54.56.901,orientation adjustment blockN,2021.2.3,MacIntel,60.0024001,,,,,,,
,,,,,,,,,,,,,,,,,-27.22222222,-49,20,75,-52.22222222,3.222222222,3.222222222,0.205546875,-0.288394097,1,0,0,0.5668,submitButton,10.49583333,-0.508988715,-0.392690972,0,0,0,1,34,94,33,1,49,69757,N,180,2022-02-15_20h54.56.901,orientation adjustment blockN,2021.2.3,MacIntel,60.0024001,,,,,,,
,,,,,,,,,,,,,,,,,-58.33333333,55,20,75,38.66666667,16.33333333,16.33333333,-0.517196181,-0.382573785,1,0,0,1.1997,submitButton,10.56790123,-0.517196181,-0.382573785,0,0,0,1,35,95,39,1,55,69757,N,180,2022-02-15_20h54.56.901,orientation adjustment blockN,2021.2.3,MacIntel,60.0024001,,,,,,,
,,,,,,,,,,,,,,,,,-26.11111111,-22,20,75,-36.11111111,14.11111111,14.11111111,0.206202257,-0.308055556,1,0,0,0.0834,submitButton,10.61111111,-0.36828125,-0.392322049,0,0,0,1,36,96,6,1,22,69757,N,180,2022-02-15_20h54.56.901,orientation adjustment blockN,2021.2.3,MacIntel,60.0024001,,,,,,,
,,,,,,,,,,,,,,,,,72.77777778,65,20,75,225.7777778,19.22222222,19.22222222,0.178758681,-0.306019965,1,0,0,1.3167,submitButton,10.71485944,-0.564331597,-0.397951389,0,0,0,1,37,97,49,1,65,69757,N,180,2022-02-15_20h54.56.901,orientation adjustment blockN,2021.2.3,MacIntel,60.0024001,,,,,,,
,,,,,,,,,,,,,,,,,48.33333333,-19,20,75,-30.66666667,11.66666667,11.66666667,0.370516493,-0.306948785,1,0,0,1.0496,submitButton,10.72619048,-0.450681424,-0.417304687,0,0,0,1,38,98,3,1,19,69757,N,180,2022-02-15_20h54.56.901,orientation adjustment blockN,2021.2.3,MacIntel,60.0024001,,,,,,,
,,,,,,,,,,,,,,,,,-22.22222222,-23,20,75,-35.22222222,12.22222222,12.22222222,-0.397078993,-0.365052083,1,0,0,0.7166,submitButton,10.74379085,-0.406948785,-0.385842014,0,0,0,1,39,99,7,1,23,69757,N,180,2022-02-15_20h54.56.901,orientation adjustment blockN,2021.2.3,MacIntel,60.0024001,,,,,,,
,,,,,,,,,,,,,,,,,-22.77777778,-53,20,75,-58.77777778,5.777777778,5.777777778,-0.461445312,-0.396445312,1,0,0,0.8169,submitButton,10.68604651,-0.460173611,-0.394296875,0,0,0,1,40,100,37,1,53,69757,N,180,2022-02-15_20h54.56.901,orientation adjustment blockN,2021.2.3,MacIntel,60.0024001,,,,,,,
,,,,,,,,,,,,,,,,,47.22222222,-58,20,75,-51.77777778,6.222222222,6.222222222,0.363628472,-0.304973958,1,0,0,0.166,submitButton,10.63473819,-0.571623264,-0.412039931,0,0,0,1,41,101,42,1,58,69757,N,180,2022-02-15_20h54.56.901,orientation adjustment blockN,2021.2.3,MacIntel,60.0024001,,,,,,,
,,,,,,,,,,,,,,,,,38.33333333,-39,20,75,-39.66666667,0.666666667,0.666666667,-0.54734809,-0.414635417,1,0,0,1.2497,submitButton,10.52146465,-0.54734809,-0.414635417,0,0,0,1,42,102,23,1,39,69757,N,180,2022-02-15_20h54.56.901,orientation adjustment blockN,2021.2.3,MacIntel,60.0024001,,,,,,,
,,,,,,,,,,,,,,,,,37.22222222,64,20,75,231.2222222,12.77777778,12.77777778,-0.428524306,-0.411467014,1,0,0,2.5829,submitButton,10.54681648,-0.427235243,-0.411467014,0,0,0,1,43,103,48,1,64,69757,N,180,2022-02-15_20h54.56.901,orientation adjustment blockN,2021.2.3,MacIntel,60.0024001,,,,,,,
,,,,,,,,,,,,,,,,,-27.77777778,68,20,75,67.22222222,0.777777778,0.777777778,-0.434101562,-0.390902778,1,0,0,1.0156,submitButton,10.4382716,0.481263021,-0.404327257,1,0,0,1,44,104,52,1,68,69757,N,180,2022-02-15_20h54.56.901,orientation adjustment blockN,2021.2.3,MacIntel,60.0024001,continueButton,,,,,,
,,,,,,,,,,,,,,,,,46.11111111,38,20,75,64.11111111,26.11111111,26.11111111,0.396063368,-0.313307292,1,0,0,0.0994,submitButton,10.61050061,-0.308897569,-0.406462674,0,0,0,1,45,105,22,1,38,69757,N,180,2022-02-15_20h54.56.901,orientation adjustment blockN,2021.2.3,MacIntel,60.0024001,,,,,,,
,,,,,,,,,,,,,,,,,-32.22222222,-21,20,75,-39.22222222,18.22222222,18.22222222,0.196297743,-0.277434896,1,0,0,0.084,submitButton,10.69323671,-0.330026042,-0.38969184,0,0,0,1,46,106,5,1,21,69757,N,180,2022-02-15_20h54.56.901,orientation adjustment blockN,2021.2.3,MacIntel,60.0024001,,,,,,,
,,,,,,,,,,,,,,,,,67.22222222,52,20,75,218.2222222,13.77777778,13.77777778,0.22250434,-0.308871528,1,0,0,0.0838,submitButton,10.72640382,-0.411519097,-0.37671875,0,0,0,1,47,107,36,1,52,69757,N,180,2022-02-15_20h54.56.901,orientation adjustment blockN,2021.2.3,MacIntel,60.0024001,,,,,,,
,,,,,,,,,,,,,,,,,35.55555556,-42,20,75,-39.44444444,2.555555556,2.555555556,-0.316432292,-0.417230903,1,0,0,1.3665,submitButton,10.63947991,-0.005360243,-0.42984809,0,0,0,1,48,108,26,1,42,69757,N,180,2022-02-15_20h54.56.901,orientation adjustment blockN,2021.2.3,MacIntel,60.0024001,,,,,,,
,,,,,,,,,,,,,,,,,48.88888889,-61,20,75,-48.11111111,12.88888889,12.88888889,-0.34202691,-0.402942708,1,0,0,0.8826,submitButton,10.66315789,-0.323389757,-0.391462674,0,0,0,1,49,109,45,1,61,69757,N,180,2022-02-15_20h54.56.901,orientation adjustment blockN,2021.2.3,MacIntel,60.0024001,,,,,,,
,,,,,,,,,,,,,,,,,44.44444444,-33,20,75,-41.55555556,8.555555556,8.555555556,0.351449653,-0.292421875,1,0,0,0.8502,submitButton,10.6412037,-0.338172743,-0.388042535,0,0,0,1,50,110,17,1,33,69757,N,180,2022-02-15_20h54.56.901,orientation adjustment blockN,2021.2.3,MacIntel,60.0024001,,,,,,,
,,,,,,,,,,,,,,,,,-57.22222222,-51,20,75,-231.2222222,0.222222222,0.222222222,-0.280429688,-0.400555556,1,0,0,2.8501,submitButton,10.53379152,-0.276467014,-0.399518229,0,0,0,1,51,111,35,1,51,69757,N,180,2022-02-15_20h54.56.901,orientation adjustment blockN,2021.2.3,MacIntel,60.0024001,,,,,,,
,,,,,,,,,,,,,,,,,-33.33333333,-40,20,75,-51.33333333,11.33333333,11.33333333,0.218064236,-0.309904514,1,0,0,0.1327,submitButton,10.54195011,0.03374566,-0.316618924,0,0,0,1,52,112,24,1,40,69757,N,180,2022-02-15_20h54.56.901,orientation adjustment blockN,2021.2.3,MacIntel,60.0024001,,,,,,,
,,,,,,,,,,,,,,,,,55,-25,20,75,-37,12,12,-0.304175347,-0.431575521,1,0,0,1.8172,submitButton,10.55667789,-0.325759549,-0.413693576,0,0,0,1,53,113,9,1,25,69757,N,180,2022-02-15_20h54.56.901,orientation adjustment blockN,2021.2.3,MacIntel,60.0024001,,,,,,,
,,,,,,,,,,,,,,,,,-75,36,20,75,31,5,5,-0.272999132,-0.391905382,1,0,0,1.6165,submitButton,10.50111111,-0.268819444,-0.386814236,0,0,0,1,54,114,20,1,36,69757,N,180,2022-02-15_20h54.56.901,orientation adjustment blockN,2021.2.3,MacIntel,60.0024001,,,,,,,
,,,,,,,,,,,,,,,,,-23.33333333,-30,20,75,-41.33333333,11.33333333,11.33333333,-0.292421875,-0.400998264,1,0,0,0.8002,submitButton,10.50935094,-0.292421875,-0.400251736,0,0,0,1,55,115,14,1,30,69757,N,180,2022-02-15_20h54.56.901,orientation adjustment blockN,2021.2.3,MacIntel,60.0024001,,,,,,,
,,,,,,,,,,,,,,,,,-58.33333333,-16,20,75,-29.33333333,13.33333333,13.33333333,0.207560764,-0.295724826,1,0,0,1.5492,submitButton,10.53703704,-0.167074653,-0.391809896,0,0,0,1,56,116,0,1,16,69757,N,180,2022-02-15_20h54.56.901,orientation adjustment blockN,2021.2.3,MacIntel,60.0024001,,,,,,,
,,,,,,,,,,,,,,,,,-64.44444444,-27,20,75,-39.44444444,12.44444444,12.44444444,0.197456597,-0.290273438,1,0,0,0.1337,submitButton,10.55555556,-0.017044271,-0.386427951,0,0,0,1,57,117,11,1,27,69757,N,180,2022-02-15_20h54.56.901,orientation adjustment blockN,2021.2.3,MacIntel,60.0024001,,,,,,,
,,,,,,,,,,,,,,,,,-51.66666667,73,20,75,54.33333333,18.66666667,18.66666667,-0.234409722,-0.408237847,1,0,0,0.9991,submitButton,10.63354701,-0.165711806,-0.396749132,0,0,0,1,58,118,57,1,73,69757,N,180,2022-02-15_20h54.56.901,orientation adjustment blockN,2021.2.3,MacIntel,60.0024001,,,,,,,
,,,,,,,,,,,,,,,,,-53.33333333,-44,20,75,-54.33333333,10.33333333,10.33333333,0.168151042,-0.298658854,1,0,0,0.0677,submitButton,10.63068783,0.270954861,-0.400915799,1,0,0,1,59,119,28,1,44,69757,N,180,2022-02-15_20h54.56.901,orientation adjustment blockN,2021.2.3,MacIntel,60.0024001,continueButton,,,,,,
,,,,,,,,,,,,,,,,,40.55555556,69,20,75,236.5555556,12.44444444,12.44444444,0.205256076,-0.316236979,1,0,0,2.2509,submitButton,10.64779874,-0.159748264,-0.405416667,0,0,0,2,0,120,53,1,69,69757,N,180,2022-02-15_20h54.56.901,orientation adjustment blockN,2021.2.3,MacIntel,60.0024001,,,,,,,
,,,,,,,,,,,,,,,,,22.22222222,-68,20,75,-45.77777778,22.22222222,22.22222222,-0.230907118,-0.393676215,1,0,0,0.7338,submitButton,10.75597092,-0.227513021,-0.393368056,0,0,0,2,1,121,52,1,68,69757,N,180,2022-02-15_20h54.56.901,orientation adjustment blockN,2021.2.3,MacIntel,60.0024001,,,,,,,
,,,,,,,,,,,,,,,,,-20,30,20,75,35,5,5,-0.265989583,-0.407860243,1,0,0,0.6168,submitButton,10.7026749,-0.260885417,-0.406731771,0,0,0,2,2,122,14,1,30,69757,N,180,2022-02-15_20h54.56.901,orientation adjustment blockN,2021.2.3,MacIntel,60.0024001,,,,,,,
,,,,,,,,,,,,,,,,,68.88888889,61,20,75,219.8888889,21.11111111,21.11111111,0.206662326,-0.277087674,1,0,0,1.4162,submitButton,10.79816514,-0.198997396,-0.388394097,0,0,0,2,3,123,45,1,61,69757,N,180,2022-02-15_20h54.56.901,orientation adjustment blockN,2021.2.3,MacIntel,60.0024001,,,,,,,
,,,,,,,,,,,,,,,,,-20.55555556,-33,20,75,-43.55555556,10.55555556,10.55555556,-0.220581597,-0.382756076,1,0,0,0.6507,submitButton,10.7959596,-0.219236111,-0.378993056,0,0,0,2,4,124,17,1,33,69757,N,180,2022-02-15_20h54.56.901,orientation adjustment blockN,2021.2.3,MacIntel,60.0024001,,,,,,,
,,,,,,,,,,,,,,,,,-72.22222222,74,20,75,55.77777778,18.22222222,18.22222222,-0.196966146,-0.401775174,1,0,0,1.1004,submitButton,10.86286286,-0.19672309,-0.401775174,0,0,0,2,5,125,58,1,74,69757,N,180,2022-02-15_20h54.56.901,orientation adjustment blockN,2021.2.3,MacIntel,60.0024001,,,,,,,
,,,,,,,,,,,,,,,,,-30.55555556,58,20,75,52.44444444,5.555555556,5.555555556,-0.196840278,-0.406840278,1,0,0,0.6332,submitButton,10.81547619,-0.196284722,-0.403511285,0,0,0,2,6,126,42,1,58,69757,N,180,2022-02-15_20h54.56.901,orientation adjustment blockN,2021.2.3,MacIntel,60.0024001,,,,,,,
,,,,,,,,,,,,,,,,,24.44444444,-27,20,75,-36.55555556,9.555555556,9.555555556,0.400117188,-0.296080729,1,0,0,0.4329,submitButton,10.80432645,-0.278428819,-0.405073785,0,0,0,2,7,127,11,1,27,69757,N,180,2022-02-15_20h54.56.901,orientation adjustment blockN,2021.2.3,MacIntel,60.0024001,,,,,,,
,,,,,,,,,,,,,,,,,-70.55555556,-71,20,75,-241.5555556,9.444444444,9.444444444,-0.341909722,-0.409492187,1,0,0,1.9346,submitButton,10.79239766,-0.341111111,-0.407947049,0,0,0,2,8,128,55,1,71,69757,N,180,2022-02-15_20h54.56.901,orientation adjustment blockN,2021.2.3,MacIntel,60.0024001,,,,,,,
,,,,,,,,,,,,,,,,,-40.55555556,-62,20,75,-60.55555556,1.444444444,1.444444444,-0.246419271,-0.40702691,1,0,0,1.2504,submitButton,10.71111111,-0.246419271,-0.406779514,0,0,0,2,9,129,46,1,62,69757,N,180,2022-02-15_20h54.56.901,orientation adjustment blockN,2021.2.3,MacIntel,60.0024001,,,,,,,
,,,,,,,,,,,,,,,,,-56.66666667,-63,20,75,-68.66666667,5.666666667,5.666666667,0.230898437,-0.294574653,1,0,0,0.0322,submitButton,10.66762452,-0.306102431,-0.413198785,0,0,0,2,10,130,47,1,63,69757,N,180,2022-02-15_20h54.56.901,orientation adjustment blockN,2021.2.3,MacIntel,60.0024001,,,,,,,
,,,,,,,,,,,,,,,,,-54.44444444,55,20,75,50.55555556,4.444444444,4.444444444,-0.221944444,-0.420802951,1,0,0,1.4493,submitButton,10.61443495,-0.220668403,-0.41969184,0,0,0,2,11,131,39,1,55,69757,N,180,2022-02-15_20h54.56.901,orientation adjustment blockN,2021.2.3,MacIntel,60.0024001,,,,,,,
,,,,,,,,,,,,,,,,,53.88888889,-22,20,75,-26.11111111,4.111111111,4.111111111,0.394292535,-0.292821181,1,0,0,0.8835,submitButton,10.55932203,-0.203828125,-0.405164931,0,0,0,2,12,132,6,1,22,69757,N,180,2022-02-15_20h54.56.901,orientation adjustment blockN,2021.2.3,MacIntel,60.0024001,,,,,,,
,,,,,,,,,,,,,,,,,-38.88888889,-42,20,75,-45.88888889,3.888888889,3.888888889,-0.34687066,-0.435360243,1,0,0,0.9003,submitButton,10.50326797,-0.379140625,-0.421944444,0,0,0,2,13,133,26,1,42,69757,N,180,2022-02-15_20h54.56.901,orientation adjustment blockN,2021.2.3,MacIntel,60.0024001,,,,,,,
,,,,,,,,,,,,,,,,,-25,34,20,75,35,1,1,-0.278776042,-0.397039931,1,0,0,0.4161,submitButton,10.42407407,0.283693576,-0.392161458,1,0,0,2,14,134,18,1,34,69757,N,180,2022-02-15_20h54.56.901,orientation adjustment blockN,2021.2.3,MacIntel,60.0024001,continueButton,,,,,,
,,,,,,,,,,,,,,,,,36.11111111,-37,20,75,-33.88888889,3.111111111,3.111111111,-0.303980035,-0.402582465,1,0,0,1.1173,submitButton,10.36363636,0.032881944,-0.229804687,0,0,0,2,15,135,21,1,37,69757,N,180,2022-02-15_20h54.56.901,orientation adjustment blockN,2021.2.3,MacIntel,60.0024001,,,,,,,
,,,,,,,,,,,,,,,,,58.88888889,73,20,75,230.8888889,22.11111111,22.11111111,0.21641059,-0.303971354,1,0,0,1.1494,submitButton,10.45992714,0.048732639,-0.258294271,0,0,0,2,16,136,57,1,73,69757,N,180,2022-02-15_20h54.56.901,orientation adjustment blockN,2021.2.3,MacIntel,60.0024001,,,,,,,
,,,,,,,,,,,,,,,,,-51.11111111,20,20,75,40.88888889,20.88888889,20.88888889,0.209709201,-0.293767361,1,0,0,1.0345,submitButton,10.54471545,-0.258155382,-0.390998264,0,0,0,2,17,137,4,1,20,69757,N,180,2022-02-15_20h54.56.901,orientation adjustment blockN,2021.2.3,MacIntel,60.0024001,,,,,,,
,,,,,,,,,,,,,,,,,-74.44444444,28,20,75,37.55555556,9.555555556,9.555555556,0.193046875,-0.316866319,1,0,0,2.1328,submitButton,10.53673835,-0.380590278,-0.402773437,0,0,0,2,18,138,12,1,28,69757,N,180,2022-02-15_20h54.56.901,orientation adjustment blockN,2021.2.3,MacIntel,60.0024001,,,,,,,
,,,,,,,,,,,,,,,,,-29.44444444,52,20,75,41.55555556,10.44444444,10.44444444,-0.309960937,-0.385243056,1,0,0,0.5486,submitButton,10.536,-0.307582465,-0.383055556,0,0,0,2,19,139,36,1,52,69757,N,180,2022-02-15_20h54.56.901,orientation adjustment blockN,2021.2.3,MacIntel,60.0024001,,,,,,,
,,,,,,,,,,,,,,,,,-37.22222222,31,20,75,34.77777778,3.777777778,3.777777778,-0.361445313,-0.403845486,1,0,0,0.8342,submitButton,10.48236332,-0.360950521,-0.403845486,0,0,0,2,20,140,15,1,31,69757,N,180,2022-02-15_20h54.56.901,orientation adjustment blockN,2021.2.3,MacIntel,60.0024001,,,,,,,
,,,,,,,,,,,,,,,,,-39.44444444,-65,20,75,-71.44444444,6.444444444,6.444444444,-0.406475694,-0.414956597,1,0,0,1.2837,submitButton,10.45056868,-0.405972222,-0.414427083,0,0,0,2,21,141,49,1,65,69757,N,180,2022-02-15_20h54.56.901,orientation adjustment blockN,2021.2.3,MacIntel,60.0024001,,,,,,,
,,,,,,,,,,,,,,,,,-52.77777778,70,20,75,49.22222222,20.77777778,20.77777778,0.212743056,-0.279305556,1,0,0,0.3824,submitButton,10.53125,-0.463315972,-0.415494792,0,0,0,2,22,142,54,1,70,69757,N,180,2022-02-15_20h54.56.901,orientation adjustment blockN,2021.2.3,MacIntel,60.0024001,,,,,,,
,,,,,,,,,,,,,,,,,-25,-40,20,75,-51,11,11,-0.328836806,-0.403767361,1,0,0,0.6331,submitButton,10.53488372,-0.328836806,-0.403003472,0,0,0,2,23,143,24,1,40,69757,N,180,2022-02-15_20h54.56.901,orientation adjustment blockN,2021.2.3,MacIntel,60.0024001,,,,,,,
,,,,,,,,,,,,,,,,,-70,-17,20,75,-30,13,13,0.203038194,-0.303255208,1,0,0,1.7828,submitButton,10.55384615,-0.296961806,-0.391436632,0,0,0,2,24,144,1,1,17,69757,N,180,2022-02-15_20h54.56.901,orientation adjustment blockN,2021.2.3,MacIntel,60.0024001,,,,,,,
,,,,,,,,,,,,,,,,,-55.55555556,64,20,75,53.44444444,10.55555556,10.55555556,-0.199270833,-0.390959201,1,0,0,1.0995,submitButton,10.5538592,-0.199518229,-0.390959201,0,0,0,2,25,145,48,1,64,69757,N,180,2022-02-15_20h54.56.901,orientation adjustment blockN,2021.2.3,MacIntel,60.0024001,,,,,,,
,,,,,,,,,,,,,,,,,-52.22222222,48,20,75,54.77777778,6.777777778,6.777777778,-0.260481771,-0.392430556,1,0,0,1.4002,submitButton,10.52525253,-0.258953993,-0.392430556,0,0,0,2,26,146,32,1,48,69757,N,180,2022-02-15_20h54.56.901,orientation adjustment blockN,2021.2.3,MacIntel,60.0024001,,,,,,,
,,,,,,,,,,,,,,,,,-63.33333333,-43,20,75,-62.33333333,19.33333333,19.33333333,-0.244921875,-0.408706597,1,0,0,1.3335,submitButton,10.5914787,-0.244921875,-0.408459201,0,0,0,2,27,147,27,1,43,69757,N,180,2022-02-15_20h54.56.901,orientation adjustment blockN,2021.2.3,MacIntel,60.0024001,,,,,,,
,,,,,,,,,,,,,,,,,50.55555556,-19,20,75,-37.44444444,18.44444444,18.44444444,-0.209574653,-0.402430556,1,0,0,1.8829,submitButton,10.65008292,-0.209574653,-0.40218316,0,0,0,2,28,148,3,1,19,69757,N,180,2022-02-15_20h54.56.901,orientation adjustment blockN,2021.2.3,MacIntel,60.0024001,,,,,,,
,,,,,,,,,,,,,,,,,71.11111111,-57,20,75,112.1111111,10.88888889,10.88888889,-0.23016059,-0.401953125,1,0,0,2.4006,submitButton,10.65185185,-0.23016059,-0.399861111,0,0,0,2,29,149,41,1,57,69757,N,180,2022-02-15_20h54.56.901,orientation adjustment blockN,2021.2.3,MacIntel,60.0024001,,,,,,,
,,,,,,,,,,,,,,,,,-20.55555556,-24,20,75,-44.55555556,20.55555556,20.55555556,-0.374895833,-0.36890191,1,0,0,0.5657,submitButton,10.7246732,-0.356749132,-0.396822917,0,0,0,2,30,150,8,1,24,69757,N,180,2022-02-15_20h54.56.901,orientation adjustment blockN,2021.2.3,MacIntel,60.0024001,,,,,,,
,,,,,,,,,,,,,,,,,65,25,20,75,219,14,14,0.184921875,-0.303337674,1,0,0,2.4176,submitButton,10.7485807,-0.311167535,-0.398854167,0,0,0,2,31,151,9,1,25,69757,N,180,2022-02-15_20h54.56.901,orientation adjustment blockN,2021.2.3,MacIntel,60.0024001,,,,,,,
,,,,,,,,,,,,,,,,,47.77777778,-23,20,75,-30.22222222,7.222222222,7.222222222,-0.25875,-0.411037326,1,0,0,1.5152,submitButton,10.72302738,-0.25875,-0.411037326,0,0,0,2,32,152,7,1,23,69757,N,180,2022-02-15_20h54.56.901,orientation adjustment blockN,2021.2.3,MacIntel,60.0024001,,,,,,,
,,,,,,,,,,,,,,,,,-48.33333333,66,20,75,54.66666667,11.33333333,11.33333333,-0.309735243,-0.409444444,1,0,0,0.7668,submitButton,10.72741807,-0.309735243,-0.409197049,0,0,0,2,33,153,50,1,66,69757,N,180,2022-02-15_20h54.56.901,orientation adjustment blockN,2021.2.3,MacIntel,60.0024001,,,,,,,
,,,,,,,,,,,,,,,,,47.77777778,56,20,75,239.7777778,3.777777778,3.777777778,0.186549479,-0.289257812,1,0,0,0.0842,submitButton,10.67777778,-0.310850694,-0.402391493,0,0,0,2,34,154,40,1,56,69757,N,180,2022-02-15_20h54.56.901,orientation adjustment blockN,2021.2.3,MacIntel,60.0024001,,,,,,,
,,,,,,,,,,,,,,,,,-43.88888889,59,20,75,61.11111111,2.111111111,2.111111111,0.210164931,-0.295186632,1,0,0,0.2176,submitButton,10.61702128,-0.256744792,-0.390559896,0,0,0,2,35,155,43,1,59,69757,N,180,2022-02-15_20h54.56.901,orientation adjustment blockN,2021.2.3,MacIntel,60.0024001,,,,,,,
,,,,,,,,,,,,,,,,,73.33333333,-72,20,75,-47.66666667,24.33333333,24.33333333,-0.279210069,-0.415260417,1,0,0,1.6487,submitButton,10.71361502,-0.279210069,-0.415260417,0,0,0,2,36,156,56,1,72,69757,N,180,2022-02-15_20h54.56.901,orientation adjustment blockN,2021.2.3,MacIntel,60.0024001,,,,,,,
,,,,,,,,,,,,,,,,,38.88888889,-35,20,75,-40.11111111,5.111111111,5.111111111,-0.354861111,-0.397413194,1,0,0,1.6158,submitButton,10.67443667,-0.354861111,-0.397413194,0,0,0,2,37,157,19,1,35,69757,N,180,2022-02-15_20h54.56.901,orientation adjustment blockN,2021.2.3,MacIntel,60.0024001,,,,,,,
,,,,,,,,,,,,,,,,,66.66666667,75,20,75,233.6666667,21.33333333,21.33333333,-0.547009549,-0.410130208,1,0,0,2.1339,submitButton,10.74845679,-0.547009549,-0.409357639,0,0,0,2,38,158,59,1,75,69757,N,180,2022-02-15_20h54.56.901,orientation adjustment blockN,2021.2.3,MacIntel,60.0024001,,,,,,,
,,,,,,,,,,,,,,,,,46.11111111,32,20,75,43.11111111,11.11111111,11.11111111,0.371493056,-0.297934028,1,0,0,0.0836,submitButton,10.75095785,-0.415533854,-0.407686632,0,0,0,2,39,159,16,1,32,69757,N,180,2022-02-15_20h54.56.901,orientation adjustment blockN,2021.2.3,MacIntel,60.0024001,,,,,,,
,,,,,,,,,,,,,,,,,-30,-53,20,75,-83,30,30,-0.427204861,-0.407573785,1,0,0,0.9333,submitButton,10.88280061,-0.427204861,-0.407573785,0,0,0,2,40,160,37,1,53,69757,N,180,2022-02-15_20h54.56.901,orientation adjustment blockN,2021.2.3,MacIntel,60.0024001,,,,,,,
,,,,,,,,,,,,,,,,,-71.11111111,-44,20,75,-215.1111111,8.888888889,8.888888889,0.380217014,-0.312274306,1,0,0,0.2327,submitButton,10.86923658,-0.413845486,-0.424001736,0,0,0,2,41,161,28,1,44,69757,N,180,2022-02-15_20h54.56.901,orientation adjustment blockN,2021.2.3,MacIntel,60.0024001,,,,,,,
,,,,,,,,,,,,,,,,,-49.44444444,-46,20,75,-212.4444444,13.55555556,13.55555556,-0.251796875,-0.38594184,1,0,0,2.5345,submitButton,10.88738739,-0.251796875,-0.38594184,0,0,0,2,42,162,30,1,46,69757,N,180,2022-02-15_20h54.56.901,orientation adjustment blockN,2021.2.3,MacIntel,60.0024001,,,,,,,
,,,,,,,,,,,,,,,,,53.88888889,67,20,75,216.8888889,30.11111111,30.11111111,0.220086806,-0.300360243,1,0,0,0.0334,submitButton,11.01640567,-0.31655816,-0.415542535,0,0,0,2,43,163,51,1,67,69757,N,180,2022-02-15_20h54.56.901,orientation adjustment blockN,2021.2.3,MacIntel,60.0024001,,,,,,,
,,,,,,,,,,,,,,,,,-55,-45,20,75,-212,13,13,-0.299270833,-0.412256944,1,0,0,2.2827,submitButton,11.02962963,-0.298763021,-0.412256944,0,0,0,2,44,164,29,1,45,69757,N,180,2022-02-15_20h54.56.901,orientation adjustment blockN,2021.2.3,MacIntel,60.0024001,,,,,,,
,,,,,,,,,,,,,,,,,-29.44444444,-41,20,75,-40.44444444,0.555555556,0.555555556,-0.323302951,-0.445230035,1,0,0,1.2,submitButton,10.9602649,-0.382582465,-0.420099826,0,0,0,2,45,165,25,1,41,69757,N,180,2022-02-15_20h54.56.901,orientation adjustment blockN,2021.2.3,MacIntel,60.0024001,,,,,,,
,,,,,,,,,,,,,,,,,-51.66666667,47,20,75,37.33333333,9.666666667,9.666666667,-0.260104167,-0.397630208,1,0,0,1.2659,submitButton,10.95175439,-0.255164931,-0.393758681,0,0,0,2,46,166,31,1,47,69757,N,180,2022-02-15_20h54.56.901,orientation adjustment blockN,2021.2.3,MacIntel,60.0024001,,,,,,,
,,,,,,,,,,,,,,,,,-50.55555556,29,20,75,26.44444444,2.555555556,2.555555556,-0.22141059,-0.427643229,1,0,0,1.0677,submitButton,10.89687727,-0.22141059,-0.427643229,0,0,0,2,47,167,13,1,29,69757,N,180,2022-02-15_20h54.56.901,orientation adjustment blockN,2021.2.3,MacIntel,60.0024001,,,,,,,
,,,,,,,,,,,,,,,,,-67.22222222,-50,20,75,-52.22222222,2.222222222,2.222222222,-0.143025174,-0.426801215,1,0,0,1.8332,submitButton,10.84054834,-0.141202257,-0.426801215,0,0,0,2,48,168,34,1,50,69757,N,180,2022-02-15_20h54.56.901,orientation adjustment blockN,2021.2.3,MacIntel,60.0024001,,,,,,,
,,,,,,,,,,,,,,,,,-42.77777778,-54,20,75,-60.77777778,6.777777778,6.777777778,0.215355903,-0.313884549,1,0,0,0.5168,submitButton,10.81433692,-0.162296007,-0.418689236,0,0,0,2,49,169,38,1,54,69757,N,180,2022-02-15_20h54.56.901,orientation adjustment blockN,2021.2.3,MacIntel,60.0024001,,,,,,,
,,,,,,,,,,,,,,,,,-20,18,20,75,30,12,12,-0.224891493,-0.407013889,1,0,0,0.9503,submitButton,10.82193732,-0.222096354,-0.407013889,0,0,0,2,50,170,2,1,18,69757,N,180,2022-02-15_20h54.56.901,orientation adjustment blockN,2021.2.3,MacIntel,60.0024001,,,,,,,
,,,,,,,,,,,,,,,,,-58.88888889,-51,20,75,-223.8888889,7.111111111,7.111111111,0.417947049,-0.30577691,1,0,0,0.0674,submitButton,10.79830149,-0.411137153,-0.390559896,0,0,0,2,51,171,35,1,51,69757,N,180,2022-02-15_20h54.56.901,orientation adjustment blockN,2021.2.3,MacIntel,60.0024001,,,,,,,
,,,,,,,,,,,,,,,,,-48.88888889,21,20,75,24.11111111,3.111111111,3.111111111,0.194392361,-0.316467014,1,0,0,0.7009,submitButton,10.74964838,-0.268667535,-0.384266493,0,0,0,2,52,172,5,1,21,69757,N,180,2022-02-15_20h54.56.901,orientation adjustment blockN,2021.2.3,MacIntel,60.0024001,,,,,,,
,,,,,,,,,,,,,,,,,58.33333333,26,20,75,40.33333333,14.33333333,14.33333333,0.372721354,-0.304726563,1,0,0,0.1499,submitButton,10.77218728,-0.24109375,-0.406961806,0,0,0,2,53,173,10,1,26,69757,N,180,2022-02-15_20h54.56.901,orientation adjustment blockN,2021.2.3,MacIntel,60.0024001,,,,,,,
,,,,,,,,,,,,,,,,,-25.55555556,-49,20,75,-55.55555556,6.555555556,6.555555556,-0.281319444,-0.400672743,1,0,0,0.7996,submitButton,10.74583333,-0.281319444,-0.400672743,0,0,0,2,54,174,33,1,49,69757,N,180,2022-02-15_20h54.56.901,orientation adjustment blockN,2021.2.3,MacIntel,60.0024001,,,,,,,
,,,,,,,,,,,,,,,,,55,36,20,75,43,7,7,0.391675347,-0.305607639,1,0,0,0.8006,submitButton,10.72256729,-0.298841146,-0.40141059,0,0,0,2,55,175,20,1,36,69757,N,180,2022-02-15_20h54.56.901,orientation adjustment blockN,2021.2.3,MacIntel,60.0024001,,,,,,,
,,,,,,,,,,,,,,,,,74.44444444,-60,20,75,120.4444444,0.444444444,0.444444444,0.219088542,-0.300182292,1,0,0,0.0679,submitButton,10.65912209,-0.309787326,-0.407096354,0,0,0,2,56,176,44,1,60,69757,N,180,2022-02-15_20h54.56.901,orientation adjustment blockN,2021.2.3,MacIntel,60.0024001,,,,,,,
,,,,,,,,,,,,,,,,,-69.44444444,-16,20,75,-40.44444444,24.44444444,24.44444444,-0.272686632,-0.41015625,1,0,0,1.2844,submitButton,10.74369461,-0.271653646,-0.40984809,0,0,0,2,57,177,0,1,16,69757,N,180,2022-02-15_20h54.56.901,orientation adjustment blockN,2021.2.3,MacIntel,60.0024001,,,,,,,
,,,,,,,,,,,,,,,,,-27.22222222,39,20,75,39.77777778,0.777777778,0.777777778,0.190746528,-0.307300347,1,0,0,0.0512,submitButton,10.68292683,-0.219045139,-0.413658854,0,0,0,2,58,178,23,1,39,69757,N,180,2022-02-15_20h54.56.901,orientation adjustment blockN,2021.2.3,MacIntel,60.0024001,,,,,,,
,,,,,,,,,,,,,,,,,-39.44444444,-38,20,75,-53.44444444,15.44444444,15.44444444,-0.312456597,-0.404309896,1,0,0,0.9504,submitButton,10.71178451,-0.312456597,-0.4040625,0,0,0,2,59,179,22,1,38,69757,N,180,2022-02-15_20h54.56.901,orientation adjustment blockN,2021.2.3,MacIntel,60.0024001,,,,,,,
,,,,,,,,,,,,,,,,,,,,,,,,,,,,,,,,,,,,,,,,,,,69757,N,180,2022-02-15_20h54.56.901,orientation adjustment blockN,2021.2.3,MacIntel,60.0024001,,0.328511285,-0.412934028,1,0,0,EndButtonTxt
